time,seconds_elapsed,z,y,x
1789453811652244000,0.069243896484375,0.11474573859870434,1.8386597812384367,-1.1197089628398418
1789453811662183700,0.07918359375,0.338808176484704,1.416238671043515,-0.18515061476016417
1789453811672123000,0.089122802734375,-0.03361585387587547,0.89261051825881,0.12000143063720314
1789453811682061800,0.099061767578125,-0.06896189254522324,1.2350298709779977,-0.22691508737076072
1789453811692000800,0.109000732421875,-1.0205617753893137,1.1597656634181737,-0.6037863794637843
1789453811701940700,0.118940673828125,-1.262927931728959,0.7488456059247255,-0.977133406420797
1789453811711879700,0.128879638671875,-1.1457564272880554,0.8942454259842634,-1.229573943659663
1789453811721819000,0.13881884765625,-0.7687263644367456,0.4842974283933639,-1.4264745261147618
1789453811731758800,0.1487587890625,0.3052665568888187,0.008419745559990406,-1.4764993707388638
1789453811741697800,0.15869775390625,0.8337216914385557,0.007189326982200145,-1.298362817725539
1789453811751636700,0.16863671875,2.0268857665896416,0.4688625433743,-1.0816983811363576
1789453811761576000,0.178575927734375,1.0429325971513985,0.8610010357692838,-1.0703689586747438
1789453811771516000,0.188515869140625,-1.5949071389764546,-0.02996872954517603,-1.3332092363096772
1789453811781454800,0.198454833984375,-0.4006085068374872,-0.5162941566348076,-1.1160393344163895
1789453811791393800,0.208393798828125,-0.8743903864353895,-0.5648939368918537,-0.8942004177987575
1789453811801334000,0.218333984375,-0.13270517365932463,0.16936667884141204,-1.2807269155308603
1789453811811273000,0.22827294921875,-0.47813013793528075,0.518408372309804,-1.3740084258183836
1789453811821212000,0.2382119140625,-1.5424194113701581,0.2581763044118881,-1.2292385742254555
1789453811831151900,0.24815185546875,-1.378621764832735,-0.11546762313246726,-1.2728341164544223
1789453811841090800,0.2580908203125,-0.015462942069768905,-0.3320125249952078,-1.0910437171086669
1789453811851029800,0.26802978515625,0.20536475167870522,-0.6459715069055557,-0.7249990125216543
1789453811860968700,0.27796875,0.5589315213561058,-0.9594871289625764,-0.34746114627867936
1789453811870908700,0.28790869140625,0.8265905243843793,-1.3237068100795149,0.1733431812569499
1789453811880848000,0.297847900390625,0.9102052116602659,-1.8602657561078666,0.4054908720515668
1789453811890786800,0.307786865234375,1.7002356454104184,-2.521029758475721,-0.26847236523777246
1789453811900726800,0.317726806640625,1.0616010572642087,-3.303425459563732,-1.0057799474515021
1789453811910665700,0.327665771484375,-1.2202309457749128,-0.6994701651200652,0.08464549162834882
1789453811920605000,0.33760498046875,-3.664594520938396,2.051366127851605,1.6873597972244023
1789453811930545000,0.347544921875,-5.453107584738731,7.753112373328208,3.6668954913571477
1789453811940483800,0.35748388671875,-4.022940341585874,5.9739025599241256,4.20715592225194
1789453811950422800,0.3674228515625,-2.175492273736,1.4729004694640635,2.8515105438590047
1789453811960362000,0.377362060546875,-2.262911029469967,-1.0478653773784636,1.0991942172732203
1789453811970302000,0.387302001953125,-1.9058558331549167,-3.3820123818054793,-0.4823116614036262
1789453811980241000,0.397240966796875,-0.35565000569224353,-3.8722067592829466,-1.3923038148351012
1789453811990179800,0.407179931640625,3.03210793402791,-0.8811082965135574,-1.18946346706748
1789453812000119800,0.417119873046875,6.355569050404429,1.0323168028518557,-1.6749460135921834
1789453812010058800,0.427058837890625,2.128282778793573,-0.04737929855138063,-2.440692485435307
1789453812019998000,0.436998046875,-3.6947394838333127,-2.2394006822839376,-2.0888732900775966
1789453812029937700,0.446937744140625,-4.44744234970808,-3.4443048795893785,-1.139158636458218
1789453812039876900,0.456876953125,-3.1965128988087175,-3.316107831004262,-1.5201383137181401
1789453812049815800,0.46681591796875,-1.4484890817850826,-2.752289998911321,-1.9877390204630792
1789453812059754800,0.476754638671875,0.5205284332036971,-1.8807704917371273,-2.29412026059553
1789453812069694700,0.48669482421875,2.061581232395768,-1.1364479161947965,-2.489633334214985
1789453812079634000,0.496634033203125,2.842442855784297,-0.6428273636609315,-2.2957138133972883
1789453812089572900,0.50657275390625,3.0426655683994293,-0.21845774974673984,-2.0397394029438494
1789453812099512800,0.516512939453125,1.410724291536212,0.13264730599224567,-1.7360490093305705
1789453812109451800,0.52645166015625,-2.8765064534276723,-0.2768701912268996,-0.6238830822814255
1789453812119391000,0.536390869140625,-4.578333751943707,0.1966431005626917,-0.31185777184739705
1789453812129331000,0.5463310546875,-2.8991899944007393,1.6118731790855525,0.28082331276684996
1789453812139270000,0.556269775390625,-3.024180063638091,1.3442568461552262,0.4258339143130928
1789453812149208800,0.566208740234375,-3.366042951518297,1.1064052446305752,0.336165918347612
1789453812159149000,0.576149169921875,-3.8321594110548496,1.2781672941759228,0.6341448024462908
1789453812169088000,0.586087890625,-3.7969980813026427,1.7319345597490667,1.0238036799199879
1789453812179027000,0.59602685546875,-2.650691618916392,1.8661425391867756,1.750524401667714
1789453812188966700,0.605966552734375,-0.8848831388771533,1.4897212558835744,2.6246365556836126
1789453812198905900,0.61590576171875,0.5993991408228874,0.9238824393570423,2.8487714742839336
1789453812208844800,0.6258447265625,0.5730757820427418,0.8395540508538484,1.816008681230247
1789453812218783700,0.63578369140625,0.6182254218459129,1.216700141300261,1.1156043770652264
1789453812228723700,0.6457236328125,1.1814660385727882,1.8486939762577412,1.6124360736653207
1789453812238663000,0.655662841796875,1.8604940119057893,2.4542516397103666,1.9203899699419735
1789453812248601900,0.665601806640625,2.9239941807895895,2.674919758982956,2.49249632243067
1789453812258541800,0.675541748046875,3.6854771499693393,2.7178058377683163,3.02925429816246
1789453812268480800,0.685480712890625,3.6640970928102727,2.721548823688924,2.8665374325990673
1789453812278420200,0.695420166015625,2.9766151793867346,2.861032989963889,2.35920487331599
1789453812288360200,0.705360107421875,1.8734534467220305,2.880967816750705,1.6375303290419279
1789453812298299100,0.715299072265625,0.4168038548350334,2.815536144158244,1.041236314627528
1789453812308238000,0.725238037109375,-2.226315867522359,3.0224443258866667,0.40637832241058347
1789453812318178300,0.73517822265625,-3.5560640035927293,3.288737885780632,-0.18826222570836543
1789453812328117200,0.7451171875,-0.8843535620450973,3.239118699347973,-0.13377280289083718
1789453812338056200,0.75505615234375,1.0846125150173902,2.8036729801461098,0.5573828306093812
1789453812347996200,0.76499609375,1.236260289555788,2.1571528994470834,0.6957311247222125
1789453812357935000,0.77493505859375,1.4119722457706927,1.7172542924895882,0.3536876926433295
1789453812367874000,0.7848740234375,1.0962181971371172,1.544357393695414,-0.30607012835666536
1789453812377814000,0.79481396484375,0.4206961860984564,1.1149459862217306,-1.10050486148037
1789453812387753200,0.804753173828125,-0.49967561478912825,1.0557397640153765,-1.5177635474108158
1789453812397692200,0.814692138671875,-0.9985270537137985,1.5418036175593732,-1.4776659303002058
1789453812407632100,0.824632080078125,-0.9249638048529625,1.5309750572919845,-1.383561413192004
1789453812417571000,0.834571044921875,-0.6089852998137474,1.0465355900794266,-1.1147370196461677
1789453812427510000,0.844510009765625,0.16401041250526904,0.4220815029770136,-0.3483377829827368
1789453812437450200,0.8544501953125,0.616653057962656,0.26027298443019387,0.41996487614922223
1789453812447389200,0.86438916015625,0.5926940902262926,0.5360062805816531,0.7924453859373927
1789453812457328000,0.874328125,0.4951175130933523,0.9942170815601944,0.6752650406029075
1789453812467268400,0.884268310546875,0.06821721165776252,1.1430302171945572,0.037518122011423106
1789453812477207300,0.894207275390625,-0.7333142747938632,0.676827540679276,-0.615055705768615
1789453812487146200,0.904146240234375,-2.133053646457195,0.1911912648975849,-0.8899920793887227
1789453812497086000,0.9140859375,-2.8192998806059357,0.38719548303484913,-1.04933150440827
1789453812507025200,0.924025146484375,-2.566444478955865,0.466044563344121,-1.1284084751892833
1789453812516964000,0.933964111328125,-2.139294586673379,0.5668576381802558,-0.7179376227680593
1789453812526904000,0.943904052734375,-1.5330226374715565,0.7755684854164719,-0.1259567953776568
1789453812536843000,0.953843017578125,-1.146174944961071,0.8021084095567464,0.02511032972857356
1789453812546782200,0.9637822265625,-1.1385469343006611,0.8213941247850656,-0.29516850285306573
1789453812556722200,0.97372216796875,-1.0434159967541694,0.5959206510573625,-0.5686534355558455
1789453812566661000,0.9836611328125,-0.7891741091817617,0.5477697836115956,-0.4878532211787998
1789453812576600000,0.99360009765625,-0.7089572476506233,0.5358773935049772,-0.4739972028490156
1789453812586539000,1.0035390625,-0.9942027607738971,0.551049535934627,-0.5538105981457978
1789453812596479200,1.013479248046875,-1.316390057325363,0.4423512608066201,-0.7523769218560308
1789453812606418200,1.023418212890625,-1.6834633743077516,0.2926744940802455,-1.0017104329902677
1789453812616357000,1.033357177734375,-1.711844250139594,0.2306488305389881,-1.0419176479551941
1789453812626297300,1.04329736328125,-1.5303291606038807,0.3275160903587937,-0.6195169229611754
1789453812636236300,1.053236328125,-1.014800143122673,0.6136515380591153,0.2721936507832259
1789453812646175200,1.06317529296875,-0.35940205170214173,0.7570902871787548,0.8924777587246149
1789453812656115000,1.073114990234375,-0.16333587424457072,0.7037456504821777,0.9396881304498761
1789453812666054100,1.08305419921875,-0.37847792357206345,0.5841401968926191,0.7612476991191506
1789453812675993000,1.0929931640625,-0.6549573619157075,0.6267778538748622,0.4604571916658431
1789453812685933000,1.10293310546875,-1.0677250931024551,0.6060369714021683,-0.1254470922898501
1789453812695872000,1.1128720703125,-1.2906757703542708,0.5964750700697302,-0.6224478618465363
1789453812705811000,1.12281103515625,-1.2769663939535618,0.7243696285769343,-0.7890349929720163
1789453812715751200,1.132751220703125,-1.2634767977833747,0.7583516854166984,-0.7621605031151324
1789453812725690000,1.142690185546875,-1.0268103143900633,0.8296636482194065,-0.612156988652423
1789453812735629000,1.152629150390625,-0.6487164216995239,0.8172183004051446,-0.4078633002713322
1789453812745569300,1.1625693359375,-0.38006665406823154,0.68866293990165,-0.3305217019155621
1789453812755508200,1.17250830078125,-0.1651969919413328,0.5303264813795685,-0.33265915233567356
1789453812765447200,1.182447265625,-0.2049205150425434,0.432282286734879,-0.33093364371731876
1789453812775387100,1.19238720703125,-0.29908699147105217,0.4371171595454216,-0.23833529338836668
1789453812785326300,1.202326416015625,-0.464481551811099,0.47427930772602556,-0.12221256734803318
1789453812795265300,1.212265380859375,-0.7249351535052061,0.6096788350358605,-0.006227642343193293
1789453812805205000,1.222205078125,-0.7591010424792766,0.5900055817946791,0.03210997935757041
1789453812815144000,1.23214404296875,-0.7657008791357278,0.3980105992987752,-0.22195056029856203
1789453812825083100,1.242083251953125,-1.1253303098529577,0.16892624159753322,-0.598044949734956
1789453812835023000,1.252023193359375,-0.842279676425457,0.12806874603033064,-0.6151601890563965
1789453812844962000,1.261962158203125,-0.2356891627937555,0.2793395039498806,-0.5606387636654079
1789453812854902000,1.271902099609375,0.2754664619088173,0.20164134724140165,0.2537937054134905
1789453812864841200,1.28184130859375,1.0784802958726882,0.20069354499727488,0.38014761034995315
1789453812874780200,1.2917802734375,1.5174907218188047,0.004589958138763904,0.3600535013481974
1789453812884719000,1.301718994140625,1.4458669165879487,-0.07724018380790948,0.49133083416149015
1789453812894659000,1.3116591796875,0.9779518831968307,-0.07555471493899822,0.4313764239363372
1789453812904598300,1.321598388671875,0.5555155754327774,-0.2782774276763201,-0.19096286296918988
1789453812914538200,1.331538330078125,-0.14570552500784395,-0.4331260440826416,-0.8086537395469844
1789453812924477200,1.341477294921875,-0.6530033052384853,-0.19793577072173354,-1.728806490856409
1789453812934416100,1.351416015625,-1.2144704825520514,-0.15005787499845027,-2.0013247704841195
1789453812944356000,1.361356201171875,-1.342460902649164,-0.42530017276257276,-1.7468468821987508
1789453812954295000,1.371294921875,-0.4192606003373861,-0.1756087881013751,-1.6579986781835554
1789453812964234200,1.381234130859375,0.18448738334476947,-0.01469283448010683,-1.199749298760295
1789453812974174000,1.391174072265625,0.3507686633914709,-0.012040566405653952,-0.7799934622518718
1789453812984113200,1.401113037109375,0.8077835325837135,-0.08395458675473928,-0.7704730619736015
1789453812994052000,1.411052001953125,0.47866205285489555,0.016340309426188467,-0.8059235839307308
1789453813003992000,1.420991943359375,0.26704993121922016,-0.192974056661129,-0.7657073088765144
1789453813013931000,1.430930908203125,0.0008943184912204742,-0.3949102951958775,-0.7248642802260815
1789453813023870200,1.4408701171875,-0.29018530761301514,-0.6491364006772637,-0.7525893224976956
1789453813033810200,1.45081005859375,-0.65159577652812,-0.6276607741892337,-0.3843079448997974
1789453813043749000,1.4607490234375,-1.1588503021389245,-0.5175222371250391,-0.02822013231217861
1789453813053688000,1.47068798828125,-1.4910691633611917,-0.7198480594992637,-0.32469986389428374
1789453813063628300,1.480628173828125,-1.415174256682396,-1.322738841830194,-1.050265131996572
1789453813073567200,1.490567138671875,-1.4155126948565244,-1.7444652477592228,-1.7308965950034558
1789453813083506200,1.500506103515625,-1.3818290364414452,-2.2542685810700056,-2.4691379509359597
1789453813093446100,1.510446044921875,-1.5332757354497908,-2.71603619774729,-3.0100366797342897
1789453813103385000,1.520385009765625,-2.269645306161046,-2.939135635820031,-3.3262706208392974
1789453813113324300,1.53032421875,-2.5824036801099775,-3.5517779968366026,-3.1617303392410276
1789453813123264000,1.540263916015625,-2.3376275400191546,-4.485855666993558,-2.6625302330091594
1789453813133203000,1.550202880859375,-1.8153589851498604,-5.359343259370327,-1.9419740252405404
1789453813143142100,1.56014208984375,-2.3517981041908262,-6.812427852252125,4.5188095498293634
1789453813153082000,1.57008203125,-2.6606051101654766,-6.600503595927357,5.998275369158387
1789453813163021000,1.58002099609375,-3.2684219507217405,-4.592028807558119,1.26092097582072
1789453813172960000,1.5899599609375,-5.090381357049941,-3.52810632160902,-0.7281935707792639
1789453813182900200,1.599900146484375,-6.0435781536966555,-2.1442206448987124,-3.5867245147943496
1789453813192839200,1.609839111328125,-2.77516613984704,-2.544906893147528,-6.400266854786873
1789453813202778000,1.619778076171875,-3.1243016490787268,-8.66323049122691,-6.600940818300843
1789453813212718300,1.62971826171875,-2.065560072898865,-10.571335564613342,-5.338492194521427
1789453813222657300,1.6396572265625,-0.5291793571710586,-6.902262436956167,-4.088530127349496
1789453813232596200,1.64959619140625,-1.2903110286951065,-7.497596812558173,-2.3590263018786906
1789453813242536200,1.6595361328125,-0.27949440225064753,-8.599562613436579,-0.502279659807682
1789453813252475100,1.66947509765625,1.3302519939392805,-6.389879316285252,2.625692786738276
1789453813262415000,1.6794150390625,2.1967034040689466,-5.32979450880289,5.936061781829595
1789453813272354000,1.68935400390625,3.0108646549910305,-5.257932218641042,7.80683987186253
1789453813282293200,1.699293212890625,2.3285241961091754,-5.664240398424863,8.10626647055149
1789453813292233200,1.709233154296875,1.1673825681626797,-4.480104263859987,7.829042935842275
1789453813302172200,1.719172119140625,1.6147534106969832,-2.0997233315244315,7.543992653030156
1789453813312111000,1.729111083984375,2.3622248056590553,-0.8065010915577411,7.560371540901064
1789453813322051300,1.73905126953125,0.421526791703701,-2.057189134916663,7.388789231836795
1789453813331990300,1.748990234375,-0.38852877746522424,-3.538197799773514,7.230245852565765
1789453813341929200,1.75892919921875,1.5398013378262518,-0.14126082055866718,9.130536452808975
1789453813351869200,1.768869140625,0.01217617548406124,5.9568017875194545,12.639716540151834
1789453813361808400,1.778808349609375,-4.146687425024807,5.256139490005373,12.776720287787914
1789453813371747300,1.788747314453125,-5.912876721075177,1.921271136690676,10.511754079353809
1789453813381687000,1.79868701171875,-5.730706382501125,0.8070993497118354,8.691927008879183
1789453813391626200,1.808626220703125,-4.386572578203678,0.024429215596616267,6.727331401985883
1789453813401566200,1.818566162109375,-2.3427219405487176,-0.5644418092101812,4.398222099465132
1789453813411505200,1.828505126953125,-0.6835998112931847,-2.900302924078703,2.1521382861554623
1789453813421444000,1.838444091796875,-4.631496894593536,-0.7704103720009327,1.5607985331475733
1789453813431384300,1.84838427734375,-7.135956626540422,2.727334713613987,5.0678836940377945
1789453813441323300,1.8583232421875,-6.403690399494767,2.735671164804697,6.408312798598408
1789453813451262200,1.86826220703125,-2.331749587896466,0.4203776216685772,2.19856218367815
1789453813461202200,1.8782021484375,0.6499456712335347,-0.6735749686241149,-1.1242676490575074
1789453813471141400,1.888141357421875,2.4177903332754966,0.062417585468292236,-1.0549895301699639
1789453813481080300,1.898080322265625,5.554574155047535,1.1592384246736764,-0.4005301809042692
1789453813491020300,1.908020263671875,5.817712465780973,1.3731260900259017,-0.6295750833779573
1789453813500959200,1.917959228515625,5.523312170821428,0.639085254523158,0.7192933482259511
1789453813510898200,1.927898193359375,5.534268449121713,1.2915771031081675,1.7084668826609848
1789453813520838100,1.937838134765625,5.374114712044596,1.5946838516145945,1.8823066152632235
1789453813530777000,1.947777099609375,5.55348402172327,2.128956732532382,2.0281910039693116
1789453813540717000,1.957717041015625,5.56333146199882,2.4006138652861115,1.8800784178197383
1789453813550656300,1.96765625,4.616859881953895,2.583282801032066,1.1989432430744171
1789453813560595200,1.97759521484375,3.365203578084707,2.8080554330140353,1.0093950692087412
1789453813570535200,1.98753515625,1.4619395149886607,3.085195965614915,1.7208488098502157
1789453813580474000,1.99747412109375,0.8562000652283429,3.027031361415982,2.3855489826232192
1789453813590413300,2.007413330078125,-0.3105205318942666,2.6010820770949126,3.4766403382658955
1789453813600353300,2.017353271484375,-3.6870702643796798,3.2470880707919596,6.367005805698037
1789453813610292200,2.027292236328125,-4.746242925453186,3.826460322630405,5.671156461423635
1789453813620231200,2.037231201171875,-7.616668013140559,6.032061903426051,11.08350767288208
1789453813630171400,2.04717138671875,-10.726437278997897,7.306770289319753,11.995899580931663
1789453813640110300,2.0571103515625,-3.8297570260882376,7.130486086174845,11.817400624346732
1789453813650050000,2.067050048828125,-1.685456009429693,5.7392842412322755,10.503177974188327
1789453813659989000,2.076989013671875,0.19276596686840056,3.3653596454292534,5.401925679033995
1789453813669928200,2.08692822265625,-1.0100921115621924,4.189748860377073,6.114038760367036
1789453813679868200,2.0968681640625,-1.8227695536673068,4.506292013561725,4.612160618221759
1789453813689807000,2.10680712890625,0.04312193336784839,4.0418034474879505,3.5740421433538194
1789453813699746000,2.11674609375,1.7881730181910096,2.4512404751956463,2.7283704864025116
1789453813709686300,2.126686279296875,1.481329275113344,1.1962322305500506,0.9876251359492539
1789453813719625200,2.136625244140625,-2.948565727466345,0.19726736994087696,-1.8949492392152547
1789453813729564200,2.146564208984375,-5.475815091109276,0.3039256636738777,-2.3765835858792066
1789453813739504400,2.15650439453125,-4.929139824736118,1.1386620851129292,-3.5713562652707096
1789453813749443300,2.166443359375,-4.179519142785668,2.775356109461188,-3.819269534343481
1789453813759383300,2.17638330078125,-5.395299538892507,2.937970099171996,-5.021289116123318
1789453813769322200,2.186322265625,-4.312995300817489,2.7676608787834645,-5.274430348977447
1789453813779261200,2.19626123046875,-1.1824515424787998,3.190276634767651,-1.6359996123433111
1789453813789201200,2.206201171875,0.736623253211379,5.781304350838065,3.759742409619689
1789453813799140000,2.21614013671875,-0.8986708412110805,4.198076543739438,2.7539041561096904
1789453813809079300,2.226079345703125,-1.5374702645301819,1.1840747597664594,0.409749260148406
1789453813819019300,2.236019287109375,2.8866496617794035,4.208457652500272,3.0204303557157517
1789453813828958200,2.245958251953125,1.9594377857387064,7.01169487157762,6.835147049060463
1789453813838897200,2.255897216796875,0.9739420630335808,12.73131462739706,11.545497407877445
1789453813848837000,2.265837158203125,8.341533024019002,11.374863777840137,17.154017672646045
1789453813858776300,2.2757763671875,7.453854701465368,-3.013269670306146,8.65325387161374
1789453813868716300,2.28571630859375,9.072977997809648,-9.286938143876194,-4.1924598729014395
1789453813878655200,2.2956552734375,4.261784169018268,-6.73658789063096,-3.310041662833094
1789453813888594200,2.30559423828125,-0.14622633401155471,-12.337295435822009,-6.884536810651421
1789453813898534400,2.315534423828125,-2.2041452445074916,-7.307334937465191,-3.795670632091164
1789453813908473300,2.325473388671875,-3.758630064463615,-8.844794096079468,-3.5750212175190446
1789453813918412300,2.335412353515625,-0.8698096345163882,-10.337724377137421,-4.722334226599336
1789453813928352000,2.34535205078125,1.1411818128488957,-9.817001882666348,-3.1455595411628483
1789453813938291200,2.355291259765625,0.9754198805011808,-7.956129685097932,-1.356426299637556
1789453813948231200,2.365231201171875,-0.23930370002910492,-6.009325755482911,-1.7027742239773271
1789453813958170000,2.375170166015625,-1.14988782800436,-2.9635096140980717,0.1464186417132616
1789453813968109000,2.385109130859375,-0.3337643370985985,-1.6431462692275642,1.075265425479412
1789453813978049300,2.39504931640625,-0.01798003945723176,-2.574113113887608,-1.0391016406863927
1789453813987988200,2.40498828125,-0.8941501489162444,-2.4247902751654387,-3.262919261652231
1789453813997927200,2.41492724609375,-1.3701986582718788,-2.3311910772308706,-4.759358427613973
1789453814007867400,2.424867431640625,0.19121128477230667,-1.8056959615305066,-6.3526575468719
1789453814017806300,2.434806396484375,0.6646189242303371,-2.3146844713270665,-7.4602978862553835
1789453814027746300,2.444746337890625,0.5617725169356912,-2.604587162606418,-8.068653071472049
1789453814037685200,2.454685302734375,2.3191771065711975,-3.94265976716876,-5.0150388235569
1789453814047624200,2.464624267578125,-0.8483269937656819,-1.5021955375313758,-0.1199409691542387
1789453814057564200,2.474564208984375,0.9984534770209341,-0.19135493102669715,3.858136148354411
1789453814067503000,2.484503173828125,1.4189970298409462,-0.7369730895623564,3.864067291969061
1789453814077442000,2.494442138671875,0.26235790094546974,0.995517935025692,1.753150073996186
1789453814087382300,2.50438232421875,-2.0593793384373185,-1.1510112790763378,2.206863563555479
1789453814097321200,2.5143212890625,1.5845207695186136,-2.2832623281031847,2.680207636258006
1789453814107261200,2.52426123046875,1.0560194577395916,-0.31982641263902184,1.4587754979997873
1789453814117200100,2.5342001953125,-0.664276467468217,3.280894478803873,6.1083075232386586
1789453814127139300,2.544139404296875,-0.029393267744779586,7.660846762084961,12.591160306775569
1789453814137079300,2.554079345703125,0.7915898650866001,4.673130927491187,7.78179427793324
1789453814147018200,2.564018310546875,-1.6924235103547571,-0.5172404975742101,-0.4248211570739746
1789453814156957200,2.573957275390625,-2.5639023932576177,-1.1816700367122888,0.6652461162179708
1789453814166897400,2.5838974609375,-0.20716975527405737,-1.4145751217454672,1.9568319871544837
1789453814176836400,2.59383642578125,-0.16834106212072072,-1.2260878551095724,1.6463965031951664
1789453814186776000,2.603776123046875,-1.342235277199745,-0.4585790497690439,1.640511536809802
1789453814196715000,2.613715087890625,-1.3997580763638018,-0.23835282904505728,1.8193986159294842
1789453814206654200,2.623654296875,-2.494590956622362,0.7280839729249476,3.0698622028827667
1789453814216594200,2.63359423828125,-2.6496412330806254,2.165191828995943,2.860392938494682
1789453814226533000,2.643533203125,-1.10801852504611,3.75297013900578,-0.2448714171588421
1789453814236472000,2.65347216796875,0.7890425917565822,2.078314340531826,-0.9035942690879106
1789453814246412300,2.663412353515625,-5.30855415237546,2.3609289206296205,-1.208538754415512
1789453814256351200,2.673351318359375,-3.9379076042056083,3.306956556299329,-2.1022388214766976
1789453814266291200,2.683291259765625,-3.1571207996189594,3.9793531287938353,-2.6459295190811156
1789453814276230100,2.693230224609375,3.9930151589214797,1.4247212527066468,0.04258183514177799
1789453814286170000,2.703170166015625,-0.1856312196176499,0.2281868243396282,1.7372504940748215
1789453814296109800,2.71310986328125,0.45580907359905537,0.8654904561430216,3.0211557473808526
1789453814306049000,2.723049072265625,0.39837987100258465,0.4892009825259447,2.1634271574109794
1789453814315988000,2.732988037109375,-0.15621574004106223,0.44483869370818135,1.376156251502037
1789453814325928000,2.742927978515625,-1.745895572823286,-0.751824913996458,0.1760375349074602
1789453814335867000,2.752866943359375,-0.5911610354401171,-2.4856571240603924,0.3584773380726576
1789453814345807000,2.76280712890625,0.32919673692211504,-1.4400731356173753,0.4904828390300274
1789453814355746000,2.77274609375,-0.7497488383747637,0.4221276802062988,0.7393968095779418
1789453814365685000,2.78268505859375,-0.4189364829495549,1.921314099049568,0.9499404251992702
1789453814375625000,2.792625,-1.197665478223562,2.4570710810452696,0.6682792003035545
1789453814385564200,2.802564208984375,-0.2947849103629589,2.06955995618999,0.5899065053343773
1789453814395503000,2.812503173828125,0.43109541503787036,1.5034592738568782,0.7338409290164709
1789453814405443000,2.822443115234375,-0.1263138651870191,1.3167635668128728,0.5755506477236747
1789453814415382000,2.832382080078125,-1.0476933818124234,1.648091032153368,-0.10524316623806952
1789453814425322000,2.842322021484375,-1.7483564099788664,3.5300066022723913,-1.3856950642198322
1789453814435261000,2.852260986328125,-3.005020020616054,5.906713522270321,-2.185090123164654
1789453814445200000,2.862199951171875,-2.9879940670132634,4.7499844500690696,-1.3044891916513441
1789453814455140000,2.87214013671875,-4.663938736253977,6.624144583755731,-0.9840344179809093
1789453814465079000,2.8820791015625,-4.508952757203579,7.914341630682348,-1.9455232421547173
1789453814475019000,2.89201904296875,-4.366726598744094,7.57336078633368,-1.5787223123729228
1789453814484958000,2.9019580078125,-3.3720050747931003,7.130355153271555,-0.9843073897033929
1789453814494897200,2.911897216796875,-1.0060393290400504,4.913398650246858,-1.4107213689267635
1789453814504837000,2.921837158203125,0.5577835203647613,3.726140584269166,-0.34687165595293046
1789453814514776000,2.931776123046875,0.2004439541503787,-2.6510131059557196,2.9381664985269307
1789453814524715800,2.9417158203125,3.6195135624572634,2.5794015756845474,3.780654849267006
1789453814534655000,2.951655029296875,-4.166882656313478,0.339453488650918,0.9784510648906231
1789453814544594200,2.96159423828125,-2.974950753305852,-0.19097265371084213,-3.2789877683997153
1789453814554534000,2.971533935546875,-2.2423478416517377,0.7278034024178981,-3.856765444523096
1789453814564472800,2.981472900390625,-1.5104267747819422,-2.731279067325592,-2.635762929853797
1789453814574412000,2.991412109375,2.000693486843258,-1.1858657348364592,-0.3737812901884317
1789453814584352000,3.00135205078125,-0.29537849234193564,5.971792435902357,0.20310908170640468
1789453814594291000,3.011291015625,-4.437746300601959,8.898563680189847,-3.268525411096215
1789453814604231200,3.021231201171875,-0.04213102263435721,7.2823992336511605,-2.0061293942868708
1789453814614170000,3.031170166015625,3.1871208010852334,2.7283295698702332,-3.975228742340207
1789453814624109000,3.041109130859375,1.0168329641245304,-5.276666145205497,-1.028866077876091
1789453814634049000,3.051049072265625,2.9323312165021895,-1.7744903836667536,-1.252262160807848
1789453814643988000,3.060988037109375,-4.343727123689651,-5.305332267719507,1.0000257678389548
1789453814653928000,3.070927978515625,-0.9402256713926792,-0.584535918211937,0.9864689516514539
1789453814663867000,3.080866943359375,3.8935587593913077,-1.0861790336817503,3.006882307356596
1789453814673806000,3.09080615234375,-1.956010003247112,-3.563233749091625,6.899860051989555
1789453814683746000,3.10074609375,-3.721093237751722,3.297401961490512,4.467315509435534
1789453814693685000,3.11068505859375,-0.359595528447628,4.047385631534457,1.3084218549251556
1789453814703625000,3.120625,-2.0205165238186718,-6.259838977921008,-3.2333138124614953
1789453814713564000,3.13056396484375,-2.840630253404379,-7.678274866747856,0.6069821432977914
1789453814723503000,3.140503173828125,-1.023064113599062,-5.333153756102919,3.144565853950381
1789453814733443000,3.150443115234375,1.0797384792402387,-7.5087161724656815,4.043941044038534
1789453814743382000,3.160382080078125,3.218457896374166,-7.609137033113837,2.709118088921904
1789453814753322200,3.170322265625,1.8830358063206076,-5.450955959662795,2.9466017339169976
1789453814763261200,3.18026123046875,1.338544605988264,-1.3212737377136945,2.507866033259034
1789453814773200100,3.1902001953125,-0.9309139454290271,-3.2174685930758713,-3.7577564964994785
1789453814783139800,3.200139892578125,-0.9247346722722053,-2.0431179394662378,-3.1576468693196773
1789453814793078800,3.210078857421875,-4.86026093429923,3.2261686168819663,-0.5987865618824958
1789453814803019000,3.22001904296875,-3.550290680888295,5.317471618324518,-2.021655172459781
1789453814812958000,3.2299580078125,-1.0205047845050692,1.3628396738111972,1.3363751529946923
1789453814822897000,3.23989697265625,-0.5394134586766361,-0.6392687943965196,1.1507315853521227
1789453814832837000,3.249837158203125,-0.5681961933076382,-1.8068454238265752,0.3099097065195441
1789453814842776000,3.259776123046875,-1.0155223199173808,-2.737619960784912,0.008596271170675754
1789453814852716000,3.269716064453125,-3.0232763927966353,-4.994212308627366,-0.011069383285939692
1789453814862655000,3.279655029296875,-3.5988761403590437,-7.158401682582497,1.130204930151999
1789453814872594200,3.28959423828125,-0.8106053120061755,-8.140997007670999,2.3084251186713574
1789453814882534100,3.2995341796875,0.5226271590486169,-7.792925912800431,2.3266630784124134
1789453814892473000,3.30947314453125,3.405279567885399,-5.786089247027039,2.1377695690631864
1789453814902413000,3.3194130859375,1.722741491729021,-4.072007447093725,2.0577993757694957
1789453814912352000,3.32935205078125,-1.5808628315329551,0.5791518870860338,1.0996820738554
1789453814922291000,3.339291015625,0.6891618293344974,6.114391227066516,-0.4762614214539528
1789453814932231000,3.34923095703125,-0.0741132839590311,6.850623435133695,-1.4412088616490364
1789453814942169900,3.359169921875,-1.1930068387627601,5.424982144972682,-0.13259995971918107
1789453814952110000,3.369110107421875,-0.7577943437948823,2.9578368291586634,0.8747931220173836
1789453814962049000,3.379049072265625,1.5747218445599078,0.7779407675057649,0.4669634317547083
1789453814971988000,3.388988037109375,1.369365860709548,-0.053316579645872116,-1.4994465310841798
1789453814981928200,3.39892822265625,0.44553076762557026,0.01574409709870815,-2.1729951962232588
1789453814991867100,3.4088671875,0.5253735351473092,0.3478840478658676,-2.2028028899878263
1789453815001806800,3.418806884765625,0.4677899457067251,0.7976806562423706,-0.8453571841746568
1789453815011746000,3.42874609375,-0.7862158438980579,0.8820464541465044,0.8633452608078718
1789453815021685200,3.438685302734375,0.314773805424571,1.0171604425132275,1.4337386718988419
1789453815031625000,3.448625,1.8161586110949515,1.1993477322220802,0.8361515489339828
1789453815041564000,3.45856396484375,0.8780798886030912,0.678720514819026,-0.009799509480595587
1789453815051503900,3.46850390625,0.8660597804635762,0.5436509501159191,-0.47324236589372154
1789453815061443000,3.478443115234375,0.49896191356182096,0.5350082094550133,-0.5759890391409397
1789453815071382000,3.488382080078125,0.15295651904940605,0.3835761234939098,-0.45755146028697485
1789453815081322000,3.498322021484375,0.8978039952486753,0.06556757393181324,0.028069910186529157
1789453815091261000,3.508260986328125,1.1026701497554778,-0.042187282866239545,0.0770505064547062
1789453815101201200,3.518201171875,0.4504489348053932,0.017620412364602087,-0.5202127913832664
1789453815111140000,3.52814013671875,-0.0773936208039522,0.636481794026494,-0.4016185606628656
1789453815121079000,3.5380791015625,-0.01239537119269371,1.1684925752311943,0.49412090327143665
1789453815131019000,3.54801904296875,0.14799509724974633,1.1008902806013823,1.0017477693259715
1789453815140958000,3.5579580078125,1.3538064725279808,1.0292033470064401,0.3362771967023611
1789453815150898000,3.56789794921875,1.6112772590190172,1.0287830757677554,-0.015226210704445837
1789453815160836900,3.5778369140625,0.8355436461687088,1.0614537577480077,0.7978045748829841
1789453815170777000,3.587777099609375,-0.27243980756402014,0.7563882763892412,1.3578057712972162
1789453815180716000,3.597716064453125,0.29177111549973483,0.11364566840231417,0.4143827651679516
1789453815190655000,3.607655029296875,0.10778700550198554,-0.14933657498657701,-0.9079092096775769
1789453815200595000,3.617594970703125,0.018741525349020956,0.24977964746654033,0.010579261681437491
1789453815210534100,3.6275341796875,0.003000350859761238,0.16957739898264407,0.49844519621133804
1789453815220474000,3.63747412109375,1.644942797255516,0.7374772396922111,-1.1717091991901396
1789453815230413000,3.6474130859375,0.7561153046667576,1.353998195707798,-1.635203493529558
1789453815240352000,3.65735205078125,0.8379162205189467,1.7754881625324486,0.0654991848707199
1789453815250292000,3.6672919921875,0.8644213656067847,1.5017150605380534,0.8185702995359897
1789453815260231000,3.67723095703125,-0.13652560873031616,0.48648295573890205,0.09781038588881492
1789453815270171400,3.68717138671875,0.045503860068321224,-0.1610585769623518,-2.3422113606780766
1789453815280110600,3.697110595703125,0.6548562396287918,0.9372580537587404,-1.2600579292505978
1789453815290050600,3.707050537109375,0.5702531258374453,1.6666975329458713,2.0538146900475023
1789453815299989500,3.716989501953125,-1.1422726768255234,0.8306330777734517,1.9512147317945956
1789453815309928400,3.726928466796875,0.26012919204533097,0.2190121687591076,0.739566320925951
1789453815319868700,3.73686865234375,0.7741483894854784,-0.40601416527330875,-1.72692082324028
1789453815329807600,3.7468076171875,-0.32633214127123356,-0.19425591316521168,-1.9103841242343187
1789453815339747300,3.756747314453125,-0.9327706792116165,-0.24761048673391342,-0.16620120054781437
1789453815349686500,3.7666865234375,-0.6995984676748513,-0.7709288429170846,0.5867044944226741
1789453815359625500,3.77662548828125,-0.7297253103911876,-1.3658341794520616,0.46276831815242764
1789453815369565400,3.7865654296875,-0.43302492179572577,-1.695353718587756,-0.3947404915869236
1789453815379504400,3.79650439453125,-0.634868513610959,-1.223771979382634,-0.9593781156301497
1789453815389444600,3.806444580078125,-1.4939923573315144,-0.8111421953618526,-0.7576268782734871
1789453815399383600,3.816383544921875,-0.7153104160696268,-0.8555021460920572,-0.8209118942260741
1789453815409323500,3.826323486328125,-0.34249124891161914,-0.9508891042262315,-0.980198785340786
1789453815419262500,3.836262451171875,-0.06786357591450214,-0.9328443289697169,-1.554359440010786
1789453815429201700,3.84620166015625,-0.6523199991494417,-0.665906041431427,-1.645373589888215
1789453815439141600,3.8561416015625,-0.8086842808157205,-0.06409925494492054,-2.5049866784304378
1789453815449080600,3.86608056640625,-1.5448276415556668,0.9632581719338893,-1.8881950887799261
1789453815459020500,3.8760205078125,-1.0246259560883044,1.5169611449867486,-0.4456295518249273
1789453815468959500,3.88595947265625,-0.534091094610095,1.41447633754611,-0.48957332296967504
1789453815478899500,3.8958994140625,-0.8237994323611258,0.935173648700118,-0.8358464285075664
1789453815488838400,3.90583837890625,-0.5777244846314191,0.5455313570350409,-1.63251410831511
1789453815498777600,3.915777587890625,-1.2665654114484786,0.6989870577782392,-0.7833394116789102
1789453815508717600,3.925717529296875,-0.8016939835369586,0.5729232218295336,0.3551467323452234
1789453815518656500,3.935656494140625,-0.8451841656953096,0.588815787488222,0.48174832843244075
1789453815528596500,3.945596435546875,-0.30293022289574145,0.6324643750786781,-0.08337737138867378
1789453815538535700,3.95553564453125,-0.13259294545650482,0.4893722474396229,-0.45448505845367904
1789453815548475400,3.965475341796875,-0.19871639970541,-0.15662907008230686,-0.9719307232111691
1789453815558414300,3.975414306640625,-0.7655284451782703,-0.07487140884995461,0.1643868446022272
1789453815568353500,3.985353515625,0.03880640825629234,-0.83708912204504,0.7212064883708953
1789453815578293500,3.99529345703125,-0.9115604256615042,-0.6901485022842884,0.5358043282687663
1789453815588232400,4.005232421875,-0.3106403588816523,-0.7288695703446865,-0.013918050715327262
1789453815598172400,4.01517236328125,-0.24577742608785627,0.17462416097819805,-0.6626601913779974
1789453815608111600,4.025111572265625,0.13436755391359329,4.454344384181499,1.5538029751718043
1789453815618051600,4.035051513671875,1.4854928245335817,4.056299590352177,-0.20622107624709604
1789453815627990500,4.044990478515625,-0.09217004191428423,2.9178619616448875,-1.6629899105995893
1789453815637930500,4.054930419921875,-0.04536240577101707,2.3055331966221333,-0.9250012142539024
1789453815647869700,4.06486962890625,0.3464838256791234,1.2118313662201166,-0.2767424731940031
1789453815657808600,4.07480859375,-0.4913748194336891,0.40920214765965934,-0.42691549900472164
1789453815667748400,4.084748291015625,-0.9471335510849952,0.16848317400515078,-0.09207213449776172
1789453815677687300,4.094687255859375,-0.7112947506874799,0.15405425115823745,0.2387701776742935
1789453815687627500,4.10462744140625,-0.633704730528593,0.25757190877795216,0.556933625537157
1789453815697566500,4.11456640625,-0.4131085074484348,-0.051693362358212466,0.640582799604535
1789453815707505400,4.12450537109375,-0.5148281757354736,-0.6239268483579158,-0.603210223543644
1789453815717445600,4.134445556640625,-1.1888622863039373,-0.3984311627984047,-1.5389683941334484
1789453815727384600,4.144384521484375,-1.1132301222145558,0.3219628401458263,-0.6397814200937748
1789453815737324500,4.154324462890625,-0.3163312639996409,0.6978676983594894,-0.4508639453470707
1789453815747263500,4.164263427734375,-0.3307043650060892,0.31851533004045485,0.004424246183037757
1789453815757203500,4.174203369140625,0.1795230389356613,-0.3826888192653656,-0.601247983559966
1789453815767142700,4.184142578125,-0.9910393283069133,-0.2887503063738346,-1.7758236780971288
1789453815777082400,4.194082275390625,-2.4650758160635826,0.699440646764636,-0.025047932016849517
1789453815787021300,4.204021240234375,-1.184346270184219,1.7616414234876632,1.4760989732444285
1789453815796960500,4.21396044921875,-0.37187019587010145,2.448307344353199,1.261329848882556
1789453815806900500,4.223900390625,0.0899596723884344,2.1516040331482884,-0.20444296065866946
1789453815816839400,4.23383935546875,-0.855045634496212,1.1993085692554712,-2.0264257478624583
1789453815826779600,4.243779541015625,-2.1483143439531327,0.7359598208665847,-1.5980015978604554
1789453815836718600,4.253718505859375,-1.1477642599791287,0.3355652490407228,1.3186837212204932
1789453815846658600,4.263658447265625,-0.04260433923453092,-0.20382570554316043,1.9522925901591777
1789453815856597500,4.273597412109375,-0.7093719659313559,-0.34305881966650487,1.4761457349956035
1789453815866537500,4.283537353515625,-0.8840531177937984,-0.14070552476346493,0.7442714298769831
1789453815876476400,4.293476318359375,-0.8488730833411217,0.4702648113876581,-0.005490998631715774
1789453815886415400,4.303415283203125,-0.8113128757536411,1.227047055530548,0.3720230483442545
1789453815896355600,4.31335546875,-0.3681529289126396,1.8034172029435633,0.6104737848058343
1789453815906294500,4.32329443359375,-0.7268503394767641,2.081436271944642,1.049653429839015
1789453815916234500,4.333234375,0.16198855128884315,2.139221521437168,1.0056544213756917
1789453815926173400,4.34317333984375,0.397179116910696,2.0300550442755223,-0.6640072220727801
1789453815936113700,4.35311376953125,-1.1016048586115241,1.820865181350708,-1.1001479378014802
1789453815946052600,4.363052490234375,-0.6098071375906468,1.2154945649027824,-0.7014186688393353
1789453815955992600,4.37299267578125,-1.1770195805579424,0.5116366862177848,-0.2446568976253271
1789453815965931500,4.382931640625,-1.229844285033643,-0.26291619241535663,0.7592556485190988
1789453815975870700,4.39287060546875,-1.3839879680410028,-0.8317389931887388,0.7342205759838223
1789453815985810400,4.402810546875,-2.504215694057941,-0.7418278361171483,0.554555790489912
1789453815995749400,4.412749267578125,-1.5685636141911148,-0.0890799669444561,0.48934448264986274
1789453816005689600,4.422689697265625,-1.2273112594246864,0.8406354163497686,0.3847887141540646
1789453816015628500,4.432628662109375,-0.9212076671898365,1.2079524789601563,0.20930530599802732
1789453816025568500,4.442568603515625,0.02063011557459831,1.4061778802782297,-0.19076953235417604
1789453816035507500,4.452507568359375,-1.4320856439948082,1.1968833879351615,-0.48013241766840214
1789453816045446400,4.4624462890625,-1.2807049959599972,0.907168620443344,0.09371551779061556
1789453816055386600,4.47238671875,-0.33464053541123867,0.8143781085431575,1.018513026165962
1789453816065325600,4.48232568359375,-0.2286006658375263,0.8169143490225076,0.8477516780957579
1789453816075265300,4.492265380859375,-0.8003028214395046,0.8172633085906506,0.2932254059612751
1789453816085204500,4.50220458984375,-1.590695074239373,0.9311007001727819,-0.06916998233795166
1789453816095144400,4.51214453125,-1.530054727576673,0.921889219713211,0.27348493270277974
1789453816105083400,4.52208349609375,-0.46065410247743127,0.8081950359940528,0.4212520664155483
1789453816115023600,4.532023681640625,-0.0354813554868102,0.7424573661923408,-0.5200932566568255
1789453816124962600,4.541962646484375,-1.6343100518211722,0.46914662101268767,-1.4056465498805044
1789453816134901500,4.551901611328125,-2.7650398826301097,-0.025816578301787376,-0.7106722348749637
1789453816144841500,4.561841552734375,-2.429640053284168,-1.2201917828083038,0.9915601373106241
1789453816154780700,4.57178076171875,-0.5797828784659504,-2.297327678334713,1.7239897382244467
1789453816164720600,4.581720703125,-0.6799006645143032,-2.699610840386152,1.0924977153092623
1789453816174659600,4.59165966796875,-1.023903194771707,-2.7695050453454253,0.1652814553543925
1789453816184599300,4.601599365234375,-0.8333414599493145,-2.26409819342792,-0.3125324562385678
1789453816194538500,4.61153857421875,-0.7708487634181976,-1.467877088344097,-0.6648147390633821
1789453816204478500,4.621478515625,-1.3511375455796717,-0.9513035302460193,-0.048364217935502524
1789453816214417400,4.63141748046875,-1.1093649712190032,-0.5772621278166771,0.5024357271522283
1789453816224357600,4.641357666015625,-1.3477788828015327,-0.36470191167593,0.06433043335229158
1789453816234296600,4.651296630859375,-1.3547504753798245,-0.4612888932496309,-0.30531507220566273
1789453816244235500,4.661235595703125,-0.49795332104116674,-0.274940976729989,-0.7871493253558873
1789453816254175500,4.671175537109375,-0.6443626104041934,0.17853753502964972,-1.3888228408515453
1789453816264114700,4.68111474609375,-0.7073904367253184,0.8022557090729474,-1.8480577241808176
1789453816274054100,4.69105419921875,-0.661526803433895,1.565200567498803,-1.869300272565335
1789453816283993000,4.7009931640625,-0.6049564826890826,1.9825532883882522,-1.7226212263502179
1789453816293933000,4.71093310546875,-0.7311088737040757,1.9851351215749977,-1.488541690710187
1789453816303872000,4.7208720703125,-0.772384886944294,1.6918138540238141,-1.3671547605313359
1789453816313812000,4.73081201171875,-1.0546396938189864,1.2969061891764402,-0.9028982496477663
1789453816323751200,4.740751220703125,-1.35311308343634,0.8534422909528017,0.16225436261817813
1789453816333690000,4.750690185546875,-1.0770656067691742,0.18922317969501018,1.3569611371666193
1789453816343630000,4.760630126953125,-0.8934552985198795,-0.30114041686952114,1.8549745178319512
1789453816353569000,4.770569091796875,-0.8129225029073656,-0.519439468923211,1.8964315867275
1789453816363509200,4.78050927734375,-0.9718690561518073,-0.5251303740411997,1.5596059623621403
1789453816373448200,4.7904482421875,-1.1103526670821011,-0.13254910631477831,1.3135916587784886
1789453816383388200,4.80038818359375,-1.0789650106497108,0.07995441120266913,1.1266295558832584
1789453816393327000,4.8103271484375,-1.137999675681442,0.330189985743165,1.13658571723029
1789453816403267000,4.82026708984375,-1.0692147471383213,0.35424189245998855,0.609977087330073
1789453816413206000,4.8302060546875,-1.1680546222053467,0.2517056470930576,0.3137318951562047
1789453816423146000,4.84014599609375,-1.3789958588421345,-0.21207564749419688,0.6800820124305784
1789453816433085200,4.850085205078125,-0.9201020440354942,-0.48419747515022754,0.5661795927882194
1789453816443024100,4.860024169921875,-0.8133987421169877,-0.3770394152015447,0.08449994567781687
1789453816452964000,4.869964111328125,-0.8898103661462664,-0.5162216759204864,0.07571531232818961
1789453816462903000,4.879903076171875,-0.7821066550135612,-0.5366267505675554,-0.20203706856071948
1789453816472843300,4.88984326171875,-1.2104977795287966,-0.3965203607410192,-0.3193750156097114
1789453816482782200,4.8997822265625,-1.5946017262890935,-0.3051630965143442,0.06903437325954437
1789453816492722000,4.909721923828125,-1.6734779868662357,-0.25136077917814253,0.8586015734121203
1789453816502660900,4.919660888671875,-1.1918661442950367,-0.08773030590116977,1.2091612702280283
1789453816512601000,4.92960107421875,-1.0553811598360539,0.12659282825887203,0.9284843801945447
1789453816522540000,4.9395400390625,-1.3663023814857005,0.2730933030366897,0.7597874173082411
1789453816532480000,4.94947998046875,-1.20898094522506,0.29974399407505986,0.40202290368005633
1789453816542419200,4.959419189453125,-0.7257248425781726,-0.03926175080835819,0.28509909038990733
1789453816552359200,4.969359130859375,-0.3117661480411887,-0.16258067196309567,-0.3724909581169486
1789453816562298000,4.979298095703125,-0.4176724543631077,-0.2781459102511406,-0.8444666650757193
1789453816572237000,4.989237060546875,-0.5686144187197089,-0.5534358465492725,-0.8615458101704716
1789453816582177300,4.99917724609375,-0.7421838099479675,-0.7079308272123337,-0.7052537169575691
1789453816592116200,5.0091162109375,-0.7790732786670327,-0.4902554600149393,-0.5082356456026434
1789453816602056000,5.019055908203125,-0.7224994507908821,-0.060274728220701214,-0.15475275481641293
1789453816611995000,5.028994873046875,-0.5915431666254997,0.13428162919580935,0.09574614683538675
1789453816621935000,5.03893505859375,-0.3688967330172658,0.32109774774909017,0.35841654779613014
1789453816631874000,5.0488740234375,-0.014547873051464556,0.48420975010991096,0.0948331236436963
1789453816641814000,5.05881396484375,0.09399111986160277,0.5966022035807371,-0.22663287289589643
1789453816651753200,5.068753173828125,0.3185398799598217,0.7486912921458482,-0.6008887948587537
1789453816661693200,5.078693115234375,0.45248540906906126,0.737690005660057,-1.1245289303421973
1789453816671632100,5.088632080078125,0.06748743607848882,0.708517687189579,-1.3933847419396042
1789453816681571000,5.098571044921875,-0.5893836505040526,0.44038580595254895,-1.4197081007197498
1789453816691511000,5.108510986328125,-1.297348379985988,0.2028466313779354,-0.8551473413050175
1789453816701450000,5.118449951171875,-1.4146645535945892,0.06559037028551101,-0.0030029812082648277
1789453816711390000,5.128389892578125,-1.098445810058713,0.1490980900555849,0.7579755455806851
1789453816721329200,5.1383291015625,-0.613747399649024,0.26714345472157,1.3075249060854315
1789453816731269000,5.14826904296875,-0.11242781704515219,0.30086043088436126,1.4467197340250015
1789453816741208000,5.1582080078125,-0.20079408276230096,0.14822364530861376,1.4073413710996507
1789453816751148000,5.16814794921875,-0.3869900235906243,-0.04646598309874534,1.0617857661813497
1789453816761087200,5.178087158203125,-0.4067907026037574,-0.21103169139921665,0.5673877995342016
1789453816771027200,5.188027099609375,-0.3979197061449289,-0.38059856898784633,0.1736611611649394
1789453816780966100,5.197966064453125,-0.42673225139230486,-0.31553485292494293,0.0029117957934737203
1789453816790906000,5.207906005859375,-0.5251669066593051,-0.2141974619537592,-0.13941811530143022
1789453816800845000,5.217844970703125,-0.4718906590238213,-0.12333002707064152,-0.3593471066445112
1789453816810784000,5.227783935546875,-0.637617520058155,-0.0854980168044567,-0.6632713090136647
1789453816820724000,5.237723876953125,-1.0845257135167716,0.08464344580173493,-0.6269178468674421
1789453816830663200,5.2476630859375,-1.027109005075693,0.13030337321460247,-0.2852449286013842
1789453816840603100,5.25760302734375,-0.5111337051317095,0.13582009080946444,-0.20927695668637752
1789453816850542000,5.2675419921875,-0.22314532304108142,0.07479425196051598,-0.23059096287190914
1789453816860482000,5.27748193359375,-0.37321927239149805,0.029973113459348676,-0.07499065131545066
1789453816870421200,5.287421142578125,-0.34529198554605245,-0.02016834328174591,-0.06559680002629757
1789453816880361000,5.29736083984375,-0.5292895395472645,-0.07803717940449714,-0.24180355402082204
1789453816890300200,5.307300048828125,-0.9913599385634064,-0.1904500911414623,-0.3510302369371056
1789453816900240100,5.317240234375,-1.2898936800658702,-0.07616495579183101,-0.007103694525361061
1789453816910179000,5.327178955078125,-1.1188485466182232,0.0714291594415903,0.42720542186200616
1789453816920119000,5.337119140625,-0.7322831781804561,-0.14150456618666649,0.5369722030043602
1789453816930058000,5.34705810546875,-0.7871195147395134,-0.20719605875909328,0.5912576276823878
1789453816939997200,5.3569970703125,-0.7277382282271981,-0.29142917019426823,0.5358221561864018
1789453816949937200,5.366937255859375,-0.9401973220810294,-0.21402327443063257,0.5220832614302635
1789453816959876000,5.3768759765625,-0.9160571525588631,-0.26098434756994243,0.43528468342125415
1789453816969816300,5.38681640625,-0.8737021119102835,-0.2386708089530468,0.40211949592232704
1789453816979755300,5.39675537109375,-0.7539478974997997,-0.142087334510684,0.22354542827457188
1789453816989695000,5.406695068359375,-0.5384557195603847,0.16268588590323924,0.029333646512031554
1789453816999634000,5.416634033203125,-0.49170799691081046,0.3773188166648149,-0.39897126102447505
1789453817009574100,5.42657421875,-0.8730684901818633,0.675091218405962,-0.5176727515116334
1789453817019513000,5.43651318359375,-0.9482838901638984,0.3341097895354032,-0.5550590638369322
1789453817029453000,5.446453125,-1.0731365967571735,0.3788280521839857,-0.09609656770825385
1789453817039392000,5.45639208984375,-0.7225988195121288,0.42567572807669635,-0.16827274612486362
1789453817049332200,5.466332275390625,-1.0248083269178867,0.5641361042618751,0.18133505679368972
1789453817059271200,5.476271240234375,-0.9506959197416901,0.4654951127678156,0.4779141570970416
1789453817069210000,5.486210205078125,-0.7378335057839751,0.5716080475777388,0.7218883331552147
1789453817079150000,5.496150146484375,-0.2047726310044527,0.6026403147011995,0.38571781169772146
1789453817089089300,5.50608935546875,-0.2035141553759575,0.13836451459527016,0.06331891822218895
1789453817099029000,5.516029052734375,-0.7828560120761394,0.0672206018358469,0.3379194109514356
1789453817108968000,5.525968017578125,-0.7043123444542289,0.05886895307600498,0.1480327989116311
1789453817118908200,5.535908203125,-1.146286588642001,-0.04151216008365154,0.5514937725707888
1789453817128847000,5.54584716796875,-0.8604623988479375,-0.028155834904313087,0.6289823781818151
1789453817138787000,5.555787109375,-0.6736795980423689,0.20177754084169863,0.8249173304751515
1789453817148726000,5.56572607421875,-0.669027972844243,0.10249591335654258,0.8470090430349111
1789453817158666200,5.575666259765625,-0.4767249473124742,0.39572599549293513,0.6938818435937166
1789453817168605200,5.585605224609375,-0.6513990849122404,0.2576063955694437,0.41843817803859706
1789453817178545000,5.595544921875,-0.3881307180583477,0.35530922943055626,0.1432066939294338
1789453817188484000,5.605484130859375,-0.5328235588923096,0.5894914947926998,-0.026839491608738896
1789453817198424000,5.615424072265625,-0.18598580520898103,0.7409767722457646,-0.0634469285160303
1789453817208363000,5.625363037109375,-0.5796142439007759,0.7580383816838264,-0.3746697634607553
1789453817218302000,5.635302001953125,-0.4514239173173904,0.61450084836483,-0.2824409770965576
1789453817228242200,5.6452421875,-1.0483090294927357,0.6371306133240461,0.06783551886379718
1789453817238181000,5.65518115234375,-1.1952148702010512,0.5563000038087368,0.651565965911746
1789453817248121000,5.66512109375,-0.9091244306862354,0.25641455543637276,0.9342302303701638
1789453817258060000,5.67506005859375,-0.8795704194217919,0.15319909563362596,1.0277139852315187
1789453817268000000,5.685,-0.7246563365638256,0.24558687195181844,0.8509878835380077
1789453817277939200,5.694939208984375,-0.21202070243656634,0.6168138014823198,0.5805716907560825
1789453817287879000,5.70487890625,-0.2469812489196658,1.1011129834413529,0.24187106629908084
1789453817297817900,5.71481787109375,-0.3018234306976199,1.07538116081357,0.1682435200303793
1789453817307757800,5.7247578125,-0.6842310949340462,0.9960323142886162,0.42302258321940894
1789453817317697000,5.734697021484375,-0.7133154428601265,0.7494155147671699,0.9408394193768501
1789453817327637000,5.744636962890625,-0.8367164893403649,0.14107903425097465,0.9149678960174321
1789453817337576000,5.754575927734375,-0.3267085733681917,-0.07603636097609996,0.5881441718369722
1789453817347516200,5.76451611328125,-0.008919804036617279,0.06289689341783523,0.433246455591917
1789453817357455000,5.774455078125,0.43653380669951436,-0.018002105158567427,0.24638065267801285
1789453817367394000,5.78439404296875,0.2958814734280109,0.2729518487393856,-0.48271045146286484
1789453817377333800,5.794333740234375,0.8961936374425887,0.3188403242111206,-0.7622106989324092
1789453817387273000,5.80427294921875,0.06224690507650375,0.4618155474722385,-1.2351625574469565
1789453817397213000,5.814212890625,0.7029045234829187,0.8027478765040635,-1.1355699643164872
1789453817407151900,5.82415185546875,0.34040099863409995,0.7906915280073881,-0.9721078333437442
1789453817417092000,5.834092041015625,0.3795020059227943,1.0412784002035855,-1.0040864414066075
1789453817427031000,5.844031005859375,0.5112830504745245,0.47254620032310485,-0.3441629815161228
1789453817436971000,5.853970947265625,-0.1850871028035879,0.017966449323296545,0.07407353647053241
1789453817446910000,5.863909912109375,0.460518493399024,-0.23111703257262706,0.010391630154848099
1789453817456850200,5.87385009765625,0.016882161217927932,-0.6516185728818178,0.045292263144254684
1789453817466789000,5.8837890625,-0.6190379072725772,-0.24477672461271285,-0.43127018708288667
1789453817476728800,5.893728759765625,0.054445875936746595,-0.2538245389431715,-0.5096025500416755
1789453817486667800,5.903667724609375,0.4039139781236648,0.01786474251449108,-1.03259825014174
1789453817496608000,5.91360791015625,0.6033785658478736,0.8030150030076503,-1.3204729427248239
1789453817506547000,5.923546875,0.7702151416897773,0.7722375874280929,-1.2844623026669024
1789453817516487000,5.93348681640625,0.5816904656529426,0.6486053625404834,-0.9884405439853667
1789453817526426000,5.943426025390625,0.8495014443725347,0.4648533077329397,-0.25150340251922604
1789453817536365000,5.953364990234375,0.2500818452835083,0.19397709622383116,0.19013328027725218
1789453817546305000,5.963304931640625,-0.37654724777042864,-0.3315273718267679,0.6367892525404691
1789453817556244000,5.973243896484375,-0.25665304036736486,-0.48335693267285823,0.7083212878346443
1789453817566184000,5.983183837890625,-0.21782851193249225,-0.1480436125665903,0.4491553878635168
1789453817576123000,5.993122802734375,-0.05344225185215473,-0.007173837152123451,0.2475584642857313
1789453817586062800,6.003062744140625,0.635678076428175,-0.46258945445418354,0.36984102813005443
1789453817596001800,6.013001708984375,-0.8338549624294042,-0.7227075405836105,0.02538286305963993
1789453817605942000,6.02294189453125,0.9845558115065097,-0.6192705469846725,-0.1919026280373335
1789453817615881000,6.032880859375,1.5812176363199948,-0.6301327172607183,-0.7611147203892469
1789453817625821000,6.042821044921875,0.3838303905159235,-0.6999667164653539,-0.794973735371232
1789453817635760000,6.052760009765625,1.665073731136322,-0.6593968056678772,-0.5167202730923891
1789453817645700000,6.0627001953125,-0.3857295021355152,-0.14022738585770128,-1.771723841562867
1789453817655639000,6.07263916015625,0.9841700270593166,1.012190837407112,-2.109418503847718
1789453817665579000,6.0825791015625,0.8032195856690406,0.8466261811971664,-1.2270038009107112
1789453817675518000,6.09251806640625,0.5779068554610014,0.41587008111625906,-0.5255933153778314
1789453817685458000,6.1024580078125,0.20715864935815334,0.16822160045951604,-0.27425474803149696
1789453817695396900,6.11239697265625,0.35027357335090636,-0.2252306048825383,-0.27504619067013264
1789453817705335800,6.122335693359375,-0.11109306131005287,0.05574994427263737,-0.5527104548841715
1789453817715276000,6.132276123046875,-0.354890127235651,-0.1975876879364252,-0.33031858055889607
1789453817725215000,6.142215087890625,0.21257892084121702,-0.3253016291797161,0.31322774502635
1789453817735155000,6.152155029296875,0.22320377523005008,-0.4050479505896568,-0.19315759653449058
1789453817745094100,6.16209423828125,-0.38199966795742507,-0.1162672490775585,-0.5360702857285737
1789453817755033900,6.172033935546875,-0.07552022814750671,-0.1636409946709871,-0.1612532227516174
1789453817764972800,6.181972900390625,-0.0948141266822815,-0.20135726960301398,-0.21759645674228667
1789453817774913000,6.1919130859375,-0.5651145939052105,-0.04390928435325622,-0.4855693480253219
1789453817784852000,6.20185205078125,-0.7669505869358778,0.2335071425795555,-0.15254033946394918
1789453817794792000,6.2117919921875,-0.8113157983630895,0.4814192426085472,-0.14754969156980513
1789453817804731000,6.22173095703125,-0.7063210539281368,0.7086001047760248,-0.45456513795256615
1789453817814671000,6.231671142578125,-0.7248731941848993,0.9352063819259404,-1.0208306554585695
1789453817824610000,6.241610107421875,-0.15274842925667761,1.2317355056077242,-1.3478326588153837
1789453817834550000,6.251550048828125,-0.2665641935288906,1.2680126876473425,-1.8557558774679899
1789453817844489000,6.261489013671875,-0.4484165521949529,1.2503688944071532,-1.9043138644099233
1789453817854429000,6.271428955078125,-0.04768237315118313,1.165136250540614,-1.453565069875121
1789453817864367900,6.281367919921875,-0.06975742683708668,0.7087503269016743,-1.0252262600690125
1789453817874307800,6.291307861328125,-0.3972147727459669,0.3871580736339092,-0.8127168973326683
1789453817884247000,6.3012470703125,-0.22591069610118863,0.2702683087438345,-0.5107581498175859
1789453817894186000,6.31118603515625,-0.22713000876307485,0.2531862410396337,-0.183622875469923
1789453817904126000,6.3211259765625,0.090818335044384,0.2702285612553358,0.01893091044127941
1789453817914065000,6.33106494140625,0.141264912211895,0.2885597522377968,-0.18099661861956118
1789453817924005000,6.341005126953125,-0.04798749357759952,0.39989889726340766,-0.2775952906310558
1789453817933944000,6.350944091796875,0.1135533139437437,0.49834407392442226,0.10604688383638858
1789453817943883800,6.3608837890625,0.2748679114937782,0.5557172354847193,0.362794032227993
1789453817953823000,6.370822998046875,-0.1408376267105341,0.6759399441897869,0.427211267080903
1789453817963763000,6.380762939453125,-0.2555582308679819,1.0535609586715697,0.7083768174141645
1789453817973702000,6.390701904296875,-0.14532996969372033,1.439234346705675,0.7953694566905498
1789453817983641900,6.400641845703125,-0.11578618756234645,1.6557979532688856,0.6667237875550985
1789453817993581000,6.4105810546875,0.05982581540942192,1.8705477884083985,0.6539321105211973
1789453818003521000,6.42052099609375,0.10852467212677001,1.7876181607872246,0.5416372722059488
1789453818013460000,6.4304599609375,-0.4298991909906268,1.5781921510189771,0.21407529687881469
1789453818023400200,6.440400146484375,-0.7103668221876025,1.212460896295309,0.3358008113622665
1789453818033339100,6.450339111328125,-0.5028136205539107,0.7924936089932918,0.8152572294652461
1789453818043278800,6.46027880859375,-0.01420008252710104,0.42249183734357354,0.8984563216775655
1789453818053217800,6.4702177734375,-0.16186667847484348,0.1287163962841034,0.6195148771345615
1789453818063158000,6.480157958984375,-0.5972925239324569,-0.11473930885791778,0.3686585403472185
1789453818073097000,6.490096923828125,-0.38534371768832204,-0.12492284922003745,0.31754210109412667
1789453818083037000,6.500036865234375,-0.09249562060683965,-0.03031155163347721,0.22230098117142916
1789453818092975900,6.509975830078125,-0.4719067333757877,0.09036416153609753,0.2768178765177727
1789453818102915000,6.5199150390625,-0.4552697790905833,0.19776362902522085,0.41227760958224535
1789453818112855000,6.52985498046875,-0.05626520031839609,0.2561825002461672,0.42642479287832974
1789453818122794000,6.5397939453125,0.11844576216042041,0.14578794259428976,0.17305793457478283
1789453818132734000,6.54973388671875,-0.1743430059492588,0.11821779862344264,-0.11107552565336226
1789453818142673000,6.5596728515625,-0.2827867217943072,0.27934944082200525,-0.21010084028989076
1789453818152612900,6.56961279296875,-0.30934476611316203,0.5003776255786418,-0.07943944741785526
1789453818162551800,6.5795517578125,-0.12005904257595539,0.6864911488205194,0.21792320447862146
1789453818172492000,6.589491943359375,-0.31931554050743577,0.7674310639292001,0.41893005320876836
1789453818182431000,6.599430908203125,-0.28916531691551206,0.7400766085356474,0.3471171551465988
1789453818192371000,6.609370849609375,-0.25825287677943704,0.8037450708478688,0.4076090332493186
1789453818202310100,6.61931005859375,-0.1159013383746147,0.9187059135019778,0.4133984303057194
1789453818212250000,6.62925,-0.33340514839738605,0.8789543333500623,0.3384711996152997
1789453818222189000,6.63918896484375,-0.39777006854116914,0.43524025975763797,0.10449790082871914
1789453818232128800,6.649128662109375,-0.18416998795866965,0.02015606832206249,0.09710165309756993
1789453818242068000,6.65906787109375,-0.3942740431189537,-0.1620510951310396,0.5763634254112839
1789453818252008000,6.669008056640625,-0.4544003027796745,-0.09969605350494384,1.0178560235619545
1789453818261947000,6.67894677734375,-0.178193836158514,0.15657412502467632,1.5028446490898728
1789453818271887000,6.68888720703125,-0.4146402470603585,0.3046048781096935,1.3131781095415354
1789453818281826300,6.698826416015625,-0.6103925362631678,0.49068859073519705,0.8089645590618252
1789453818291766500,6.7087666015625,-0.8164239351570606,0.6286328340917825,0.48399026214033364
1789453818301705500,6.71870556640625,-0.6530246402874589,1.1883897003561257,2.0824846119537948
1789453818311645200,6.728645263671875,-0.9165481509461998,0.9686930564641952,1.8835636295869946
1789453818321584400,6.73858447265625,-0.031234511697292328,0.46177404641807074,1.2634402651652692
1789453818331523300,6.7485234375,0.08740589625239371,0.5620294873714446,0.5006155259877443
1789453818341463300,6.75846337890625,-0.7661316717684269,0.18195698808431623,-0.49121466043591494
1789453818351402200,6.76840234375,-0.6253145033240318,0.38753918190598485,0.48122123581841586
1789453818361342500,6.778342529296875,-0.27349165470451114,0.5140601139724255,1.5936232366457581
1789453818371281400,6.788281494140625,-0.7094736727401614,0.1566179641664028,1.6947851249195633
1789453818381221400,6.798221435546875,-0.6975859588086605,-0.22963117792904375,1.6048361200556158
1789453818391160300,6.808160400390625,-1.2310752881333231,-0.5598983205616473,1.1794793948002158
1789453818401100300,6.818100341796875,-0.6518728399038315,-0.7252350132346153,1.2693436439901589
1789453818411039200,6.828039306640625,-0.6965767817661166,-0.6370253993839025,1.639199431297928
1789453818420979200,6.837979248046875,-0.3380041666254401,-0.47967678285539145,1.7590024532862008
1789453818430918400,6.84791845703125,-0.7813394700333476,-0.499618331643939,1.6138003477558494
1789453818440858400,6.8578583984375,-0.3818213887810707,-0.5378513239264487,1.0202290363036095
1789453818450797300,6.86779736328125,-0.0340521994665265,-0.26990473612844945,0.41446518275439737
1789453818460737300,6.8777373046875,-0.4783543020799756,-0.060793783658742905,0.03737111475616693
1789453818470676500,6.887676513671875,-0.24568156449794767,-0.05255202501416206,-0.16584361928179858
1789453818480616400,6.897616455078125,-0.04361702340841293,-0.1146253270894289,-0.03370952350869775
1789453818490555400,6.907555419921875,-0.29345453854203224,-0.33990824668109415,0.26337548049017784
1789453818500495400,6.917495361328125,-0.33831367096602916,-0.5013642985284328,0.45211087666824457
1789453818510434300,6.927434326171875,-0.2778463427826762,-0.5718325039833784,0.3531896069280803
1789453818520374300,6.937374267578125,-0.20515549284219742,-0.4295885176062584,0.2309006133429706
1789453818530313200,6.947313232421875,-0.16515198375582693,-0.16455460238456726,0.4645566628739238
1789453818540253400,6.95725341796875,-0.032466391579806804,-0.1166074408173561,0.4541268926657736
1789453818550192400,6.9671923828125,-0.0840823047876358,-0.21957623238265514,0.36943200893774625
1789453818560132400,6.97713232421875,-0.21256547683775423,-0.448194433876872,0.2918522179119289
1789453818570071600,6.987071533203125,-0.4360068602159619,-0.7622972081720829,0.1525397549420595
1789453818580010500,6.997010498046875,-0.5059489959701895,-0.8958195434331894,0.7805005349911749
1789453818589950200,7.0069501953125,-0.1965966310724616,-0.7470610605955124,1.0695987780198455
1789453818599889200,7.01688916015625,0.012591478286683559,-0.2806353889793157,0.6850364199675619
1789453818609829400,7.026829345703125,0.3135045161411166,0.2666729146003723,0.1613895624823868
1789453818619768300,7.036768310546875,0.4877329557999968,0.5221124875247478,-0.019614947182685135
1789453818629708300,7.046708251953125,0.34010143116563557,0.49576691691279406,0.01667348690330982
1789453818639647200,7.056647216796875,0.5211225997045635,0.2056172651350498,0.01294496789947152
1789453818649587500,7.06658740234375,0.7096306168675423,-0.07599193731248378,-0.1286658351406455
1789453818659526400,7.0765263671875,0.722490098440647,-0.37654666324853897,0.06937777986973524
1789453818669466400,7.08646630859375,0.8719374403253197,-0.31217151397168635,0.10801891456171869
1789453818679405600,7.096405517578125,0.9355369290545582,-0.0918985314965248,-0.21902269015312192
1789453818689345300,7.10634521484375,0.6630190878182649,0.0011246201157569884,-0.560531357768178
1789453818699284200,7.1162841796875,0.3816808112666011,-0.051828971436619756,-0.9074819241762161
1789453818709224400,7.126224365234375,0.16749328618496656,-0.26178163542747496,-1.2191501648008822
1789453818719163400,7.136163330078125,0.07734072157293558,-0.2900204724401235,-0.9476219191238283
1789453818729103400,7.146103271484375,0.11459405516833067,-0.15232465088665484,-0.5132523047208786
1789453818739042300,7.156042236328125,0.32385464524179697,0.009493804532289504,-0.318108502805233
1789453818748982500,7.165982421875,0.3970543214872479,0.06631167029738426,0.0167070969119668
1789453818758921500,7.17592138671875,0.3308537103489041,0.08415946167707443,0.47565381094962356
1789453818768861200,7.185861083984375,0.2882543395504355,0.14747487276792526,0.9615735798478126
1789453818778800000,7.195800048828125,0.40073856295794247,0.1765957533121109,1.0944286833718417
1789453818788740400,7.205740234375,0.1688686661913991,0.007530980026721954,1.0191592151150106
1789453818798679300,7.21567919921875,-0.1844718935146928,-0.13099310904443262,0.8996262422397732
1789453818808619300,7.225619384765625,-0.32993250385075806,-0.22148469635248183,0.9074266868576407
1789453818818558500,7.235558349609375,0.034850071845948696,-0.2628513104856014,0.7080535768091678
1789453818828498400,7.24549853515625,0.1242129473850131,-0.2053127292305231,0.2688143105432391
1789453818838437400,7.255437255859375,-0.11356938829571007,-0.2561117730975151,-0.05221884753704071
1789453818848377300,7.26537744140625,-0.3668716569304466,-0.5868395189791917,-0.03804536075592041
1789453818858316500,7.275316650390625,-0.9551619592398405,-0.3577782498925924,-0.21824644508361815
1789453818868256300,7.28525634765625,-1.088966034051776,-0.17642331935465336,-0.29071663801074027
1789453818878195200,7.2951953125,-0.7552905442804098,-0.11319909367859363,-0.05168401000797748
1789453818888134100,7.305134033203125,-0.1389028592556715,-0.12706921359896658,-0.09455956739932297
1789453818898074400,7.315074462890625,0.12358078696131705,-0.37410336174964903,0.033816052623093125
1789453818908013300,7.325013427734375,0.03669686875641346,-0.19240005616545677,0.37184827629923817
1789453818917953300,7.334953369140625,0.28482582640647885,-0.16878186469078063,0.44158933652341364
1789453818927892500,7.344892578125,0.509144869402051,-0.11851765835285186,0.20050445216596124
1789453818937832400,7.35483251953125,0.11911913137733936,-0.1290121643602848,-0.03364566449224949
1789453818947771400,7.364771484375,-0.24733576144576072,-0.3112356944262981,-0.06888005948066711
1789453818957711400,7.37471142578125,-0.5126578459590673,-0.5344114126056433,0.10713701716065406
1789453818967650300,7.384650390625,-0.5640712223321199,-0.8001941003680229,0.34543256306052206
1789453818977590300,7.39459033203125,-0.6924129400849341,-0.98770696901381,0.5444833092868328
1789453818987529200,7.404529296875,-0.8236153079658747,-0.989682068479061,0.6570686549812554
1789453818997469400,7.414469482421875,-0.7257438395395874,-0.7689742017179727,0.6932452992558479
1789453819007408400,7.424408447265625,-0.6404466060042381,-0.28041268613934517,0.6865750277116894
1789453819017348400,7.434348388671875,-0.6326394393846392,0.330687998393178,1.0445292186930775
1789453819027287300,7.444287353515625,-0.4071837935745716,0.6970090357035398,1.3718392650857567
1789453819037227500,7.4542275390625,0.15366963575482367,0.7284855394631624,0.896982157471776
1789453819047166500,7.46416650390625,-0.11145254227221012,0.9426584514975547,0.6619374300613999
1789453819057106200,7.474106201171875,-0.3801952488839626,0.7939864778995513,0.9747305830627679
1789453819067045400,7.48404541015625,-0.2667734523653984,0.5367886631309986,0.9513447390392422
1789453819076985300,7.4939853515625,-0.5277189292296767,0.30663433811068536,0.9465674416348338
1789453819086924300,7.50392431640625,-0.5970245206460356,0.40981238851249213,1.0280942167207598
1789453819096864500,7.513864501953125,-0.6225061679050325,0.7330798815160989,1.0425763310596345
1789453819106803500,7.523803466796875,-0.8830629377126693,0.31506314375996586,1.5965470151379704
1789453819116743400,7.533743408203125,0.45925095768123864,0.8315507771402597,0.6114633803650736
1789453819126682400,7.543682373046875,-1.0527741922080516,-0.31210078682303427,2.2608172720611095
1789453819136622300,7.553622314453125,0.9298746655091643,0.20196283428072928,1.1592436853706836
1789453819146561300,7.563561279296875,-0.5069213481336832,-0.3037380321472883,2.2462457258731123
1789453819156501200,7.573501220703125,0.483163455927372,-0.10265431878864764,1.9625258148819207
1789453819166440200,7.583440185546875,0.5817556398436426,0.21957389429509638,1.4702467400848864
1789453819176380400,7.59338037109375,-0.7951981917768717,0.10775134966671467,0.9130313749969005
1789453819186319400,7.6033193359375,0.8974626344650983,0.043916883137822146,0.0033498949497938156
1789453819196259300,7.61325927734375,0.32409517599940296,0.8918348577111959,-0.03180442053973675
1789453819206198500,7.623198486328125,0.6037187575876712,0.7630810520261526,0.031677579289674754
1789453819216138200,7.63313818359375,0.3692296182334423,0.7797387568384408,0.014949731850624084
1789453819226077400,7.643077392578125,0.3276011382937431,0.8235077559381723,0.05186404275000095
1789453819236017200,7.65301708984375,0.45394028405249115,0.7168576455116271,-0.09541150805354118
1789453819245956400,7.662956298828125,0.949795463770628,0.739154232993722,0.014212065225839614
1789453819255896300,7.672896240234375,0.43849253955185413,0.68292790338099,-0.08735796545743942
1789453819265835300,7.682835205078125,0.3529033373326063,0.7323615041136741,0.08450374507009982
1789453819275776000,7.69277587890625,0.36717969996631145,0.5400269143998623,0.4102461037546396
1789453819285715000,7.70271484375,0.6756196261942387,0.1429816530019045,0.8313157993406057
1789453819295654700,7.712654541015625,0.4133013996720314,-0.02239829429090023,0.617221797761321
1789453819305593900,7.72259375,0.9450205044537782,-0.2251104856342077,0.18640227705538273
1789453819315533800,7.732533935546875,0.6452934615135193,-0.4416074567019939,-0.5725935514837504
1789453819325472800,7.74247265625,0.5236696538388729,-0.5670306566596031,-0.8748264397650957
1789453819335413000,7.7524130859375,0.49773675568103787,-0.5838473514258862,-0.7931079414993524
1789453819345352000,7.76235205078125,-0.01714461154639721,-0.5114747736543417,-0.6807862151771783
1789453819355291000,7.772290771484375,0.46078152824938295,-0.7314391285717486,-0.3909907836645841
1789453819365230800,7.78223095703125,-0.034335984843969346,-1.1476526162981986,-0.4632920497655868
1789453819375170000,7.792170166015625,0.4375567200064659,-1.1812152786821126,-0.4329600398659706
1789453819385110000,7.802110107421875,-0.3436848426103592,-1.4019973797231913,-0.862307734453678
1789453819395049000,7.812049072265625,0.1077799912393093,-1.4566618668466806,-1.1710475204110145
1789453819404989000,7.821989013671875,-0.5064145676553249,-1.5248112739652395,-1.404642341274023
1789453819414928000,7.831927978515625,-0.12942892846763132,-1.3528835124641656,-1.362411219266057
1789453819424867800,7.841867919921875,0.9634130702346563,-1.298387367644906,-1.193710018596053
1789453819434806800,7.851806884765625,0.09137479988336562,-1.3687620495975017,-0.9973264457523823
1789453819444747000,7.8617470703125,0.299786664173007,-0.983139807228744,-0.5639794523954391
1789453819454686000,7.87168603515625,0.29672669208049773,-0.7396992996558547,-0.18691431823074817
1789453819464626000,7.8816259765625,-0.3449468253701925,-0.6782137343406677,0.5107756854742765
1789453819474564900,7.89156494140625,-0.03885901522636413,-0.8224158690482377,0.9476146126002073
1789453819484504800,7.9015048828125,0.26425357849895953,-1.1915312132522462,0.8948217645674943
1789453819494443800,7.91144384765625,0.16613982574939726,-1.0089403111785649,-0.021430910563468932
1789453819504383700,7.9213837890625,1.2663204967766999,-0.4885787589743733,-0.21882219914495943
1789453819514323000,7.931322998046875,1.6917331900030375,-0.4079954022184014,-0.7511568054765463
1789453819524263000,7.941262939453125,1.1336188302487133,0.05129471842944622,-2.517980015516281
1789453819534201900,7.951201904296875,1.0800620121061801,0.8477429102674127,-2.7952906439870593
1789453819544141800,7.961141845703125,1.3154571603894234,1.0638014899179338,-1.9484142874211072
1789453819554081000,7.9710810546875,1.0141215132087469,0.8821186425998806,-1.9582921228349208
1789453819564021000,7.98102099609375,0.5483113431423903,1.0979220784455537,-2.7609049747824668
1789453819573960000,7.9909599609375,0.6128682787269354,0.9963058705329895,-2.1821435483187437
1789453819583900000,8.00089990234375,0.8889958348929882,0.4502557503208518,-1.1498457424283026
1789453819593838800,8.0108388671875,0.4778898994386196,0.03714461252391338,-1.2744155404269695
1789453819603778800,8.02077880859375,-0.15875556071698665,-0.016627309674024583,-1.456027076074481
1789453819613717800,8.0307177734375,-0.1445277134001255,-0.07301029115319252,-0.3818266494780779
1789453819623658000,8.040657958984376,-0.26057401320338247,-0.29296178658902644,0.4818769232481718
1789453819633597000,8.050596923828126,-0.7398691032648086,-0.460225647932291,0.7999491856962442
1789453819643537000,8.060536865234376,-0.5143599737018346,-0.4643766301319003,0.60528761433959
1789453819653476000,8.07047607421875,-0.9125625884413718,-0.46054947305917737,-0.11536416275799274
1789453819663415800,8.080415771484375,-0.9453951829850673,-0.3891287891849875,-0.3871265094518661
1789453819673354800,8.090354736328125,-0.5357195725947618,-0.3183794287011027,-0.6875777750134467
1789453819683294700,8.100294677734375,-0.9126981975197791,-0.34597996781021356,-0.8381061901330947
1789453819693234000,8.11023388671875,-0.6476105062842369,-0.4658788513883948,-0.7519464945495128
1789453819703174000,8.120173828125,-0.7994061648607254,-0.6044973407447338,-1.0756441956639289
1789453819713112800,8.13011279296875,-0.8570207339614629,-0.6900187384247779,-1.0332616824865342
1789453819723053000,8.140052978515625,-0.44693595824837684,-0.7000237073495984,-0.9414028984785079
1789453819732992000,8.149991943359375,-0.5509311702519655,-0.6388274803698063,-1.0275187549203633
1789453819742932000,8.159931884765625,-0.5301262826323508,-0.45603754859268664,-0.9342062649726867
1789453819752871000,8.169870849609374,0.06401333022713661,-0.4250912061870098,-1.4306781152844428
1789453819762811000,8.179810791015624,-0.16285656629502773,-0.2522410691440105,-2.153595499226451
1789453819772749800,8.189749755859374,-0.48549978992044923,0.10481237360537052,-2.002752026808262
1789453819782689800,8.199689697265624,-0.462152232080698,0.39313773256540296,-1.443303788101673
1789453819792629000,8.20962890625,-0.1272509999066591,0.6016665012329816,-1.4346592938750982
1789453819802569000,8.21956884765625,-0.48068508311510083,0.9589514146506786,-1.382937289944291
1789453819812508000,8.2295078125,-0.7750286794513463,1.1195189932256937,-1.088335334932804
1789453819822447900,8.23944775390625,-0.5723737712532282,1.142903375944495,-0.7573334482848644
1789453819832387000,8.249386962890625,-0.24535189415216443,0.832460293200612,-0.5393325023949146
1789453819842326800,8.259326904296875,0.2425169629871845,0.4659937099397182,-0.5213771589875221
1789453819852265700,8.269265625,0.28717268179357053,0.4620125313490629,-0.6087345399230718
1789453819862206000,8.2792060546875,0.5210138786330819,0.7955506584763526,-0.9148808022558689
1789453819872145000,8.289144775390625,0.8483458445966243,1.4104337841570376,-1.2778414232224224
1789453819882084900,8.2990849609375,0.9935013345062732,2.0674089156359434,-1.52764503608644
1789453819892023800,8.30902392578125,0.6587085311427712,2.5262708739995956,-1.4542413617014884
1789453819901964000,8.318964111328125,0.32737609736621376,2.739570510330796,-0.9724930332690477
1789453819911903000,8.328903076171875,0.09988836120665073,2.394865677022934,-0.22967852420210838
1789453819921842700,8.3388427734375,0.001441138719022274,1.6160130553692578,0.3690244510501623
1789453819931782000,8.348781982421874,-0.3336357422828674,0.9242740690231322,0.6223129834204911
1789453819941721900,8.358721923828124,-0.5911743333131074,0.49639118629097934,0.625457711187005
1789453819951660800,8.368660888671876,-0.6219727916806936,0.4053887268513441,0.3741922090768814
1789453819961600800,8.378600830078126,-0.7135913371920585,0.3595020049452781,0.1880015289455652
1789453819971540000,8.3885400390625,-1.0806208150327206,0.22938392516970632,0.22014088052809236
1789453819981480000,8.39847998046875,-1.5058984837025402,0.06746785459518433,0.43147067809104916
1789453819991419000,8.4084189453125,-1.65019472643435,0.1189689092516899,1.0532160907566548
1789453820001359000,8.418359130859375,-1.2347720968246458,0.2804477574527263,1.3525497504651545
1789453820011298000,8.428298095703125,-1.1140832319125533,0.3486345739722252,0.5891717613190413
1789453820021237800,8.43823779296875,-1.6006576653271913,0.3330927214473486,-0.1280608549848199
1789453820031176700,8.4481767578125,-2.2228040600091217,0.27722411923110485,-0.09200286865383386
1789453820041117000,8.458116943359375,-1.0173930822253228,0.27159809604287144,0.4240732613161206
1789453820051055900,8.468055908203125,-0.42459143997132776,0.3305652487963438,0.7778925444498658
1789453820060995800,8.477995849609375,-1.0584250575765968,0.32135552190244193,0.7179726210162043
1789453820070934800,8.487934814453125,-1.2231743057504296,0.47046413335204124,0.2370034602627158
1789453820080875000,8.497875,-0.46706659986823795,0.6103256085067987,-0.4075669476732611
1789453820090814000,8.50781396484375,0.34212533820867536,0.9998749611914157,1.021806807014346
1789453820100753700,8.517753662109374,-1.3980804985404014,0.009767945298552513,0.056980655111372465
1789453820110692900,8.52769287109375,-1.2623697133243084,-0.7979267399579286,-0.3981999843910336
1789453820120632800,8.5376328125,-0.8503305886730551,-0.8504717507094144,0.7952689189255238
1789453820130571800,8.54757177734375,-0.740856945258379,-0.6952110463708638,1.585443145060539
1789453820140512000,8.557511962890626,-0.5057096342563628,0.01647884111404419,2.2994173440903425
1789453820150451000,8.567450927734376,-1.165766949659586,0.577484246134758,1.5719003573983907
1789453820160391000,8.577390869140626,0.01586217052042484,1.0938386085242033,1.0347405228674411
1789453820170329900,8.587329833984375,0.49320554199218747,1.6397060656458138,0.5694558379799127
1789453820180270000,8.59727001953125,-0.15688362936526537,1.5737836869269608,-0.12917290787994862
1789453820190209000,8.607208984375,-1.0454746828496455,1.083152379336953,-0.1729050821006298
1789453820200148700,8.617148681640625,-0.3309922420367598,0.3628711891174316,-0.01794102262109518
1789453820210087700,8.627087646484375,0.3643266486227512,-0.13085048570334912,-0.053471477946639055
1789453820220028000,8.63702783203125,-0.22873218326270578,-0.5292109213531017,0.3235422182917595
1789453820229966800,8.646966796875,-0.6216276315048337,-0.7507318580627441,0.41966596626788377
1789453820239906800,8.65690673828125,-0.5112216756761073,-0.8078133432000875,0.7682678070142864
1789453820249846000,8.666845947265625,-0.6703440238788724,-1.1508365070313216,0.3541185583412647
1789453820259786000,8.676785888671875,-1.1902128241300582,-1.3400035726249218,0.17619243320822714
1789453820269725000,8.686724853515624,-1.2489631192624568,-1.5479320373117922,0.0313511238142848
1789453820279664400,8.696664306640624,-0.9341887293159962,-1.3516840735465288,-0.08251023316532373
1789453820289603300,8.706603271484376,-0.9203855371519922,-0.9466823001861572,-0.16232728172391653
1789453820299543300,8.716543212890626,-1.2225474060237407,-0.7407809574127197,-0.21947525622621178
1789453820309482200,8.726482177734376,-1.2789531838566064,-0.8343079668939113,-0.4525659269593656
1789453820319422200,8.736422119140625,-0.8105749168679117,-0.9206652308762073,-0.6596295915104449
1789453820329361200,8.746361083984375,-0.29784517471641303,-0.6766115598410367,-0.5941553949505091
1789453820339300000,8.756300048828125,-0.23770634783506392,0.0626934798002243,-0.43258930685743685
1789453820349240300,8.766240234375,-0.18904080886542796,1.2831781080752611,-0.3428761565759778
1789453820359179300,8.77617919921875,-0.2514259533688426,1.7198679821193217,-0.566325723260641
1789453820369119200,8.786119140625,-0.7960799430474639,1.6011381423205135,-0.13780644232109188
1789453820379058400,8.796058349609375,-0.909986892734468,1.0452297681778668,0.6994226727165281
1789453820388998100,8.805998046875,-0.6433560637101531,-0.00020575170516967773,0.731471131145209
1789453820398937300,8.815937255859374,-0.8054206028446554,-0.8958674742281436,0.6122494161762296
1789453820408877300,8.825877197265624,-0.6883017053738236,-0.9539110823959112,0.9967185429871082
1789453820418816300,8.835816162109374,-0.39075142195075746,-0.21940087581574916,1.1680953926071524
1789453820428756200,8.845756103515624,-0.3216626881554723,0.5269464835524559,1.206717822598666
1789453820438695200,8.855695068359376,0.08773878146857023,1.005655882680416,0.988539035923779
1789453820448635400,8.865635498046874,0.2115013547375798,0.9732277772843837,0.3886275616645813
1789453820458574300,8.87557421875,-0.027203356485068796,0.5007499660223722,-0.13725859917998312
1789453820468514300,8.885514404296876,-0.2806850733399391,-0.005454173752665519,-0.36208909882903095
1789453820478453200,8.895453369140625,-0.5344362547859549,-0.5260837292432785,-0.3913306831434369
1789453820488393200,8.905393310546875,-0.5125307124480605,-0.7611702499687671,-0.44545682560652494
1789453820498332200,8.915332275390625,-0.19863456664085388,-0.7802601503640413,-0.697599987334013
1789453820508272000,8.925272216796875,0.058623746143281454,-0.6177221484988927,-0.8236684994578362
1789453820518211300,8.93521142578125,-0.046366906638443464,-0.3293704860538244,-0.4696829198464751
1789453820528151300,8.9451513671875,0.11173135921359062,-0.21157120510339736,-0.14382307226210833
1789453820538090200,8.95509033203125,0.36440380551218987,-0.24958675524294374,-0.20793255634009836
1789453820548030500,8.965030517578125,0.3858542975589633,-0.4571118998259306,-0.4976794725358486
1789453820557969400,8.974969482421875,0.13014058386832475,-0.8668693432807922,-0.7586439463615418
1789453820567909000,8.9849091796875,-0.23854776709526776,-1.1670289324194192,-0.6656324851870536
1789453820577848300,8.994848388671874,-1.0581795583829283,-1.0501654710143804,-0.02354249588996172
1789453820587788300,9.004788330078124,-1.1774936278104782,-0.7750503067612647,0.16838965050280094
1789453820597727200,9.014727294921874,-0.9616843467459082,-0.5224830744028092,0.09939210212230681
1789453820607667200,9.024667236328124,-1.0907923726961015,-0.14545301155149937,0.1864122139275074
1789453820617606100,9.034606201171876,-0.8150339421033859,-0.12815233266055584,0.29797698440253734
1789453820627546400,9.04454638671875,-0.009600187516212463,-0.39510932489931583,-0.5146612947359681
1789453820637485300,9.0544853515625,0.14118044879883526,-0.8964818067342042,-1.1862106027513741
1789453820647425300,9.06442529296875,-0.8661644098818302,-0.8225041318535804,-1.0479434110507369
1789453820657364500,9.074364501953125,-1.397562612146139,-0.27194296395778655,-0.26807226000428197
1789453820667304200,9.08430419921875,-1.4270321599975226,0.047528059372305864,0.6162120361968875
1789453820677243100,9.0942431640625,-0.8023065624773502,0.22587971644103524,0.8552686295971274
1789453820687183400,9.104183349609375,-0.17518588651418684,0.1689922925710678,0.5968792669564486
1789453820697122300,9.114122314453125,-0.05516279203444719,0.09857435599863529,0.3176473150342703
1789453820707062300,9.124062255859375,0.015085048668086527,-0.093802319291234,-0.26327158172428605
1789453820717001200,9.134001220703125,-0.10356968006789684,-0.23037702786028383,-0.8263812655478715
1789453820726941400,9.14394140625,-0.8173159155607223,0.10563128877282142,-0.6613999621838331
1789453820736880400,9.15388037109375,-1.3007061659812926,0.38179683886170385,0.1928498457595706
1789453820746820000,9.163820068359374,-0.8816457643911242,0.34861762283742426,0.4651137122347951
1789453820756759000,9.173759033203124,-0.6098153208971023,0.23714754490852355,0.4091638614758849
1789453820766699300,9.18369921875,-0.3620899756118655,-0.011302315258979796,0.2901639725640416
1789453820776638200,9.19363818359375,-0.33098756586164235,-0.14306523963212966,0.2256166815906763
1789453820786578200,9.203578125,-0.5648211639165878,-0.13916589410603045,0.46000440639704465
1789453820796517400,9.213517333984376,-0.6675269206315279,0.030996611288189885,0.6493655332580208
1789453820806457300,9.223457275390626,-0.7480953720793128,0.18972879112958907,0.9309513548299669
1789453820816396300,9.233396240234375,-0.5342372250825166,0.20785656849443912,1.1560773302942513
1789453820826336300,9.243336181640625,-0.09783084415495395,0.35106560051143165,0.7059890454947948
1789453820836275500,9.253275390625,0.26181115378290415,0.4729571192115545,0.47204000436663623
1789453820846215200,9.263215087890625,-0.395907197278738,0.16844167295098303,1.02494189016968
1789453820856154000,9.273154052734375,-0.9914052390098571,-0.1861544397741556,1.3257251641646026
1789453820866094300,9.28309423828125,-0.8895949698299169,-0.14850889199078082,1.586181980729103
1789453820876033300,9.293033203125,-0.44443508134335274,-0.08761515508890151,1.3477958339363336
1789453820885973200,9.30297314453125,-0.17105886971205472,0.34563305406868455,0.8305705339312552
1789453820895912200,9.312912109375,-0.28431992271095513,0.3142103263229131,0.750769267463684
1789453820905852400,9.322852294921875,-0.13655541934669016,0.2283405535966158,0.33293957671225066
1789453820915791400,9.332791259765624,-0.4333423171818256,0.7461936301112174,0.421222840321064
1789453820925731000,9.34273095703125,-0.01609539475440979,-0.11706161432564258,1.0436357769846916
1789453820935670300,9.352670166015624,0.29016894100010393,0.9602864626467227,0.8093640797734261
1789453820945610200,9.3626103515625,-0.40859190680682655,-0.15888240196704864,2.068213217756152
1789453820955549200,9.372549072265626,0.5140718044102192,0.6651280427962541,0.8598124105066061
1789453820965489200,9.3824892578125,-0.24087328743338585,0.33711540109217164,0.45967853544354437
1789453820975428400,9.392428466796876,-0.4389765236765146,0.429695485112071,-0.4282107995122671
1789453820985368300,9.402368408203126,-0.5869540852695703,0.48673196206390856,-0.7033610350787639
1789453820995307300,9.412307373046875,-0.1529582726150751,0.33404841473698615,0.3157897044688463
1789453821005247200,9.422247314453125,0.7693290065050125,0.5200257443785667,-0.08104805165827274
1789453821015186400,9.4321865234375,0.9518471356034278,0.6096908177345991,0.006122282272577285
1789453821025126100,9.442126220703125,0.6925882966518402,0.5611883603721857,-0.2885013000488281
1789453821035065000,9.452065185546875,0.6358335592508315,0.6723451345682144,-0.680861618500948
1789453821045005300,9.46200537109375,0.7782534867167472,0.9672130470395087,-1.1180185255348682
1789453821054944300,9.4719443359375,0.6897516119211912,0.8348784602582454,-0.9231272370755672
1789453821064884200,9.48188427734375,0.7197159575521945,0.13944354200363157,-0.4224889147341251
1789453821074823400,9.491823486328125,0.9242045109182596,-0.47127603425681586,-0.0020487492233514783
1789453821084763400,9.501763427734375,0.8835317242681979,-0.5389414572507143,0.48104281051158904
1789453821094702300,9.511702392578124,-0.163637487539649,-1.0259183339864015,0.989103976330161
1789453821104642000,9.52164208984375,-0.21292671136558056,-1.5217898803174494,1.5642787764787673
1789453821114581200,9.531581298828126,-0.0985387001633644,-1.5781173322170972,1.7123937007158994
1789453821124521200,9.541521240234376,-0.31431904739439487,-1.4106085562020538,0.9504320081084966
1789453821134461200,9.551461181640626,0.7879536274760961,-1.5560112988710402,0.2330933010816574
1789453821144400400,9.561400390625,1.2952975849360227,-1.4659849909871816,-1.0027736052423715
1789453821154339300,9.57133935546875,2.0868167959392068,-0.7001929264366626,-2.014624250909686
1789453821164279300,9.581279296875,0.9383306514263152,-0.41085049938857554,-2.263954985564947
1789453821174218200,9.59121826171875,0.9925772053986788,0.026709727749228477,-1.7801263437271118
1789453821184158200,9.601158203125,0.6242857447981834,0.4469499867737293,-0.7740121958851813
1789453821194097400,9.611097412109375,0.6563169598311186,0.28784634327143427,0.3472381511777639
1789453821204037000,9.621037109375,1.5142407801121471,0.208992586787045,1.2505857520282269
1789453821213977300,9.630977294921875,0.5827180551350116,0.37913726426362987,0.8965817599773407
1789453821223916300,9.640916259765625,0.4729214633762836,0.029682021558284758,0.8624819219768047
1789453821233856300,9.650856201171875,0.47423897571563717,-0.4013794912099838,1.116595799255371
1789453821243795200,9.660795166015625,0.7718675850719213,-0.28612872569859027,0.2068511908441782
1789453821253734400,9.670734375,1.3272995738744735,-0.6051780164852738,-0.6205506499230862
1789453821263674400,9.68067431640625,1.9452426716476678,-0.4173068359211087,-1.8384101903915404
1789453821273614000,9.690614013671874,0.5741513023197651,0.31182898414433,-2.692831555509567
1789453821283554000,9.700553955078124,0.728553344002366,0.8058417508661746,-2.0926590922266244
1789453821293494000,9.710493896484374,0.8909142357349396,0.6649620385795831,-1.7156681923419237
1789453821303433000,9.720432861328124,1.194620119178295,0.6676508392721414,-2.182798797357082
1789453821313373200,9.730373291015624,1.5720558402210474,0.5098541867151856,-1.7105115402311086
1789453821323312000,9.74031201171875,1.0410527747541665,0.19518150357753036,-0.883833922085166
1789453821333251800,9.750251953125,0.13724924682974815,-0.0008159925580024719,-0.6284966404914856
1789453821343190800,9.760190673828125,-0.5682400324493646,0.10975772105306386,-0.06020867724716663
1789453821353131000,9.770131103515626,-0.36217093189358707,-0.020162498062849043,1.3135481118977068
1789453821363070000,9.780070068359375,0.46778819214105605,-0.5543421477392315,1.1923422373741865
1789453821373010000,9.790010009765625,-0.06189210028946399,-0.7226742228358983,-0.39849253759682174
1789453821382948900,9.799948974609375,-0.010413257464766502,-0.3630564825564623,-1.4893454083085058
1789453821392889000,9.80988916015625,-0.11889818210303783,0.27150778741091486,-1.5028531246572732
1789453821402828000,9.819828125,-0.7232382864594459,0.5352645223036409,-0.7307949854493141
1789453821412768000,9.82976806640625,-0.16645839017927647,0.46732583532631394,0.34725860944390297
1789453821422707200,9.839707275390625,0.5379501081258058,0.3818848094061017,0.48000879128873347
1789453821432647000,9.84964697265625,0.5808130982965231,0.15210487065613268,-0.059357028853893275
1789453821442585900,9.8595859375,0.5972662204474211,0.004365209472179413,-1.1037772342145442
1789453821452525800,9.86952587890625,0.2202227135926485,0.046591947565972805,-1.2843868993431329
1789453821462465000,9.879465087890624,0.5504810883969068,0.04297872550487518,-0.5309674096316099
1789453821472405000,9.889405029296874,0.788901137459278,-0.14621931974887847,-0.5129086058497428
1789453821482344000,9.899343994140626,0.9381535412937402,-0.2607563840329647,-1.337248136436939
1789453821492284200,9.9092841796875,0.8830313735306262,0.007591185781359672,-2.4791046336770055
1789453821502223000,9.91922314453125,0.40332068840563295,0.6349088456213474,-2.969931171578169
1789453821512162800,9.929162841796876,0.44497079565525055,1.3387053495079277,-2.579647659400105
1789453821522101800,9.939101806640625,0.34808220078647134,1.805683978831768,-1.1532441526949404
1789453821532042000,9.9490419921875,0.563429417297244,1.8544868804454802,0.13164485095143316
1789453821541981000,9.95898095703125,0.9155454036444425,1.3040338490992784,0.2385918984979391
1789453821551921000,9.9689208984375,0.5689876359462738,0.370923562669754,-0.10932137546241283
1789453821561860000,9.978860107421875,0.3656149348676204,-0.2907832735061645,-0.6088233872503042
1789453821571800000,9.988800048828125,-0.20213351467251778,-0.04311901075839996,-0.5009422737240791
1789453821581739000,9.998739013671875,0.07472527837753296,0.3375233973711729,0.32893677081167694
1789453821591679000,10.008678955078125,0.22033201918601988,0.4188093494385481,0.7527677478045225
1789453821601618200,10.0186181640625,-0.0787161015793681,0.42866614206433296,0.6491665035545826
1789453821611558000,10.028557861328125,-0.6404489440917969,0.44403672967553137,0.9663450320333242
1789453821621496800,10.038496826171874,-0.5773176573961973,0.18793138631880282,1.0447031139552592
1789453821631437000,10.04843701171875,-0.40128129153251646,-0.07259937226474285,1.3356272572368382
1789453821641376000,10.0583759765625,0.040217151837050914,-0.1673316658824682,0.06303074893057346
1789453821651316000,10.06831591796875,-0.3228255944550037,-0.17717501450479028,-0.8524719846159219
1789453821661255000,10.0782548828125,-0.6214642576366662,-0.014984218642115592,-1.1442004300177098
1789453821671195100,10.088195068359376,-0.6442889606460929,0.17393910132348536,-0.44572249080538745
1789453821681134000,10.098134033203126,-0.11232289536595344,0.2619458860784769,0.6189969907402992
1789453821691073800,10.10807373046875,-0.755295804977417,-0.20091829366385935,0.5429986236870289
1789453821701013000,10.118012939453125,-1.1617951234191655,-0.7266337741166353,0.9544672549739479
1789453821710953000,10.127952880859375,-0.671808835734427,-0.8872726643621921,1.220365093548596
1789453821720892000,10.137891845703125,-0.4484329188078642,-1.3242249887347222,1.0436047973245381
1789453821730832000,10.147831787109375,-1.1172443262919782,-0.8761533044546842,0.5871604214966297
1789453821740771000,10.15777099609375,0.516315783944726,0.27603695527315136,0.982509400370717
1789453821750711000,10.1677109375,0.28399405175745485,0.9129723382860422,1.0762465454712509
1789453821760650000,10.17764990234375,-0.7183943535596132,1.104331360965967,-0.3367120809882879
1789453821770590000,10.18758984375,0.042644671244919295,1.320742991837859,-0.32974691815078255
1789453821780529000,10.19752880859375,0.5648895529776812,1.393834531533718,0.14523060097247362
1789453821790468900,10.20746875,-0.3224772194087505,1.191761222615838,0.6482572797551751
1789453821800407800,10.21740771484375,-0.2900444378376007,0.8038286574780941,0.9310492622464894
1789453821810348000,10.22734814453125,0.48312283165603875,0.6512497395694256,1.6288248984083533
1789453821820287000,10.237286865234376,0.11017477742135524,0.14150222809910773,1.2972075102105736
1789453821830227000,10.24722705078125,-0.2339581012174487,-0.6734206548452377,1.1245713081791997
1789453821840166000,10.257165771484376,-0.8353782264739275,-1.3929846367061138,1.270304305715859
1789453821850106000,10.267106201171876,-0.5417810645908117,-1.8304998556584118,0.9767135735735296
1789453821860045000,10.277045166015625,-0.6082850425899028,-1.8193407482624053,0.9360846260651946
1789453821869984800,10.28698486328125,-0.06589899784326553,-1.250024026492238,1.2812076847851275
1789453821879924000,10.296924072265625,0.11072568930238484,-0.6957850468665361,0.8446826459139585
1789453821889864000,10.306864013671875,0.11958821019381284,-0.06813304050564765,-0.003670505206286907
1789453821899803000,10.316802978515625,0.4327554572045803,0.05972995381951332,-0.8883379555061459
1789453821909743000,10.3267431640625,0.0606999678954482,-0.401375399556756,-1.1442997987389565
1789453821919682000,10.33668212890625,-0.26387656188011166,-0.8338070316344499,-0.5072556946545839
1789453821929622000,10.3466220703125,0.2661889304757118,-1.284321432891488,0.05732756885290145
1789453821939561000,10.35656103515625,0.2609679809570312,-1.4332500115990638,0.5347184327282011
1789453821949501000,10.3665009765625,-0.2950280714690685,-1.342302497217059,0.4807705694414675
1789453821959440000,10.37643994140625,-0.6937804290458559,-0.8791104006946087,0.23608839124441144
1789453821969379800,10.3863798828125,-0.5064084301754832,-0.2311415824919939,0.4695877889089286
1789453821979318800,10.39631884765625,-0.0823939133092761,0.3042348757535219,0.6595934972837567
1789453821989259000,10.406259033203124,0.33620763859748837,0.7657306897521019,0.11759089889675378
1789453821999198000,10.416197998046876,-0.03270779912024736,0.6668605656772851,-0.7667113713525235
1789453822009138000,10.426137939453126,-0.379976345436275,0.5921534074783324,-0.8239354798309505
1789453822019077000,10.4360771484375,-0.3242375070795417,0.5874515133976936,-0.21634280341938136
1789453822029017000,10.44601708984375,-0.1355868665754795,0.28313188197016714,0.14883870846703648
1789453822038956000,10.4559560546875,-0.5118947526320815,-0.25224516079723835,0.3085527389526367
1789453822048896000,10.46589599609375,-0.9473895716726779,-0.4235264410883188,1.1813184467956424
1789453822058835000,10.4758349609375,-0.8119628640949725,-0.3850111247330904,1.8075737381011248
1789453822068775000,10.48577490234375,-0.696798023301363,-0.3869575826257467,2.0214083580918607
1789453822078713900,10.4957138671875,-0.527942216591537,-0.2919306899756193,2.2131972966216504
1789453822088654000,10.505654052734375,-0.33769787715524435,-0.13520926543474196,2.072650031159818
1789453822098593000,10.515593017578125,-0.40140082625895734,0.24302549703121185,1.6454763196103275
1789453822108533000,10.525532958984375,-0.5875248708948493,0.42753567672967907,1.2425661117017268
1789453822118472000,10.535471923828124,-0.42580870680660005,0.31797581633627414,0.5508811936303973
1789453822128412000,10.545411865234374,-0.16416443402320147,-0.10386252553462981,-0.1371112996637821
1789453822138350800,10.555350830078124,-0.17760054644048212,-0.37378830445110794,-0.41417058372199533
1789453822148290800,10.565290771484374,-0.07094488305598497,-0.6392799003124237,-0.44411388656497
1789453822158230000,10.57522998046875,0.11833616430610418,-0.6058838266670703,-0.1593783687904477
1789453822168170000,10.585169921875,0.5545619279697537,-0.5281184499412774,0.24485592732876538
1789453822178109000,10.59510888671875,1.241845688472688,-0.7017354797035456,-0.04341127170324325
1789453822188049200,10.605049072265626,1.2487982840895653,-0.9734919811785221,-0.689229926134646
1789453822197988000,10.614988037109375,0.8665949102535844,-1.598731665700674,-1.0938935535818337
1789453822207928000,10.624927978515625,0.3491246955767274,-2.1552888591408728,-1.7385703445017338
1789453822217867000,10.634866943359375,-0.33262130454331634,-2.231422250750661,-1.9444760711893438
1789453822227807000,10.644806884765625,-0.7990344089388847,-1.7657909443825481,-1.2166004803180694
1789453822237746000,10.654745849609375,-0.7411717102959752,-1.1423603551089763,-0.7295341717332601
1789453822247686000,10.664685791015625,-0.43598231029659507,-0.9395908806204796,-0.5332639961361885
1789453822257624800,10.674624755859375,0.21424977666288614,-1.068620580637455,-0.7635811105027794
1789453822267565000,10.68456494140625,0.16262538788765668,-1.3965508047550916,-0.8289166292443871
1789453822277503500,10.69450341796875,-0.42905397233813997,-1.4457944358736277,-0.9176546508833765
1789453822287443500,10.704443359375,-1.0008414681360125,-1.3916671243667602,-1.1754922248601913
1789453822297382700,10.714382568359374,-2.259966208189726,-0.35145606113374234,-0.04130348576903343
1789453822307322600,10.724322509765624,-2.882092729127407,1.1042378374636173,1.7736445804923773
1789453822317262300,10.734262451171874,-1.9582444843009112,1.6599819609552622,2.6024621332764624
1789453822327201500,10.744201416015626,-0.19279840783327817,1.6378917097002268,1.8399819697529076
1789453822337140500,10.754140380859376,0.6455611725389957,1.459272341606021,0.3866153450593352
1789453822347080400,10.76408056640625,-0.019741642302274702,0.924522490826249,-0.5066591900661588
1789453822357019400,10.774019287109375,-0.9295026173263787,0.3725058634251356,-1.0939221951544285
1789453822366959600,10.783959716796875,-1.6925553200408816,0.09422785122692584,-0.9141422588482498
1789453822376899600,10.793899658203125,-1.5344699136704205,0.3187970695912838,-0.049525370669364924
1789453822386838500,10.803838623046875,-0.8046312060326337,0.7098965743273496,0.7513090734288096
1789453822396778500,10.813778564453125,-0.31238720254898067,0.9493366140872239,1.1669295636981725
1789453822406717400,10.823717529296875,0.2943982491329312,0.8723463133871555,1.0184417144954203
1789453822416657400,10.833657470703125,0.4215682927578687,0.21722645438611507,0.9949997563704848
1789453822426596400,10.843596435546875,0.5332029135987162,-0.21237141557037828,0.7458902632504701
1789453822436536600,10.85353662109375,0.4286956604197621,-0.3514046232074499,0.5640285522341728
1789453822446475500,10.8634755859375,0.07242576926350593,-0.34124680180847644,0.7105787113726139
1789453822456415500,10.87341552734375,-0.08656827638447284,-0.6408388201922178,1.5089906044989823
1789453822466354700,10.883354736328124,0.6301531755268573,-0.6497498564004898,1.4511018946319818
1789453822476294400,10.89329443359375,1.2682844903260468,-0.703198537993431,1.2383183911293745
1789453822486233600,10.903233642578124,0.5250400654092431,-0.44401685593128204,0.902704042249918
1789453822496173600,10.913173583984374,-0.30905484325587745,0.07786825257837772,0.8176514311254024
1789453822506112500,10.923112548828126,-0.7050526414275169,0.3051251025915146,0.7177233224302529
1789453822516052500,10.933052490234376,-1.1760375837832688,0.5336369211018085,0.7879676560014486
1789453822525991400,10.942991455078126,-1.5670102472692726,0.2905412814438343,1.4733178180932998
1789453822535931600,10.952931640625,-0.7136217323303222,-0.20881810700297354,1.6810282561153171
1789453822545870600,10.96287060546875,0.6199105984538793,-0.16093699640929698,1.129815346312523
1789453822555810600,10.972810546875,-0.016570026528835297,-0.5502466951191425,1.7985194940298794
1789453822565749500,10.98274951171875,0.42085488379150626,-0.6964695219993591,1.3416560160070656
1789453822575689500,10.992689453125,0.029251813447475433,-0.30592882018983364,0.5866957265943289
1789453822585628400,11.00262841796875,1.0112368976831436,0.5096048881292343,-1.39509885238111
1789453822595568400,11.012568359375,0.2881745523124933,0.49495384696424005,-1.6545003146737813
1789453822605507600,11.022507568359375,-0.2776204250723123,-0.16384031663537024,-1.3050894956320525
1789453822615447600,11.032447509765625,0.5793740054041147,-0.022708675414323806,-0.8553992702394724
1789453822625386500,11.042386474609375,2.003083450719714,0.7123124032974243,-1.8768565331637859
1789453822635326700,11.05232666015625,0.7325514737278223,0.7350742702037095,-1.0773936696797608
1789453822645265700,11.062265625,1.2928437620431183,0.5177841029316187,-0.4106786499530077
1789453822655205400,11.072205322265624,1.0796382337361574,1.4293559267699718,-2.096904474711418
1789453822665144300,11.082144287109376,0.42666532363593573,0.9925199222534894,-0.708362788888812
1789453822675084500,11.09208447265625,0.6750175686478614,0.30152386322915553,-0.9655039050340651
1789453822685023500,11.1020234375,0.8324281444966792,0.7974556153148412,-1.118889463150501
1789453822694963500,11.11196337890625,0.033036592683196066,0.4321329413920641,-0.7151391511559486
1789453822704902400,11.12190234375,0.8706447701662778,0.36489188129007816,-1.118213171324134
1789453822714842600,11.131842529296875,0.3414414475977421,-0.3010767039835453,-1.3545727807253598
1789453822724781600,11.141781494140625,-0.5857394487828016,-0.556541995871067,-1.3237228844314812
1789453822734721500,11.151721435546875,-0.9015332449048757,-0.8177952235102653,-0.22798399524390697
1789453822744660700,11.16166064453125,-2.060145062112808,-1.2870330299377442,0.8535866678595543
1789453822754600400,11.171600341796875,-1.0118956538528203,-1.6680623915582895,1.6535294238150118
1789453822764539400,11.181539306640625,0.10628419972360134,-1.8192273510158061,0.4539513899683952
1789453822774479600,11.191479736328125,1.3313134856909512,-1.7217863829612732,-0.4688537755459547
1789453822784418600,11.20141845703125,1.4725538479834794,-1.234542671982944,-1.4168085798859595
1789453822794358500,11.211358642578125,0.16447276932001112,-0.60386108866781,-1.355786832690239
1789453822804297500,11.22129736328125,0.9369681309014558,-0.590117809997499,-0.46421500982940195
1789453822814237700,11.23123779296875,0.9735954415529966,-0.5599339763969182,-0.27969372421503064
1789453822824176600,11.2411767578125,0.6703302876144647,-0.4844803837448358,0.23905367079079148
1789453822834116400,11.251116455078124,0.273238264465332,-0.23616554813385007,0.47483401899933814
1789453822844055300,11.26105517578125,0.505390485304594,-0.11588146463036536,0.5767693758636713
1789453822853995500,11.27099560546875,1.5648065997451543,-0.18492197536975144,0.8051935160905123
1789453822863934500,11.2809345703125,1.615046840685606,-0.30387393348664044,-0.20105098013281822
1789453822873874400,11.29087451171875,2.8052310232430693,0.3307949658989906,-1.9286890117317437
1789453822883813600,11.300813720703125,1.6865987497240305,0.8045198546126484,-3.5624586730659007
1789453822893753600,11.310753662109375,0.9898609321773052,1.19890057297647,-3.2567858734637496
1789453822903692500,11.320692626953125,0.5245663104176521,0.7305170452907681,-2.3706343220859765
1789453822913632500,11.330632568359375,1.217338146942854,0.23514994135051964,-3.157647453841567
1789453822923571700,11.34057177734375,0.8394184417754411,0.6283449570611119,-3.1878894473701713
1789453822933511400,11.350511474609375,0.4669143319159746,0.6322919411212206,-1.9817513243556022
1789453822943450400,11.360450439453125,0.007972878575325013,0.19440730433464048,-0.7688257331579923
1789453822953390600,11.370390625,-0.5475245766788721,-0.030540099692344665,0.4149263705253601
1789453822963329500,11.38032958984375,-0.6966781963139772,-0.10540595558434725,0.9847200621575116
1789453822973269500,11.39026953125,-0.6438935315877199,-0.41056642175018787,0.7248147419959307
1789453822983208400,11.40020849609375,-0.6292910057395696,-0.6454042284116148,0.7338076112687587
1789453822993148700,11.410148681640624,-0.12380348980128765,-1.0315975486665963,-0.05315115995109081
1789453823003088400,11.42008837890625,-0.15819851135611535,-1.0014245287209749,-1.7126713486135006
1789453823013027300,11.43002734375,-0.6487438942283391,-0.6496566251590847,-2.932578469261527
1789453823022967600,11.439967529296876,-0.6549269667774439,-0.394111253772676,-2.231439786407351
1789453823032906500,11.449906494140626,-0.30908231578469275,-0.1700225124016404,-1.7484212919086217
1789453823042846500,11.459846435546876,-0.3765215288072824,0.33667613289207216,-1.34821259804368
1789453823052785400,11.469785400390625,0.0022960019826889035,0.766489399164915,-1.4442249945998191
1789453823062725600,11.4797255859375,0.42856969595253464,0.7917904291599989,-2.253134316343069
1789453823072664600,11.48966455078125,0.6394838984519243,0.6531617106705904,-3.0377959165364503
1789453823082604300,11.499604248046875,0.3098281657159328,0.6551432398766279,-3.0682845783025026
1789453823092543500,11.50954345703125,0.021250293299555776,0.6750970636248588,-2.226157462090254
1789453823102483500,11.5194833984375,-0.01712707588970661,0.4206985241860151,-1.7152987745076418
1789453823112422400,11.52942236328125,-0.3016828531831503,0.2681061622738838,-1.1408517041116952
1789453823122362600,11.539362548828125,-0.48552083270847796,0.12840426159501075,-0.49474341908395286
1789453823132301600,11.549301513671875,-0.9865671513289213,0.04465922593772411,-0.06564180821180343
1789453823142241500,11.559241455078125,-1.2077931967452167,-0.13414017489850522,0.3470072650313377
1789453823152180500,11.569180419921874,-0.5987491524815559,-0.3215928377896547,0.8014163356393575
1789453823162120700,11.57912060546875,-0.15476678334176538,-0.402500019672513,0.28688275893628595
1789453823172059600,11.5890595703125,-0.7093813182815909,0.07854045275151729,-0.0812765997171402
1789453823181999400,11.598999267578124,-0.3492714105710387,0.8649813375771045,-0.16138298661112785
1789453823191938300,11.608938232421876,-0.12002660161107778,1.6807932783156632,-0.15548632978796958
1789453823201878500,11.61887841796875,-0.1652016681164503,2.029225023192167,0.17666238880753515
1789453823211817500,11.6288173828125,0.3298895414918661,2.2942840728551146,0.7804740853756665
1789453823221757400,11.63875732421875,-0.2940229860797524,2.069405057889223,0.9128992730498313
1789453823231696600,11.648696533203125,-1.0872332189098,1.3266355570077895,1.6887515438437462
1789453823241636600,11.65863671875,-0.5109010654196143,0.7164291909664869,1.6201111383378504
1789453823251575600,11.668575439453125,-0.7167331423491239,-0.7066355267047881,2.3713562066197396
1789453823261515500,11.678515625,-0.4468804286688566,-1.0077385341733693,1.6225971099346874
1789453823271454500,11.688454345703125,-0.34829029057919975,-1.0221399844914674,1.2100433137595652
1789453823281394200,11.698394287109375,-0.7214069793790578,-0.9890718276262283,0.9626333180338144
1789453823291333400,11.70833349609375,-0.1313663262709975,-0.3308814751386642,0.8344412378847599
1789453823301273300,11.7182734375,-0.1643956124305725,0.6981582057386636,0.14804448934942482
1789453823311212300,11.72821240234375,-1.278739833366871,1.0490665698617696,-0.2038499632015824
1789453823321152500,11.738152587890625,-1.0860393329501152,1.45153385630846,-0.3586234685450792
1789453823331091500,11.748091552734374,-0.5904185465097427,1.5595938335329294,-0.4085629729732871
1789453823341031400,11.758031494140624,0.2620285959258675,1.1504665046751499,0.2207251101568341
1789453823350970400,11.767970458984376,-0.8892582852214574,0.6398959863841533,-0.2370008299142122
1789453823360910300,11.777910400390626,-0.7850795333445072,-0.28293256000578404,0.23269494941383598
1789453823370849300,11.787849365234376,-1.3791522184476255,-0.8990613018333912,0.5065650820419192
1789453823380789200,11.797789306640626,0.023906945288181304,-1.2380068409621714,0.7319400638312101
1789453823390728200,11.807728271484375,-0.4183709580212831,-1.529386911317706,1.054504084740579
1789453823400668400,11.81766845703125,-1.494393923869729,-1.6927666247040032,0.8555842714175581
1789453823410607400,11.827607421875,-1.0573907460927963,-1.200164893823862,1.0832611004084347
1789453823420547300,11.83754736328125,0.04270750734806061,-0.23135376393795012,1.3564882589578628
1789453823430486500,11.847486572265625,0.29909634382128714,0.6049480071216822,1.4837395511254667
1789453823440426200,11.85742626953125,0.06817921773493289,0.8754378496617078,1.187033317311108
1789453823450365200,11.867365234375,-0.08521978438496589,0.2737234176337719,0.37873598998636004
1789453823460305400,11.877305419921875,-0.47053456823974843,-0.625601503571868,0.128920394423604
1789453823470244400,11.887244384765625,-0.31274346864074465,-1.0345967304825783,0.37620384116023775
1789453823480184300,11.897184326171875,0.10896394032686949,-0.7672907786756753,0.9906070743694901
1789453823490123300,11.907123291015624,0.34519816978275775,-0.24981179617047308,1.053247070416808
1789453823500063500,11.9170634765625,-0.09331658160090446,0.4495347425699234,0.7497507380709052
1789453823510002400,11.92700244140625,-0.9115084032133222,0.9034224196523427,0.561210279943049
1789453823519942400,11.9369423828125,-0.05315758969187736,0.8432061436206102,-0.23058482539206743
1789453823529881300,11.94688134765625,0.5169420991495252,0.3497182775557041,-0.8756281115368008
1789453823539821300,11.9568212890625,-0.085521689940989,-0.6905360402971505,-1.0858896953463553
1789453823549760300,11.96676025390625,-0.7841516048446298,-1.3799702568322418,-0.6445262765333056
1789453823559700200,11.9767001953125,-0.27602526483535766,-1.6191174511253832,0.17397797202914952
1789453823569639400,11.986639404296875,0.1365279468178749,-1.3958271666556596,0.7652382300600409
1789453823579579400,11.996579345703125,-0.4359682817712426,-0.8861258324146271,0.5761494903996587
1789453823589518300,12.006518310546875,-0.9376108127191662,0.0053331777215003965,0.626254122261703
1789453823599458600,12.01645849609375,-0.8926420824408531,1.0883587158083916,0.9913225291624664
1789453823609397500,12.0263974609375,-0.2657736276730895,1.8142355340778826,1.2774477477297186
1789453823619337200,12.036337158203125,0.06842442466765641,1.3430962779432534,0.47190702563673254
1789453823629276200,12.046276123046875,-0.678369801685214,0.5016711725205183,0.47191608572602267
1789453823639216400,12.05621630859375,-1.1760323230862617,-0.6050111354857682,1.2597653760448098
1789453823649156400,12.06615625,-0.9722525025114417,-1.2986375430136918,1.5141560244381427
1789453823659095300,12.07609521484375,-1.074691132722795,-1.575377678120136,1.6293006992265582
1789453823669035500,12.086035400390625,-0.8818778195813298,-1.372269765457511,1.8497721268832683
1789453823678974500,12.095974365234374,-0.34488077439665793,-1.0163462035208939,1.1794658046662807
1789453823688914200,12.1059140625,-0.6065992814600467,-0.8380132511526346,0.8250199140667915
1789453823698853400,12.115853271484376,-0.2619540693849325,-0.8082529036611318,0.19441782572865485
1789453823708793300,12.12579345703125,0.10166238514184951,-1.1513994016110896,-0.5376613543123007
1789453823718732300,12.135732177734376,0.33228578897863625,-1.268713529393077,-0.43959348653107877
1789453823728672300,12.14567236328125,0.8679016089379787,-0.8613532102078199,-0.22364245890825984
1789453823738611500,12.155611572265625,1.111043718086183,-0.4298141430556774,0.5774167338564992
1789453823748551400,12.165551513671875,1.9028101818487047,-0.10650456447601318,0.42684623316079373
1789453823758490400,12.175490478515625,2.007069597746432,0.08185352282226085,-0.5603869808614254
1789453823768430300,12.185430419921875,1.2806962281316518,-0.24299919354617594,-1.2275962138459087
1789453823778369500,12.19536962890625,0.8240870171308518,-0.8376718903690576,-1.6275231681600213
1789453823788309200,12.205309326171875,0.55148237439394,-1.301464290872216,-2.0428423373952507
1789453823798248200,12.215248291015625,-0.176095694835484,-1.2329279302626848,-1.5970876978859305
1789453823808188400,12.2251884765625,-0.3582999356791377,-1.1877046407014131,-1.2862664294794202
1789453823818127400,12.23512744140625,-0.39139790316075085,-1.2047761870115994,-1.5549106441527605
1789453823828067300,12.2450673828125,-0.9089417675957083,-0.8369821545392274,-0.812508515278995
1789453823838006300,12.25500634765625,-0.42616555742025375,-0.3108586778074503,0.029242461097240446
1789453823847946500,12.264946533203124,0.14917612372785805,-0.45969022588133807,-0.3148208594366908
1789453823857885400,12.274885498046874,-0.4530310602530837,-0.5946791265636682,-0.5702893661946058
1789453823867825200,12.2848251953125,-1.540769306075573,-0.1167208380639553,0.17062047829478977
1789453823877764400,12.294764404296876,-1.470611189483106,0.5247375753313303,0.7074798685744405
1789453823887704300,12.304704345703126,-0.15009557666033504,0.895253141722083,0.1315653559744358
1789453823897643300,12.314643310546876,0.8232070194259286,0.825074859124422,-0.33005320762097834
1789453823907583200,12.324583251953126,0.75845134639889,0.7998661835879087,-0.7578665322482585
1789453823917522400,12.3345224609375,0.2510419224873185,0.4253296911180019,-1.384509361566603
1789453823927462400,12.34446240234375,-0.8623606336846947,-0.39057168146967886,-1.1723901671916246
1789453823937401300,12.3544013671875,-1.8401450513601303,-0.7739391306489706,-0.06007219138592481
1789453823947341600,12.364341552734375,-2.25132346752882,-0.4136351616710424,1.5916393693521618
1789453823957280500,12.374280517578125,-1.1966706219673156,0.12160627201795578,2.6619568170353767
1789453823967220200,12.38422021484375,0.44900458121597764,0.2972767271786928,2.4249112711966037
1789453823977159200,12.3941591796875,1.2673135994672775,0.632630379295349,1.221286007785797
1789453823987099400,12.404099365234375,0.7563631419479846,0.7057803711801767,0.38001989231705663
1789453823997038300,12.414038330078125,-0.409493824082613,0.24133622877001762,0.5608025759249925
1789453824006978300,12.423978271484375,-0.9846253696113825,-0.012632102558016776,0.393374463930726
1789453824016917200,12.433917236328124,-1.5612179276034235,-0.28015491198599335,1.4473410807937384
1789453824026857500,12.443857421875,-1.0382195971548556,-0.679828183799982,1.568175199395418
1789453824036796400,12.45379638671875,-0.22478753729015588,-0.9614233577221631,1.5944839451283215
1789453824046736100,12.463736083984376,0.350145563057065,-0.781778738233447,0.9038754241168498
