time,seconds_elapsed,z,y,x
1789453811652244000,0.069243896484375,0.17470870912075043,0.6857836842536926,-0.19569802284240723
1789453811662183700,0.07918359375,0.1985141783952713,0.7942739725112915,-0.19160474836826324
1789453811672123000,0.089122802734375,0.1588551551103592,0.9404125809669495,-0.2905718982219696
1789453811682061800,0.099061767578125,0.17153632640838623,0.8853017091751099,-0.44796714186668396
1789453811692000800,0.109000732421875,0.23570756614208221,0.8491441607475281,-0.5678889155387878
1789453811701940700,0.118940673828125,0.24232712388038635,0.8706870079040527,-0.7464101910591125
1789453811711879700,0.128879638671875,0.2883894443511963,0.9180958271026611,-0.7440254092216492
1789453811721819000,0.13881884765625,0.39053043723106384,0.9976122975349426,-0.4872303903102875
1789453811731758800,0.1487587890625,0.4531852900981903,0.9794888496398926,-0.09700579941272736
1789453811741697800,0.15869775390625,0.35107356309890747,1.2441918849945068,0.139093816280365
1789453811751636700,0.16863671875,0.16175131499767303,0.997602105140686,0.17351490259170532
1789453811761576000,0.178575927734375,0.11962305009365082,0.4878714680671692,0.22283345460891724
1789453811771516000,0.188515869140625,0.11493656784296036,0.4269556999206543,0.2656715214252472
1789453811781454800,0.198454833984375,0.1463243067264557,0.434225857257843,0.19742029905319214
1789453811791393800,0.208393798828125,0.24562840163707733,0.7102289199829102,0.1340523213148117
1789453811801334000,0.218333984375,0.38375988602638245,0.8771122097969055,0.028113650158047676
1789453811811273000,0.22827294921875,0.5543994307518005,0.776355504989624,-0.14916419982910156
1789453811821212000,0.2382119140625,0.7580782771110535,0.6855981945991516,-0.3169231116771698
1789453811831151900,0.24815185546875,0.9409352540969849,0.7950264811515808,-0.389377236366272
1789453811841090800,0.2580908203125,1.1601916551589966,0.7804672122001648,-0.4652709364891052
1789453811851029800,0.26802978515625,1.4575836658477783,0.8268538117408752,-0.5143520832061768
1789453811860968700,0.27796875,1.8032398223876953,0.9725481867790222,-0.49796217679977417
1789453811870908700,0.28790869140625,2.228757619857788,1.1388612985610962,-0.4028172492980957
1789453811880848000,0.297847900390625,2.891815662384033,1.4608569145202637,-0.26264041662216187
1789453811890786800,0.307786865234375,3.8330941200256348,1.540001630783081,-0.04382861778140068
1789453811900726800,0.317726806640625,4.255388259887695,1.0431119203567505,0.3900836706161499
1789453811910665700,0.327665771484375,3.789440155029297,0.19038136303424835,0.6408592462539673
1789453811920605000,0.33760498046875,1.519073724746704,-0.5029017925262451,0.30428946018218994
1789453811930545000,0.347544921875,-0.5095952153205872,-0.8311446309089661,0.3556331396102905
1789453811940483800,0.35748388671875,-1.2416123151779175,-1.0996372699737549,0.42435574531555176
1789453811950422800,0.3674228515625,-1.2136120796203613,-1.534862756729126,0.18912869691848755
1789453811960362000,0.377362060546875,-0.7058799862861633,-1.8022737503051758,-0.15131357312202454
1789453811970302000,0.387302001953125,-0.17472857236862183,-1.6526371240615845,-0.4691970944404602
1789453811980241000,0.397240966796875,-0.18410849571228027,-0.870022177696228,-0.4771229326725006
1789453811990179800,0.407179931640625,-0.5247353911399841,0.35219141840934753,-0.41097861528396606
1789453812000119800,0.417119873046875,-0.6589831709861755,0.31496042013168335,-0.4982501268386841
1789453812010058800,0.427058837890625,-0.5823760628700256,-0.5838515758514404,-0.7291435599327087
1789453812019998000,0.436998046875,-0.39090675115585327,-1.4016023874282837,-0.8669189810752869
1789453812029937700,0.446937744140625,-0.09435594081878662,-1.8651715517044067,-0.8080255389213562
1789453812039876900,0.456876953125,0.2108050286769867,-2.0618362426757812,-0.5458685159683228
1789453812049815800,0.46681591796875,0.4743124842643738,-2.0957725048065186,-0.12194634228944778
1789453812059754800,0.476754638671875,0.6764799356460571,-2.025974750518799,0.4053414463996887
1789453812069694700,0.48669482421875,0.7952598929405212,-1.7607512474060059,0.9331686496734619
1789453812079634000,0.496634033203125,0.8255389928817749,-1.267295241355896,1.3560967445373535
1789453812089572900,0.50657275390625,0.7596144080162048,-0.8774794340133667,1.489151120185852
1789453812099512800,0.516512939453125,0.5957277417182922,-1.0451568365097046,1.1510844230651855
1789453812109451800,0.52645166015625,0.42285680770874023,-1.2530052661895752,0.5658416152000427
1789453812119391000,0.536390869140625,0.25842177867889404,-0.7191131114959717,-0.18340198695659637
1789453812129331000,0.5463310546875,0.24645398557186127,-0.2660389244556427,-0.5448867678642273
1789453812139270000,0.556269775390625,0.2873130142688751,0.12430217862129211,-0.8438335061073303
1789453812149208800,0.566208740234375,0.28817489743232727,0.2738824188709259,-1.163849949836731
1789453812159149000,0.576149169921875,0.257746160030365,0.18042626976966858,-1.470845341682434
1789453812169088000,0.586087890625,0.17169713973999023,0.07479563355445862,-1.654852032661438
1789453812179027000,0.59602685546875,0.02965584024786949,0.07002884149551392,-1.6260669231414795
1789453812188966700,0.605966552734375,-0.05790436640381813,0.13940179347991943,-1.4157278537750244
1789453812198905900,0.61590576171875,-0.03325734660029411,-0.0830531194806099,-1.0113043785095215
1789453812208844800,0.6258447265625,0.07245314121246338,-0.415533185005188,-0.5795806050300598
1789453812218783700,0.63578369140625,0.14251556992530823,-0.7441542148590088,-0.20894502103328705
1789453812228723700,0.6457236328125,0.13634301722049713,-1.014724850654602,0.10469327121973038
1789453812238663000,0.655662841796875,0.021940546110272408,-1.0209547281265259,0.3863012492656708
1789453812248601900,0.665601806640625,-0.1429188847541809,-0.7621667385101318,0.6846962571144104
1789453812258541800,0.675541748046875,-0.27382925152778625,-0.362922728061676,0.9945031404495239
1789453812268480800,0.685480712890625,-0.33100053668022156,0.05937301367521286,1.2519824504852295
1789453812278420200,0.695420166015625,-0.32556796073913574,0.37717440724372864,1.3775558471679688
1789453812288360200,0.705360107421875,-0.28664278984069824,0.4353104829788208,1.3014274835586548
1789453812298299100,0.715299072265625,-0.20383551716804504,0.05182887986302376,0.8682950139045715
1789453812308238000,0.725238037109375,-0.09377811849117279,-0.3733961582183838,0.29406657814979553
1789453812318178300,0.73517822265625,-0.08663871139287949,-0.21992190182209015,0.04403570666909218
1789453812328117200,0.7451171875,-0.1804509162902832,0.12003317475318909,-0.007216908503323793
1789453812338056200,0.75505615234375,-0.24539290368556976,0.28607621788978577,0.038026999682188034
1789453812347996200,0.76499609375,-0.2916831374168396,0.34608712792396545,0.20932833850383759
1789453812357935000,0.77493505859375,-0.2618490755558014,0.320983350276947,0.4186032712459564
1789453812367874000,0.7848740234375,-0.14348185062408447,0.3056720197200775,0.5249539613723755
1789453812377814000,0.79481396484375,-0.009967993944883347,0.24094043672084808,0.5195037722587585
1789453812387753200,0.804753173828125,0.08336789160966873,0.2323930859565735,0.4113374948501587
1789453812397692200,0.814692138671875,0.14657776057720184,0.30160385370254517,0.29099562764167786
1789453812407632100,0.824632080078125,0.21057897806167603,0.3182046413421631,0.24036023020744324
1789453812417571000,0.834571044921875,0.26866304874420166,0.3379780948162079,0.27844688296318054
1789453812427510000,0.844510009765625,0.24533306062221527,0.28994226455688477,0.3805443048477173
1789453812437450200,0.8544501953125,0.12664581835269928,0.17565588653087616,0.5011482238769531
1789453812447389200,0.86438916015625,-0.026249127462506294,0.13062632083892822,0.6154384016990662
1789453812457328000,0.874328125,-0.12534135580062866,0.1740877777338028,0.6812599897384644
1789453812467268400,0.884268310546875,-0.13321787118911743,0.19592536985874176,0.6811846494674683
1789453812477207300,0.894207275390625,-0.10554283857345581,0.06268315017223358,0.5776204466819763
1789453812487146200,0.904146240234375,-0.080940842628479,-0.11655540019273758,0.44216009974479675
1789453812497086000,0.9140859375,-0.02735271491110325,-0.2099391371011734,0.3048349916934967
1789453812507025200,0.924025146484375,-0.0006480172742158175,-0.25328588485717773,0.16289351880550385
1789453812516964000,0.933964111328125,-0.04628714174032211,-0.23620730638504028,0.05959722027182579
1789453812526904000,0.943904052734375,-0.10571249574422836,-0.18013674020767212,-0.0026593704242259264
1789453812536843000,0.953843017578125,-0.12442919611930847,-0.14625893533229828,-0.052714280784130096
1789453812546782200,0.9637822265625,-0.11873070150613785,-0.1301514059305191,-0.07803992927074432
1789453812556722200,0.97372216796875,-0.11492504924535751,-0.08841674029827118,-0.06388390064239502
1789453812566661000,0.9836611328125,-0.11009959131479263,-0.03539713844656944,-0.041448526084423065
1789453812576600000,0.99360009765625,-0.1064438670873642,-0.052623264491558075,-0.00027952040545642376
1789453812586539000,1.0035390625,-0.07959640026092529,-0.12958593666553497,0.047050077468156815
1789453812596479200,1.013479248046875,-0.02866264618933201,-0.25970959663391113,0.07394028455018997
1789453812606418200,1.023418212890625,0.03111913800239563,-0.3687058091163635,0.07860368490219116
1789453812616357000,1.033357177734375,0.0684254989027977,-0.4455646276473999,0.05162079632282257
1789453812626297300,1.04329736328125,0.044066812843084335,-0.42139118909835815,0.009591486304998398
1789453812636236300,1.053236328125,-0.009995889849960804,-0.25867071747779846,-0.06637997925281525
1789453812646175200,1.06317529296875,-0.060365237295627594,-0.053614433854818344,-0.14758898317813873
1789453812656115000,1.073114990234375,-0.10271988809108734,0.08760207891464233,-0.19554612040519714
1789453812666054100,1.08305419921875,-0.14478978514671326,0.13216395676136017,-0.20617058873176575
1789453812675993000,1.0929931640625,-0.15083089470863342,0.09562965482473373,-0.21786852180957794
1789453812685933000,1.10293310546875,-0.12056820094585419,0.04076158255338669,-0.24927541613578796
1789453812695872000,1.1128720703125,-0.07977283000946045,-0.014018312096595764,-0.2834579050540924
1789453812705811000,1.12281103515625,-0.05474020168185234,-0.09892822802066803,-0.3051849901676178
1789453812715751200,1.132751220703125,-0.03911836817860603,-0.18369291722774506,-0.28896206617355347
1789453812725690000,1.142690185546875,-0.028811831027269363,-0.2353903204202652,-0.2524966895580292
1789453812735629000,1.152629150390625,-0.02843499183654785,-0.2470877319574356,-0.21308349072933197
1789453812745569300,1.1625693359375,-0.013225899077951908,-0.185995414853096,-0.19115182757377625
1789453812755508200,1.17250830078125,0.010752935893833637,-0.1197652667760849,-0.18118815124034882
1789453812765447200,1.182447265625,0.02432882972061634,-0.061486393213272095,-0.18275734782218933
1789453812775387100,1.19238720703125,0.032470911741256714,-0.018660100176930428,-0.19171862304210663
1789453812785326300,1.202326416015625,0.01788116618990898,-0.004259658046066761,-0.2312658131122589
1789453812795265300,1.212265380859375,-0.010041811503469944,0.010437795892357826,-0.27627429366111755
1789453812805205000,1.222205078125,0.005762382876127958,-0.003023693338036537,-0.30239561200141907
1789453812815144000,1.23214404296875,0.028986211866140366,-0.12877069413661957,-0.30959784984588623
1789453812825083100,1.242083251953125,0.04747636616230011,-0.3216681480407715,-0.24783098697662354
1789453812835023000,1.252023193359375,0.09048108756542206,-0.47760769724845886,-0.1313142329454422
1789453812844962000,1.261962158203125,0.042473163455724716,-0.5245993733406067,-0.045621324330568314
1789453812854902000,1.271902099609375,0.016488170251250267,-0.41309627890586853,0.0231311097741127
1789453812864841200,1.28184130859375,0.04099392890930176,-0.12144812196493149,0.02259374037384987
1789453812874780200,1.2917802734375,-0.018827591091394424,0.15202070772647858,0.03130333870649338
1789453812884719000,1.301718994140625,-0.07682672888040543,0.25853538513183594,0.11002250015735626
1789453812894659000,1.3116591796875,-0.07537663727998734,0.22948536276817322,0.2452825903892517
1789453812904598300,1.321598388671875,-0.05055110901594162,0.04048561677336693,0.36843910813331604
1789453812914538200,1.331538330078125,0.05732502415776253,-0.199132040143013,0.46521225571632385
1789453812924477200,1.341477294921875,0.19061900675296783,-0.4018569886684418,0.45812445878982544
1789453812934416100,1.351416015625,0.3044068515300751,-0.49184492230415344,0.3620850145816803
1789453812944356000,1.361356201171875,0.4119250476360321,-0.3138118088245392,0.18829642236232758
1789453812954295000,1.371294921875,0.4726584255695343,-0.09718842804431915,0.04141058027744293
1789453812964234200,1.381234130859375,0.484994113445282,0.009468982927501202,-0.013353439047932625
1789453812974174000,1.391174072265625,0.5323863625526428,0.03601191192865372,0.016555458307266235
1789453812984113200,1.401113037109375,0.5491120219230652,-0.10112664848566055,0.10178107768297195
1789453812994052000,1.411052001953125,0.5831024646759033,-0.2736097276210785,0.19848045706748962
1789453813003992000,1.420991943359375,0.6092514395713806,-0.39213284850120544,0.2343606948852539
1789453813013931000,1.430930908203125,0.6876722574234009,-0.39037302136421204,0.17423531413078308
1789453813023870200,1.4408701171875,0.744111955165863,-0.32995569705963135,0.06392217427492142
1789453813033810200,1.45081005859375,0.762189507484436,-0.27808505296707153,-0.07513531297445297
1789453813043749000,1.4607490234375,0.8148375749588013,-0.21946805715560913,-0.2300194799900055
1789453813053688000,1.47068798828125,0.930670976638794,-0.1507451832294464,-0.35333502292633057
1789453813063628300,1.480628173828125,1.094480037689209,-0.187269389629364,-0.3877882957458496
1789453813073567200,1.490567138671875,1.3261287212371826,-0.3272011876106262,-0.3197048604488373
1789453813083506200,1.500506103515625,1.6003391742706299,-0.5449676513671875,-0.19892990589141846
1789453813093446100,1.510446044921875,1.8564902544021606,-0.8475538492202759,-0.10408302396535873
1789453813103385000,1.520385009765625,2.081538200378418,-1.1543132066726685,-0.034828636795282364
1789453813113324300,1.53032421875,2.274928092956543,-1.3853509426116943,-0.02320074290037155
1789453813123264000,1.540263916015625,2.4483842849731445,-1.4801732301712036,-0.07179244607686996
1789453813133203000,1.550202880859375,1.7702324390411377,-1.6421866416931152,-0.26470568776130676
1789453813143142100,1.56014208984375,1.1262621879577637,-1.8130455017089844,-0.5023075342178345
1789453813153082000,1.57008203125,0.9389774799346924,-1.836995005607605,-0.772823691368103
1789453813163021000,1.58002099609375,1.0156784057617188,-1.9846934080123901,-1.2383556365966797
1789453813172960000,1.5899599609375,1.4462792873382568,-2.3582942485809326,-1.79636812210083
1789453813182900200,1.599900146484375,2.3292717933654785,-2.2334866523742676,-2.2063076496124268
1789453813192839200,1.609839111328125,3.6469178199768066,-2.3719732761383057,-2.847200870513916
1789453813202778000,1.619778076171875,4.659215450286865,-1.9096235036849976,-3.350135564804077
1789453813212718300,1.62971826171875,5.368073463439941,-1.5106358528137207,-3.7853660583496094
1789453813222657300,1.6396572265625,6.222062587738037,-1.7930629253387451,-4.121073246002197
1789453813232596200,1.64959619140625,6.97200345993042,-2.1190593242645264,-4.181242942810059
1789453813242536200,1.6595361328125,7.2952351570129395,-2.3199856281280518,-4.047300338745117
1789453813252475100,1.66947509765625,7.339727878570557,-2.5058469772338867,-3.8833000659942627
1789453813262415000,1.6794150390625,7.074540138244629,-2.6021692752838135,-3.624509334564209
1789453813272354000,1.68935400390625,6.608186721801758,-2.9310948848724365,-3.1982243061065674
1789453813282293200,1.699293212890625,5.985294342041016,-3.6022756099700928,-2.5288004875183105
1789453813292233200,1.709233154296875,5.157214641571045,-4.134427070617676,-1.5112433433532715
1789453813302172200,1.719172119140625,4.319073677062988,-4.5595879554748535,-0.30408915877342224
1789453813312111000,1.729111083984375,3.8719170093536377,-5.810491561889648,0.8799031972885132
1789453813322051300,1.73905126953125,3.8917477130889893,-7.044229030609131,1.9916977882385254
1789453813331990300,1.748990234375,3.978335380554199,-7.00111198425293,2.7822718620300293
1789453813341929200,1.75892919921875,3.936598539352417,-6.313272476196289,2.853743314743042
1789453813351869200,1.768869140625,3.839608669281006,-6.192117691040039,2.8917794227600098
1789453813361808400,1.778808349609375,3.529907464981079,-6.362722873687744,3.026468515396118
1789453813371747300,1.788747314453125,3.1830430030822754,-6.326661586761475,3.0292670726776123
1789453813381687000,1.79868701171875,2.7578794956207275,-5.783977508544922,3.048961877822876
1789453813391626200,1.808626220703125,2.6597719192504883,-4.204948425292969,2.07405948638916
1789453813401566200,1.818566162109375,2.898256301879883,-1.969282865524292,0.868572473526001
1789453813411505200,1.828505126953125,3.0223186016082764,-1.2188727855682373,0.05168000981211662
1789453813421444000,1.838444091796875,2.5187010765075684,-1.0756888389587402,-0.6578285098075867
1789453813431384300,1.84838427734375,1.9493194818496704,-0.93308025598526,-1.2884770631790161
1789453813441323300,1.8583232421875,1.8675847053527832,-0.4266994595527649,-1.6050876379013062
1789453813451262200,1.86826220703125,2.153855800628662,-0.19266194105148315,-1.7329140901565552
1789453813461202200,1.8782021484375,2.292724370956421,-0.12677347660064697,-1.624163269996643
1789453813471141400,1.888141357421875,2.2582597732543945,-0.21137677133083344,-1.2060065269470215
1789453813481080300,1.898080322265625,2.3103983402252197,-0.30904653668403625,-0.72785484790802
1789453813491020300,1.908020263671875,2.216264247894287,-0.37476134300231934,-0.35262399911880493
1789453813500959200,1.917959228515625,2.0303685665130615,-0.4777880311012268,-0.020130744203925133
1789453813510898200,1.927898193359375,1.841031551361084,-0.6145405769348145,0.30184194445610046
1789453813520838100,1.937838134765625,1.66537606716156,-0.6924837231636047,0.6486064195632935
1789453813530777000,1.947777099609375,1.5200127363204956,-0.7563833594322205,1.0519760847091675
1789453813540717000,1.957717041015625,1.4677834510803223,-0.9403656721115112,1.4044684171676636
1789453813550656300,1.96765625,1.4732247591018677,-1.0783137083053589,1.6275036334991455
1789453813560595200,1.97759521484375,1.4772624969482422,-1.337111473083496,1.7259423732757568
1789453813570535200,1.98753515625,1.4803011417388916,-1.421468734741211,1.7534162998199463
1789453813580474000,1.99747412109375,1.5347566604614258,-1.3360340595245361,1.6228907108306885
1789453813590413300,2.007413330078125,1.3387573957443237,-0.5779008269309998,0.8656569123268127
1789453813600353300,2.017353271484375,1.3706763982772827,-1.1524261236190796,0.7406004667282104
1789453813610292200,2.027292236328125,0.7747759819030762,-0.10760068893432617,-0.4529506266117096
1789453813620231200,2.037231201171875,0.29074451327323914,-0.08481260389089584,-1.329514980316162
1789453813630171400,2.04717138671875,-0.20172323286533356,0.08351275324821472,-1.532623052597046
1789453813640110300,2.0571103515625,-0.5084937810897827,0.4015919864177704,-1.6432416439056396
1789453813650050000,2.067050048828125,-0.7184997200965881,0.6898610591888428,-1.5709762573242188
1789453813659989000,2.076989013671875,-1.177121639251709,0.7542631030082703,-1.6955366134643555
1789453813669928200,2.08692822265625,-1.5777866840362549,0.7409536838531494,-1.9133321046829224
1789453813679868200,2.0968681640625,-1.9129152297973633,0.6188320517539978,-1.8184412717819214
1789453813689807000,2.10680712890625,-2.133589744567871,0.6180450916290283,-1.5634279251098633
1789453813699746000,2.11674609375,-2.1388487815856934,0.6715080142021179,-1.3318969011306763
1789453813709686300,2.126686279296875,-1.9641450643539429,0.6213170289993286,-1.4751838445663452
1789453813719625200,2.136625244140625,-1.8563603162765503,0.13461101055145264,-1.6627917289733887
1789453813729564200,2.146564208984375,-1.728176236152649,-0.4599711298942566,-1.6451187133789062
1789453813739504400,2.15650439453125,-1.718559980392456,-1.0842094421386719,-1.5352681875228882
1789453813749443300,2.166443359375,-1.6530648469924927,-2.1598310470581055,-1.2933738231658936
1789453813759383300,2.17638330078125,-1.5498906373977661,-3.2886314392089844,-0.6981358528137207
1789453813769322200,2.186322265625,-1.9281647205352783,-3.9456043243408203,-0.0187059473246336
1789453813779261200,2.19626123046875,-2.626648426055908,-4.2634429931640625,0.5084890723228455
1789453813789201200,2.206201171875,-2.7579431533813477,-4.491568088531494,0.7431015372276306
1789453813799140000,2.21614013671875,-2.7329745292663574,-3.810657024383545,0.5816599130630493
1789453813809079300,2.226079345703125,-2.9926040172576904,-2.664607524871826,0.6218398213386536
1789453813819019300,2.236019287109375,-3.510136127471924,-1.8354984521865845,0.28741514682769775
1789453813828958200,2.245958251953125,-4.219624996185303,-2.120608329772949,0.029753781855106354
1789453813838897200,2.255897216796875,-5.33596134185791,-2.138619899749756,0.7063472270965576
1789453813848837000,2.265837158203125,-5.21471643447876,-2.157928228378296,0.8873851895332336
1789453813858776300,2.2757763671875,-4.04190731048584,-0.9842929244041443,0.573172926902771
1789453813868716300,2.28571630859375,-2.7533016204833984,0.5063891410827637,-0.03782068192958832
1789453813878655200,2.2956552734375,-1.789046049118042,-0.33171573281288147,0.35469910502433777
1789453813888594200,2.30559423828125,-1.6319416761398315,-1.290203332901001,1.2668997049331665
1789453813898534400,2.315534423828125,-1.5361336469650269,-2.677799940109253,2.3506267070770264
1789453813908473300,2.325473388671875,-1.1666227579116821,-3.0535197257995605,3.0067086219787598
1789453813918412300,2.335412353515625,-0.7240618467330933,-2.4798853397369385,2.7572977542877197
1789453813928352000,2.34535205078125,-0.41550880670547485,-1.4703805446624756,1.93975031375885
1789453813938291200,2.355291259765625,-0.06254887580871582,-0.4893810451030731,0.9385823607444763
1789453813948231200,2.365231201171875,-0.11769974231719971,0.12970590591430664,0.03527835011482239
1789453813958170000,2.375170166015625,-0.34502696990966797,0.5475178360939026,-0.4928398132324219
1789453813968109000,2.385109130859375,-0.29824188351631165,0.9045944809913635,-0.6831985712051392
1789453813978049300,2.39504931640625,-0.01468011923134327,1.1500136852264404,-0.7201300859451294
1789453813987988200,2.40498828125,0.33000457286834717,0.9368395805358887,-0.6369699835777283
1789453813997927200,2.41492724609375,0.8585679531097412,0.8432987928390503,-0.3556344509124756
1789453814007867400,2.424867431640625,1.5306951999664307,1.0157359838485718,-0.3271830976009369
1789453814017806300,2.434806396484375,2.350696086883545,1.4699846506118774,-0.6651109457015991
1789453814027746300,2.444746337890625,3.189180612564087,1.8778126239776611,-0.8993759155273438
1789453814037685200,2.454685302734375,3.3940558433532715,1.0889264345169067,-0.5885892510414124
1789453814047624200,2.464624267578125,3.124880075454712,0.8032546639442444,-0.35372936725616455
1789453814057564200,2.474564208984375,2.921170949935913,0.8140096664428711,-0.39170050621032715
1789453814067503000,2.484503173828125,2.839491128921509,0.8512952327728271,-0.5383296608924866
1789453814077442000,2.494442138671875,3.05012583732605,0.34847530722618103,-1.048943042755127
1789453814087382300,2.50438232421875,2.9635539054870605,1.0628728866577148,-1.1583552360534668
1789453814097321200,2.5143212890625,2.907167673110962,1.5534734725952148,-1.267288088798523
1789453814107261200,2.52426123046875,2.217947483062744,1.85093355178833,-1.560372233390808
1789453814117200100,2.5342001953125,0.9723671078681946,1.5717215538024902,-1.3522874116897583
1789453814127139300,2.544139404296875,0.1496892273426056,0.8132895231246948,-0.6580812335014343
1789453814137079300,2.554079345703125,0.17818069458007812,0.7345943450927734,-0.5632064938545227
1789453814147018200,2.564018310546875,0.19721563160419464,0.6236047148704529,-0.6707212328910828
1789453814156957200,2.573957275390625,0.16931064426898956,0.7815911769866943,-0.7168933749198914
1789453814166897400,2.5838974609375,0.10490955412387848,1.1969321966171265,-0.7024672627449036
1789453814176836400,2.59383642578125,0.04928367957472801,1.381911277770996,-0.7545599341392517
1789453814186776000,2.603776123046875,0.10658984631299973,1.5311822891235352,-0.745643138885498
1789453814196715000,2.613715087890625,0.22853799164295197,1.1292917728424072,-0.9025187492370605
1789453814206654200,2.623654296875,0.49324873089790344,0.5123156905174255,-1.1251145601272583
1789453814216594200,2.63359423828125,0.5288533568382263,0.8257503509521484,-1.0506587028503418
1789453814226533000,2.643533203125,0.48528218269348145,1.8058098554611206,-0.28568464517593384
1789453814236472000,2.65347216796875,0.3787373900413513,0.7408632636070251,-0.3096524775028229
1789453814246412300,2.663412353515625,0.16592098772525787,-1.320196509361267,-0.6933141350746155
1789453814256351200,2.673351318359375,0.454595148563385,-2.7138962745666504,-1.377152442932129
1789453814266291200,2.683291259765625,0.8197440505027771,-2.1322057247161865,-0.5978249311447144
1789453814276230100,2.693230224609375,0.8188369274139404,-1.8862468004226685,0.015995360910892487
1789453814286170000,2.703170166015625,0.3413885831832886,-1.1356995105743408,0.4728875458240509
1789453814296109800,2.71310986328125,-0.07188987731933594,-0.3006443381309509,0.4567963778972626
1789453814306049000,2.723049072265625,-0.14312463998794556,0.3732272982597351,-0.08534437417984009
1789453814315988000,2.732988037109375,-0.0674518346786499,0.06287669390439987,-0.418235182762146
1789453814325928000,2.742927978515625,-0.0413278229534626,0.20883630216121674,-0.5575302243232727
1789453814335867000,2.752866943359375,-0.04165751487016678,0.48112592101097107,-0.6546661853790283
1789453814345807000,2.76280712890625,-0.10791536420583725,0.44841164350509644,-0.5208620429039001
1789453814355746000,2.77274609375,-0.17839017510414124,0.3399316072463989,-0.24088655412197113
1789453814365685000,2.78268505859375,-0.19922487437725067,0.11670222133398056,0.06611838936805725
1789453814375625000,2.792625,-0.11377006024122238,0.051751915365457535,0.3283475637435913
1789453814385564200,2.802564208984375,-0.02884690836071968,0.02934541180729866,0.5950956344604492
1789453814395503000,2.812503173828125,-0.03643152117729187,-0.1466149538755417,0.8792809844017029
1789453814405443000,2.822443115234375,-0.1390247344970703,-0.5231302380561829,1.142660140991211
1789453814415382000,2.832382080078125,-0.42452093958854675,-0.8482968807220459,1.115678310394287
1789453814425322000,2.842322021484375,-0.692413866519928,-1.08632493019104,0.7086794376373291
1789453814435261000,2.852260986328125,-0.610500156879425,-1.5881396532058716,0.7107482552528381
1789453814445200000,2.862199951171875,-0.7749130725860596,-2.771479606628418,0.6966001987457275
1789453814455140000,2.87214013671875,-0.944042980670929,-4.124725341796875,0.6960399150848389
1789453814465079000,2.8820791015625,-1.2318830490112305,-5.006784915924072,0.6576139330863953
1789453814475019000,2.89201904296875,-1.3755708932876587,-5.058259010314941,0.5085496306419373
1789453814484958000,2.9019580078125,-0.7741504311561584,-4.006073951721191,0.3523597717285156
1789453814494897200,2.911897216796875,0.19259577989578247,-1.8672810792922974,0.20340949296951294
1789453814504837000,2.921837158203125,1.0872248411178589,-0.07817606627941132,-0.2583964765071869
1789453814514776000,2.931776123046875,1.0498582124710083,1.721584677696228,-0.47680220007896423
1789453814524715800,2.9417158203125,0.9744814038276672,1.9854620695114136,-0.9950125813484192
1789453814534655000,2.951655029296875,1.037725806236267,2.0159151554107666,-1.3188729286193848
1789453814544594200,2.96159423828125,1.1446243524551392,1.66770339012146,-1.3688069581985474
1789453814554534000,2.971533935546875,1.5018595457077026,0.48761290311813354,-1.1384836435317993
1789453814564472800,2.981472900390625,1.5219322443008423,0.038267582654953,-0.872576892375946
1789453814574412000,2.991412109375,1.1408710479736328,0.20902380347251892,-0.8261575698852539
1789453814584352000,3.00135205078125,1.4999312162399292,1.0916558504104614,-0.9641151428222656
1789453814594291000,3.011291015625,1.7358144521713257,2.781440496444702,-0.9693616032600403
1789453814604231200,3.021231201171875,3.3441922664642334,4.175933361053467,-0.27458178997039795
1789453814614170000,3.031170166015625,3.850816249847412,5.402586936950684,-1.0129332542419434
1789453814624109000,3.041109130859375,3.1055381298065186,3.623324394226074,-1.5056430101394653
1789453814634049000,3.051049072265625,2.444444417953491,1.2968275547027588,-2.1520802974700928
1789453814643988000,3.060988037109375,2.813429117202759,1.1927794218063354,-2.192272424697876
1789453814653928000,3.070927978515625,3.218881607055664,1.7604252099990845,-1.516261339187622
1789453814663867000,3.080866943359375,2.4291329383850098,0.37685632705688477,-1.9469330310821533
1789453814673806000,3.09080615234375,1.4729664325714111,-1.0643173456192017,-2.3490867614746094
1789453814683746000,3.10074609375,1.2872413396835327,-1.0723457336425781,-2.1532411575317383
1789453814693685000,3.11068505859375,1.729705810546875,-1.3804571628570557,-1.9691969156265259
1789453814703625000,3.120625,1.8341400623321533,-2.1491281986236572,-1.7319766283035278
1789453814713564000,3.13056396484375,1.6307451725006104,-1.747174859046936,-1.4593464136123657
1789453814723503000,3.140503173828125,1.7844247817993164,-1.0212714672088623,-0.7160353660583496
1789453814733443000,3.150443115234375,2.0095534324645996,-0.01969495788216591,0.12726184725761414
1789453814743382000,3.160382080078125,2.2703170776367188,0.48309680819511414,1.0284976959228516
1789453814753322200,3.170322265625,2.1343469619750977,1.3305150270462036,1.2681171894073486
1789453814763261200,3.18026123046875,1.4765040874481201,1.0635600090026855,0.25820714235305786
1789453814773200100,3.1902001953125,1.2633856534957886,0.9659992456436157,0.6206152439117432
1789453814783139800,3.200139892578125,0.21677666902542114,0.17812566459178925,-0.22582761943340302
1789453814793078800,3.210078857421875,-0.3169049918651581,-0.339005708694458,-0.7346387505531311
1789453814803019000,3.22001904296875,-0.5172072052955627,-0.40541428327560425,-0.9953065514564514
1789453814812958000,3.2299580078125,-0.7168920636177063,-0.47597625851631165,-1.3031338453292847
1789453814822897000,3.23989697265625,-0.9246407747268677,-0.5355298519134521,-1.7536128759384155
1789453814832837000,3.249837158203125,-1.1483529806137085,-0.6809133887290955,-2.039179563522339
1789453814842776000,3.259776123046875,-1.4150546789169312,-1.0786677598953247,-2.2935311794281006
1789453814852716000,3.269716064453125,-1.6559425592422485,-1.4385054111480713,-2.5551958084106445
1789453814862655000,3.279655029296875,-1.8225771188735962,-1.2257134914398193,-2.3459017276763916
1789453814872594200,3.28959423828125,-1.808792233467102,-0.8752830624580383,-1.9705135822296143
1789453814882534100,3.2995341796875,-1.837572693824768,0.13958531618118286,-1.3706239461898804
1789453814892473000,3.30947314453125,-1.2713274955749512,0.49922531843185425,-1.3366124629974365
1789453814902413000,3.3194130859375,-0.7899984121322632,-0.05867021158337593,-1.0774024724960327
1789453814912352000,3.32935205078125,-0.580325722694397,-0.32013624906539917,-0.49078792333602905
1789453814922291000,3.339291015625,-0.32612380385398865,-0.31284719705581665,-0.310425341129303
1789453814932231000,3.34923095703125,-0.24200525879859924,-0.34527677297592163,-0.5902585387229919
1789453814942169900,3.359169921875,-0.25677594542503357,-0.3924371004104614,-0.8831140995025635
1789453814952110000,3.369110107421875,-0.351178377866745,-0.1798403412103653,-0.8201239705085754
1789453814962049000,3.379049072265625,-0.3854082524776459,-0.11630584299564362,-0.8008192777633667
1789453814971988000,3.388988037109375,-0.34420046210289,-0.1871235966682434,-0.8628369569778442
1789453814981928200,3.39892822265625,-0.30383679270744324,-0.2335566133260727,-0.8130542039871216
1789453814991867100,3.4088671875,-0.2696014642715454,-0.26037946343421936,-0.6890887022018433
1789453815001806800,3.418806884765625,-0.23806537687778473,-0.5210944414138794,-0.8527591228485107
1789453815011746000,3.42874609375,-0.23083467781543732,-0.5210054516792297,-0.8615142107009888
1789453815021685200,3.438685302734375,-0.29691967368125916,-0.32314586639404297,-0.721551239490509
1789453815031625000,3.448625,-0.33971288800239563,-0.23559604585170746,-0.6215972304344177
1789453815041564000,3.45856396484375,-0.3683679699897766,-0.12108170986175537,-0.550592839717865
1789453815051503900,3.46850390625,-0.3416270315647125,-0.1745871752500534,-0.5221205353736877
1789453815061443000,3.478443115234375,-0.3482731878757477,-0.23823300004005432,-0.5252074003219604
1789453815071382000,3.488382080078125,-0.44786301255226135,-0.1597958654165268,-0.44144806265830994
1789453815081322000,3.498322021484375,-0.5608393549919128,-0.039436161518096924,-0.2804506719112396
1789453815091261000,3.508260986328125,-0.6114276051521301,0.01771906018257141,-0.17919346690177917
1789453815101201200,3.518201171875,-0.6345440745353699,-0.037068821489810944,-0.15754781663417816
1789453815111140000,3.52814013671875,-0.6594640016555786,-0.20999298989772797,-0.21190713346004486
1789453815121079000,3.5380791015625,-0.6507301330566406,-0.3727933466434479,-0.29794052243232727
1789453815131019000,3.54801904296875,-0.6292101740837097,-0.35935503244400024,-0.26457077264785767
1789453815140958000,3.5579580078125,-0.6097842454910278,-0.31603550910949707,-0.13604636490345
1789453815150898000,3.56789794921875,-0.6550469994544983,-0.28579652309417725,-0.04651652276515961
1789453815160836900,3.5778369140625,-0.6730137467384338,-0.3653685748577118,-0.10282693058252335
1789453815170777000,3.587777099609375,-0.7136196494102478,-0.2825266122817993,-0.10338067263364792
1789453815180716000,3.597716064453125,-0.6961749196052551,-0.2733334004878998,-0.03565329313278198
1789453815190655000,3.607655029296875,-0.7555275559425354,-0.25175952911376953,0.03822154551744461
1789453815200595000,3.617594970703125,-0.7660741806030273,-0.3489031195640564,-0.022093195468187332
1789453815210534100,3.6275341796875,-0.7741130590438843,-0.15619558095932007,-0.001906039658933878
1789453815220474000,3.63747412109375,-0.686120331287384,-0.11192824691534042,0.07872168719768524
1789453815230413000,3.6474130859375,-0.6629511713981628,0.0693126767873764,0.12403713166713715
1789453815240352000,3.65735205078125,-0.6922627687454224,0.3493075668811798,0.11587560176849365
1789453815250292000,3.6672919921875,-0.6782142519950867,0.2555852234363556,0.05302371084690094
1789453815260231000,3.67723095703125,-0.5450439453125,0.1938670128583908,0.06089814752340317
1789453815270171400,3.68717138671875,-0.46066680550575256,0.32704055309295654,0.1817096620798111
1789453815280110600,3.697110595703125,-0.5006256699562073,0.45316892862319946,0.38303321599960327
1789453815290050600,3.707050537109375,-0.4924479126930237,0.373347669839859,0.2877381443977356
1789453815299989500,3.716989501953125,-0.5068297982215881,0.2654038965702057,0.29906246066093445
1789453815309928400,3.726928466796875,-0.4213868975639343,0.2352319061756134,0.39017894864082336
1789453815319868700,3.73686865234375,-0.2931887209415436,0.2544335424900055,0.41374659538269043
1789453815329807600,3.7468076171875,-0.21338622272014618,0.37644848227500916,0.468262642621994
1789453815339747300,3.756747314453125,-0.18686646223068237,0.3941020369529724,0.5245776176452637
1789453815349686500,3.7666865234375,-0.22242049872875214,0.23543794453144073,0.5251410603523254
1789453815359625500,3.77662548828125,-0.28996041417121887,0.14517968893051147,0.5381761193275452
1789453815369565400,3.7865654296875,-0.3362762928009033,0.09039144963026047,0.5316511392593384
1789453815379504400,3.79650439453125,-0.34669244289398193,0.09274301677942276,0.49178704619407654
1789453815389444600,3.806444580078125,-0.320272833108902,0.17003540694713593,0.5219108462333679
1789453815399383600,3.816383544921875,-0.3177580237388611,0.08997572958469391,0.4861353039741516
1789453815409323500,3.826323486328125,-0.3164225220680237,0.09918671101331711,0.4718002676963806
1789453815419262500,3.836262451171875,-0.30673661828041077,0.0294457096606493,0.4088117182254791
1789453815429201700,3.84620166015625,-0.20559526979923248,0.0483124777674675,0.3675512671470642
1789453815439141600,3.8561416015625,-0.07156208902597427,0.0250319205224514,0.2819112241268158
1789453815449080600,3.86608056640625,0.008333991281688213,0.028408370912075043,0.23502376675605774
1789453815459020500,3.8760205078125,0.0938132032752037,0.07370235025882721,0.21531158685684204
1789453815468959500,3.88595947265625,0.1651989221572876,0.09067825973033905,0.21220384538173676
1789453815478899500,3.8958994140625,0.2800341546535492,0.20874790847301483,0.20925411581993103
1789453815488838400,3.90583837890625,0.37057220935821533,0.21902330219745636,0.190174400806427
1789453815498777600,3.915777587890625,0.407131552696228,0.18508930504322052,0.1872137486934662
1789453815508717600,3.925717529296875,0.40326687693595886,0.06867911666631699,0.14128020405769348
1789453815518656500,3.935656494140625,0.39117637276649475,0.011557774618268013,0.1525280624628067
1789453815528596500,3.945596435546875,0.40589839220046997,0.08725787699222565,0.1833125501871109
1789453815538535700,3.95553564453125,0.4005046784877777,0.14400184154510498,0.24761269986629486
1789453815548475400,3.965475341796875,0.4371708035469055,0.22363124787807465,0.3438073992729187
1789453815558414300,3.975414306640625,0.4371119439601898,0.191829651594162,0.4246250092983246
1789453815568353500,3.985353515625,0.4277437627315521,0.018535271286964417,0.40182945132255554
1789453815578293500,3.99529345703125,0.4577959477901459,-0.07001190632581711,0.3936764597892761
1789453815588232400,4.005232421875,0.47125473618507385,-0.1928250789642334,0.3990000784397125
1789453815598172400,4.01517236328125,0.23295028507709503,-0.19508105516433716,0.4121329188346863
1789453815608111600,4.025111572265625,0.2931130826473236,-0.035642996430397034,0.5019301176071167
1789453815618051600,4.035051513671875,0.4195706248283386,0.014554660767316818,0.49172040820121765
1789453815627990500,4.044990478515625,0.5010011196136475,0.035719797015190125,0.5250875949859619
1789453815637930500,4.054930419921875,0.5420370101928711,0.0557829849421978,0.6105942726135254
1789453815647869700,4.06486962890625,0.5992722511291504,0.015152784064412117,0.6214581727981567
1789453815657808600,4.07480859375,0.6183884739875793,-0.0469990000128746,0.5905658006668091
1789453815667748400,4.084748291015625,0.6300464272499084,-0.08038293570280075,0.5866209864616394
1789453815677687300,4.094687255859375,0.6061410903930664,-0.0686732828617096,0.5792195200920105
1789453815687627500,4.10462744140625,0.5579509735107422,-0.09029603749513626,0.5881555080413818
1789453815697566500,4.11456640625,0.5799785256385803,-0.10639617592096329,0.6151331067085266
1789453815707505400,4.12450537109375,0.6199526786804199,-0.15599079430103302,0.6012178063392639
1789453815717445600,4.134445556640625,0.6117054224014282,-0.1288268119096756,0.556763231754303
1789453815727384600,4.144384521484375,0.647005558013916,0.02306935004889965,0.5764702558517456
1789453815737324500,4.154324462890625,0.6646124720573425,0.08085435628890991,0.6289121508598328
1789453815747263500,4.164263427734375,0.706540584564209,0.1421867161989212,0.7107996940612793
1789453815757203500,4.174203369140625,0.81927490234375,0.11955037713050842,0.6524085998535156
1789453815767142700,4.184142578125,0.8550249934196472,0.06955532729625702,0.48103946447372437
1789453815777082400,4.194082275390625,0.8628416657447815,0.15869133174419403,0.43425998091697693
1789453815787021300,4.204021240234375,0.83404940366745,0.18007388710975647,0.3974306583404541
1789453815796960500,4.21396044921875,0.8257416486740112,0.11352549493312836,0.3618992865085602
1789453815806900500,4.223900390625,0.8893304467201233,0.06078556925058365,0.35476794838905334
1789453815816839400,4.23383935546875,0.9991322755813599,0.1719120889902115,0.29220256209373474
1789453815826779600,4.243779541015625,1.0269536972045898,0.3101745545864105,0.30376866459846497
1789453815836718600,4.253718505859375,1.0531033277511597,0.2828198969364166,0.3661345839500427
1789453815846658600,4.263658447265625,1.022093415260315,0.09636787325143814,0.3655673861503601
1789453815856597500,4.273597412109375,0.9564704895019531,0.04496539384126663,0.39866676926612854
1789453815866537500,4.283537353515625,0.9659110307693481,0.11480323225259781,0.4613981246948242
1789453815876476400,4.293476318359375,1.0126559734344482,0.1696968376636505,0.4755544364452362
1789453815886415400,4.303415283203125,1.0621397495269775,0.13019229471683502,0.5137776732444763
1789453815896355600,4.31335546875,1.0351346731185913,-0.05633123964071274,0.5168086290359497
1789453815906294500,4.32329443359375,0.9088200926780701,-0.15310952067375183,0.6136743426322937
1789453815916234500,4.333234375,0.8462187647819519,-0.07825738191604614,0.7526980042457581
1789453815926173400,4.34317333984375,0.7996569275856018,-0.0350310280919075,0.7603078484535217
1789453815936113700,4.35311376953125,0.7887789607048035,0.021399758756160736,0.8066340684890747
1789453815946052600,4.363052490234375,0.8091318011283875,0.0044359201565384865,0.7817485928535461
1789453815955992600,4.37299267578125,0.7870344519615173,0.051156021654605865,0.7593045234680176
1789453815965931500,4.382931640625,0.7749238610267639,0.07196972519159317,0.7505223751068115
1789453815975870700,4.39287060546875,0.7677226662635803,0.04121926799416542,0.5990537405014038
1789453815985810400,4.402810546875,0.732811689376831,0.04228753596544266,0.5114680528640747
1789453815995749400,4.412749267578125,0.6730834245681763,0.020918596535921097,0.4625582695007324
1789453816005689600,4.422689697265625,0.6410742402076721,0.03211858868598938,0.41367068886756897
1789453816015628500,4.432628662109375,0.6005768775939941,0.03664463013410568,0.4658569097518921
1789453816025568500,4.442568603515625,0.6341570019721985,-0.04639560356736183,0.41306066513061523
1789453816035507500,4.452507568359375,0.6484821438789368,0.0027338573709130287,0.3952814042568207
1789453816045446400,4.4624462890625,0.623249888420105,0.021609880030155182,0.4331236183643341
1789453816055386600,4.47238671875,0.6236230134963989,0.027895208448171616,0.48042774200439453
1789453816065325600,4.48232568359375,0.6244431138038635,0.0045235902070999146,0.49507641792297363
1789453816075265300,4.492265380859375,0.6051549315452576,-0.015442128293216228,0.44516265392303467
1789453816085204500,4.50220458984375,0.5748262405395508,-0.09164116531610489,0.3448601961135864
1789453816095144400,4.51214453125,0.5369097590446472,-0.11062151193618774,0.3092587888240814
1789453816105083400,4.52208349609375,0.5286583304405212,-0.09854299575090408,0.3703247308731079
1789453816115023600,4.532023681640625,0.5725546479225159,-0.017493419349193573,0.3379231095314026
1789453816124962600,4.541962646484375,0.5998218059539795,0.12388160824775696,0.18721334636211395
1789453816134901500,4.551901611328125,0.6768656969070435,0.14084993302822113,0.04410625621676445
1789453816144841500,4.561841552734375,0.7485507130622864,0.18287140130996704,0.0696851909160614
1789453816154780700,4.57178076171875,0.7292241454124451,0.18012303113937378,0.11678691953420639
1789453816164720600,4.581720703125,0.6501821875572205,0.2204652726650238,0.09668327867984772
1789453816174659600,4.59165966796875,0.6011342406272888,0.25833356380462646,0.06341400742530823
1789453816184599300,4.601599365234375,0.6039462685585022,0.2879589796066284,0.07876163721084595
1789453816194538500,4.61153857421875,0.6237056255340576,0.2158978283405304,0.05347199738025665
1789453816204478500,4.621478515625,0.6436038613319397,0.22889894247055054,0.07782072573900223
1789453816214417400,4.63141748046875,0.6986455917358398,0.228718101978302,0.0966828316450119
1789453816224357600,4.641357666015625,0.7349608540534973,0.2622606158256531,0.07899612188339233
1789453816234296600,4.651296630859375,0.748504638671875,0.29813551902770996,0.11921677738428116
1789453816244235500,4.661235595703125,0.7854631543159485,0.29050692915916443,0.1398763209581375
1789453816254175500,4.671175537109375,0.83467036485672,0.32476770877838135,0.1601589471101761
1789453816264114700,4.68111474609375,0.833404004573822,0.36510202288627625,0.18113408982753754
1789453816274054100,4.69105419921875,0.8280025720596313,0.424813836812973,0.19063544273376465
1789453816283993000,4.7009931640625,0.8027066588401794,0.47658100724220276,0.18000352382659912
1789453816293933000,4.71093310546875,0.7882829308509827,0.5278050899505615,0.16307701170444489
1789453816303872000,4.7208720703125,0.762893557548523,0.5151799321174622,0.11799725890159607
1789453816313812000,4.73081201171875,0.685040295124054,0.4583435356616974,0.0627121701836586
1789453816323751200,4.740751220703125,0.5842317342758179,0.4588240385055542,0.031137045472860336
1789453816333690000,4.750690185546875,0.5014737248420715,0.4781695008277893,0.018987705931067467
1789453816343630000,4.760630126953125,0.413362979888916,0.5087504982948303,0.014804295264184475
1789453816353569000,4.770569091796875,0.35584455728530884,0.5030689239501953,0.012681490741670132
1789453816363509200,4.78050927734375,0.27626824378967285,0.4928514361381531,0.01059170812368393
1789453816373448200,4.7904482421875,0.23174764215946198,0.43412449955940247,-0.017403975129127502
1789453816383388200,4.80038818359375,0.15696166455745697,0.296706885099411,-0.05340695008635521
1789453816393327000,4.8103271484375,0.14192599058151245,0.2312122881412506,-0.05677717924118042
1789453816403267000,4.82026708984375,0.12717680633068085,0.18876999616622925,-0.05202843248844147
1789453816413206000,4.8302060546875,0.07360385358333588,0.11335115134716034,-0.08233759552240372
1789453816423146000,4.84014599609375,0.029793033376336098,0.16716869175434113,-0.10036462545394897
1789453816433085200,4.850085205078125,0.017567792907357216,0.2770901024341583,-0.08279415220022202
1789453816443024100,4.860024169921875,-0.02269626408815384,0.28897494077682495,-0.06412417441606522
1789453816452964000,4.869964111328125,-0.01825437881052494,0.33679601550102234,-0.06649837642908096
1789453816462903000,4.879903076171875,-0.016794942319393158,0.33742663264274597,-0.08528027683496475
1789453816472843300,4.88984326171875,-0.022312479093670845,0.2831817865371704,-0.1225229874253273
1789453816482782200,4.8997822265625,-0.048919323831796646,0.1962631344795227,-0.17870371043682098
1789453816492722000,4.909721923828125,-0.10697223991155624,0.18241655826568604,-0.2152388095855713
1789453816502660900,4.919660888671875,-0.1934758573770523,0.18466970324516296,-0.2384771853685379
1789453816512601000,4.92960107421875,-0.27685704827308655,0.1352880448102951,-0.27594760060310364
1789453816522540000,4.9395400390625,-0.3557155132293701,0.06904371082782745,-0.33379656076431274
1789453816532480000,4.94947998046875,-0.4333876669406891,0.03296693414449692,-0.35679110884666443
1789453816542419200,4.959419189453125,-0.47754546999931335,0.06609054654836655,-0.3605952262878418
1789453816552359200,4.969359130859375,-0.4881003499031067,0.13772904872894287,-0.3616405129432678
1789453816562298000,4.979298095703125,-0.48500722646713257,0.2258843183517456,-0.3709791600704193
1789453816572237000,4.989237060546875,-0.4620228111743927,0.2811813950538635,-0.36760175228118896
1789453816582177300,4.99917724609375,-0.4289633333683014,0.31223100423812866,-0.3399519622325897
1789453816592116200,5.0091162109375,-0.41589173674583435,0.30056291818618774,-0.3240784704685211
1789453816602056000,5.019055908203125,-0.3983609080314636,0.26216182112693787,-0.3195578455924988
1789453816611995000,5.028994873046875,-0.41689491271972656,0.20813773572444916,-0.3288962244987488
1789453816621935000,5.03893505859375,-0.4570850431919098,0.19294577836990356,-0.3397117257118225
1789453816631874000,5.0488740234375,-0.49960318207740784,0.15287025272846222,-0.32275936007499695
1789453816641814000,5.05881396484375,-0.5383878350257874,0.1550339311361313,-0.2826032042503357
1789453816651753200,5.068753173828125,-0.5476471185684204,0.15586963295936584,-0.2289743274450302
1789453816661693200,5.078693115234375,-0.5434172749519348,0.10804793983697891,-0.19366899132728577
1789453816671632100,5.088632080078125,-0.4937330484390259,0.02246220037341118,-0.1581733077764511
1789453816681571000,5.098571044921875,-0.4413171410560608,-0.09194116294384003,-0.17532947659492493
1789453816691511000,5.108510986328125,-0.43288612365722656,-0.1317378431558609,-0.23700109124183655
1789453816701450000,5.118449951171875,-0.4705624282360077,-0.11860380321741104,-0.29751646518707275
1789453816711390000,5.128389892578125,-0.4994705319404602,-0.10685500502586365,-0.29543814063072205
1789453816721329200,5.1383291015625,-0.5336533784866333,-0.0649561956524849,-0.22810447216033936
1789453816731269000,5.14826904296875,-0.5768117904663086,-0.04921238496899605,-0.16835591197013855
1789453816741208000,5.1582080078125,-0.6079314351081848,-0.029088161885738373,-0.15129631757736206
1789453816751148000,5.16814794921875,-0.6103357672691345,-0.006436911877244711,-0.15786340832710266
1789453816761087200,5.178087158203125,-0.6009959578514099,0.022233933210372925,-0.1537250131368637
1789453816771027200,5.188027099609375,-0.5957809686660767,0.030541397631168365,-0.12721110880374908
1789453816780966100,5.197966064453125,-0.5802777409553528,0.056631218641996384,-0.10959106683731079
1789453816790906000,5.207906005859375,-0.5634843707084656,0.12309759855270386,-0.10049451142549515
1789453816800845000,5.217844970703125,-0.5175850987434387,0.15162111818790436,-0.10205645114183426
1789453816810784000,5.227783935546875,-0.47527068853378296,0.06015405058860779,-0.12724941968917847
1789453816820724000,5.237723876953125,-0.46182164549827576,-0.02330850064754486,-0.15348027646541595
1789453816830663200,5.2476630859375,-0.46888089179992676,-0.0063686678186059,-0.17438209056854248
1789453816840603100,5.25760302734375,-0.4647779166698456,0.057959672063589096,-0.1861441284418106
1789453816850542000,5.2675419921875,-0.45914319157600403,0.036640267819166183,-0.18820461630821228
1789453816860482000,5.27748193359375,-0.4568594694137573,0.03402349725365639,-0.1781577169895172
1789453816870421200,5.287421142578125,-0.44058728218078613,0.08743319660425186,-0.18225179612636566
1789453816880361000,5.29736083984375,-0.3828316628932953,0.12099117040634155,-0.22575479745864868
1789453816890300200,5.307300048828125,-0.36023128032684326,0.09591484814882278,-0.3038879632949829
1789453816900240100,5.317240234375,-0.3860263526439667,0.07869895547628403,-0.3778093755245209
1789453816910179000,5.327178955078125,-0.4083159267902374,0.10625840723514557,-0.42980122566223145
1789453816920119000,5.337119140625,-0.4417532682418823,0.1042867973446846,-0.45838263630867004
1789453816930058000,5.34705810546875,-0.46758273243904114,0.14208984375,-0.44880643486976624
1789453816939997200,5.3569970703125,-0.5026674866676331,0.10681163519620895,-0.44185924530029297
1789453816949937200,5.366937255859375,-0.5347002744674683,0.09085451066493988,-0.4303562641143799
1789453816959876000,5.3768759765625,-0.5739294290542603,0.07051055878400803,-0.41587623953819275
1789453816969816300,5.38681640625,-0.5980899333953857,0.09520365297794342,-0.3997337520122528
1789453816979755300,5.39675537109375,-0.6146513223648071,0.15084989368915558,-0.3681611120700836
1789453816989695000,5.406695068359375,-0.5942147970199585,0.1788322627544403,-0.35065534710884094
1789453816999634000,5.416634033203125,-0.584523618221283,0.1348002701997757,-0.37012016773223877
1789453817009574100,5.42657421875,-0.5467724800109863,0.04744378849864006,-0.3978878855705261
1789453817019513000,5.43651318359375,-0.548206090927124,-0.039573609828948975,-0.4305099844932556
1789453817029453000,5.446453125,-0.5277660489082336,-0.007454291917383671,-0.4438798427581787
1789453817039392000,5.45639208984375,-0.517503559589386,-0.02770509198307991,-0.4528425931930542
1789453817049332200,5.466332275390625,-0.5020148754119873,-0.028695788234472275,-0.4713558256626129
1789453817059271200,5.476271240234375,-0.5126391053199768,-0.03630328178405762,-0.47897225618362427
1789453817069210000,5.486210205078125,-0.5062706470489502,0.03312186151742935,-0.44309574365615845
1789453817079150000,5.496150146484375,-0.4595514237880707,0.09904759377241135,-0.4097544550895691
1789453817089089300,5.50608935546875,-0.461505651473999,0.0616978295147419,-0.40583643317222595
1789453817099029000,5.516029052734375,-0.4243048429489136,0.08372747898101807,-0.4093852937221527
1789453817108968000,5.525968017578125,-0.45398151874542236,0.02586684189736843,-0.4558885991573334
1789453817118908200,5.535908203125,-0.48184266686439514,0.010762900114059448,-0.4734441637992859
1789453817128847000,5.54584716796875,-0.5141337513923645,0.003796336706727743,-0.49924564361572266
1789453817138787000,5.555787109375,-0.5323746204376221,0.004392723087221384,-0.5366625785827637
1789453817148726000,5.56572607421875,-0.546201229095459,-0.010995287448167801,-0.5575588345527649
1789453817158666200,5.575666259765625,-0.5470983982086182,-0.051527224481105804,-0.5646206140518188
1789453817168605200,5.585605224609375,-0.5330864787101746,-0.059712983667850494,-0.5388489365577698
1789453817178545000,5.595544921875,-0.49371278285980225,-0.10277897864580154,-0.5181936621665955
1789453817188484000,5.605484130859375,-0.47673726081848145,-0.0658465251326561,-0.45527729392051697
1789453817198424000,5.615424072265625,-0.41407012939453125,-0.09701835364103317,-0.4477344751358032
1789453817208363000,5.625363037109375,-0.3877626359462738,-0.05735083669424057,-0.44871798157691956
1789453817218302000,5.635302001953125,-0.3679967224597931,-0.12752118706703186,-0.502862274646759
1789453817228242200,5.6452421875,-0.3833213448524475,-0.19515882432460785,-0.5496042370796204
1789453817238181000,5.65518115234375,-0.4193238615989685,-0.22479598224163055,-0.562106728553772
1789453817248121000,5.66512109375,-0.4540940821170807,-0.25599172711372375,-0.5817025303840637
1789453817258060000,5.67506005859375,-0.46894165873527527,-0.20189012587070465,-0.5906119346618652
1789453817268000000,5.685,-0.46827054023742676,-0.14499542117118835,-0.6036548018455505
1789453817277939200,5.694939208984375,-0.4183345437049866,-0.12889693677425385,-0.5968185067176819
1789453817287879000,5.70487890625,-0.38051873445510864,-0.13361100852489471,-0.5655196905136108
1789453817297817900,5.71481787109375,-0.32613125443458557,-0.17397956550121307,-0.5628325343132019
1789453817307757800,5.7247578125,-0.35003021359443665,-0.21735021471977234,-0.5902412533760071
1789453817317697000,5.734697021484375,-0.37799251079559326,-0.27036741375923157,-0.6263067126274109
1789453817327637000,5.744636962890625,-0.38410019874572754,-0.2785550355911255,-0.642662525177002
1789453817337576000,5.754575927734375,-0.4303465485572815,-0.27060216665267944,-0.6370531320571899
1789453817347516200,5.76451611328125,-0.46352794766426086,-0.2552647590637207,-0.6183760762214661
1789453817357455000,5.774455078125,-0.4529935419559479,-0.25115495920181274,-0.6215903759002686
1789453817367394000,5.78439404296875,-0.4947876036167145,-0.1190565750002861,-0.6036608815193176
1789453817377333800,5.794333740234375,-0.40155526995658875,-0.17335134744644165,-0.6342983841896057
1789453817387273000,5.80427294921875,-0.3953312039375305,-0.034544993191957474,-0.6141344904899597
1789453817397213000,5.814212890625,-0.3367462754249573,-0.002857123501598835,-0.6297653317451477
1789453817407151900,5.82415185546875,-0.30230653285980225,0.0799378901720047,-0.6365596055984497
1789453817417092000,5.834092041015625,-0.34088101983070374,0.1578095406293869,-0.6080382466316223
1789453817427031000,5.844031005859375,-0.3279004991054535,0.008540160022675991,-0.6359995603561401
1789453817436971000,5.853970947265625,-0.4127900302410126,0.08174464851617813,-0.6116573810577393
1789453817446910000,5.863909912109375,-0.4407987594604492,0.07249469310045242,-0.6502130031585693
1789453817456850200,5.87385009765625,-0.4164510667324066,-0.005864766892045736,-0.716292142868042
1789453817466789000,5.8837890625,-0.4239068627357483,-0.03358427807688713,-0.7558323740959167
1789453817476728800,5.893728759765625,-0.42128247022628784,-0.0033921527210623026,-0.7610567808151245
1789453817486667800,5.903667724609375,-0.4240665137767792,0.07334017008543015,-0.7824579477310181
1789453817496608000,5.91360791015625,-0.365989089012146,0.10392654687166214,-0.8122748732566833
1789453817506547000,5.923546875,-0.27047669887542725,0.06384623795747757,-0.8436141610145569
1789453817516487000,5.93348681640625,-0.24101413786411285,0.10233903676271439,-0.7945922613143921
1789453817526426000,5.943426025390625,-0.2681754231452942,0.17924952507019043,-0.7571895122528076
1789453817536365000,5.953364990234375,-0.3198795020580292,0.23680344223976135,-0.7614886164665222
1789453817546305000,5.963304931640625,-0.3591848313808441,0.2626883089542389,-0.72637939453125
1789453817556244000,5.973243896484375,-0.3268548846244812,0.23972396552562714,-0.7433748841285706
1789453817566184000,5.983183837890625,-0.35291391611099243,0.3373463749885559,-0.700232744216919
1789453817576123000,5.993122802734375,-0.4982057809829712,0.7826314568519592,-0.5494630932807922
1789453817586062800,6.003062744140625,-0.4036867618560791,0.5104643702507019,-0.5789429545402527
1789453817596001800,6.013001708984375,-0.33803296089172363,0.40339353680610657,-0.47575843334198
1789453817605942000,6.02294189453125,-0.28743448853492737,0.29838827252388,-0.35600167512893677
1789453817615881000,6.032880859375,-0.2784804701805115,0.22280797362327576,-0.3242097795009613
1789453817625821000,6.042821044921875,-0.3572317361831665,0.533420979976654,-0.11006977409124374
1789453817635760000,6.052760009765625,-0.2166934460401535,0.22410538792610168,-0.14196011424064636
1789453817645700000,6.0627001953125,-0.18827217817306519,0.29576921463012695,-0.1415955275297165
1789453817655639000,6.07263916015625,-0.169963538646698,0.3241017162799835,-0.0631684809923172
1789453817665579000,6.0825791015625,-0.15877561271190643,0.3136754333972931,0.028305506333708763
1789453817675518000,6.09251806640625,-0.14518381655216217,0.2679401636123657,0.09934533387422562
1789453817685458000,6.1024580078125,-0.11252174526453018,0.24243080615997314,0.19817018508911133
1789453817695396900,6.11239697265625,-0.12652228772640228,0.24048550426959991,0.1893180012702942
1789453817705335800,6.122335693359375,-0.07572462409734726,0.13268953561782837,0.23659098148345947
1789453817715276000,6.132276123046875,-0.07679731398820877,0.06937175244092941,0.3279549181461334
1789453817725215000,6.142215087890625,-0.06665918976068497,0.04059043526649475,0.39326998591423035
1789453817735155000,6.152155029296875,-0.06596306711435318,-0.007681196555495262,0.3827727735042572
1789453817745094100,6.16209423828125,-0.06586479395627975,-0.052513912320137024,0.4407718777656555
1789453817755033900,6.172033935546875,-0.0514497272670269,-0.061757706105709076,0.49269038438796997
1789453817764972800,6.181972900390625,-0.015167354606091976,-0.060672469437122345,0.5099735260009766
1789453817774913000,6.1919130859375,0.012943243607878685,-0.07970251888036728,0.5142914652824402
1789453817784852000,6.20185205078125,0.04143347591161728,-0.08281681686639786,0.49168920516967773
1789453817794792000,6.2117919921875,0.07024917751550674,-0.06451725959777832,0.46700868010520935
1789453817804731000,6.22173095703125,0.12800301611423492,-0.04948185756802559,0.418319433927536
1789453817814671000,6.231671142578125,0.18770752847194672,0.022293008863925934,0.39973536133766174
1789453817824610000,6.241610107421875,0.2898581624031067,0.09674114733934402,0.366804838180542
1789453817834550000,6.251550048828125,0.40676969289779663,0.1371045708656311,0.33658215403556824
1789453817844489000,6.261489013671875,0.4963970184326172,0.16127488017082214,0.34801268577575684
1789453817854429000,6.271428955078125,0.571175754070282,0.16619834303855896,0.3535265326499939
1789453817864367900,6.281367919921875,0.6409114599227905,0.15516407787799835,0.353821337223053
1789453817874307800,6.291307861328125,0.7003758549690247,0.12557178735733032,0.38254421949386597
1789453817884247000,6.3012470703125,0.7446823120117188,0.08870059251785278,0.39679986238479614
1789453817894186000,6.31118603515625,0.755145788192749,0.07623665779829025,0.44278082251548767
1789453817904126000,6.3211259765625,0.7840237617492676,0.04228854551911354,0.4952144920825958
1789453817914065000,6.33106494140625,0.835795521736145,0.011677351780235767,0.5418741703033447
1789453817924005000,6.341005126953125,0.8722872138023376,-0.009120071306824684,0.6092811822891235
1789453817933944000,6.350944091796875,0.9027329683303833,-0.04340808466076851,0.6991567015647888
1789453817943883800,6.3608837890625,0.9416284561157227,-0.10251987725496292,0.7379437685012817
1789453817953823000,6.370822998046875,0.9389125108718872,-0.13135264813899994,0.7671983242034912
1789453817963763000,6.380762939453125,0.9255263805389404,-0.15296046435832977,0.8070098757743835
1789453817973702000,6.390701904296875,0.9345377087593079,-0.18313317000865936,0.8461084365844727
1789453817983641900,6.400641845703125,0.9295480251312256,-0.21839261054992676,0.8875818848609924
1789453817993581000,6.4105810546875,0.9026586413383484,-0.2011859267950058,0.9144614338874817
1789453818003521000,6.42052099609375,0.9003642797470093,-0.17124934494495392,0.9030007719993591
1789453818013460000,6.4304599609375,0.9293502569198608,-0.1599481850862503,0.8833510875701904
1789453818023400200,6.440400146484375,0.9640677571296692,-0.15910769999027252,0.8754875659942627
1789453818033339100,6.450339111328125,1.0034704208374023,-0.16587938368320465,0.8923474550247192
1789453818043278800,6.46027880859375,1.0450814962387085,-0.2078271061182022,0.8780220746994019
1789453818053217800,6.4702177734375,1.0981805324554443,-0.2537832260131836,0.8367987275123596
1789453818063158000,6.480157958984375,1.1394950151443481,-0.24893096089363098,0.8276795148849487
1789453818073097000,6.490096923828125,1.1656174659729004,-0.21686241030693054,0.8326500654220581
1789453818083037000,6.500036865234375,1.1805248260498047,-0.241278275847435,0.7753944993019104
1789453818092975900,6.509975830078125,1.1673249006271362,-0.28530004620552063,0.7178951501846313
1789453818102915000,6.5199150390625,1.1394959688186646,-0.28288906812667847,0.7149821519851685
1789453818112855000,6.52985498046875,1.1427100896835327,-0.24221184849739075,0.7250304818153381
1789453818122794000,6.5397939453125,1.1683847904205322,-0.23287241160869598,0.7178034782409668
1789453818132734000,6.54973388671875,1.1995575428009033,-0.24221296608448029,0.6923741698265076
1789453818142673000,6.5596728515625,1.241058111190796,-0.22008556127548218,0.6634067296981812
1789453818152612900,6.56961279296875,1.2658884525299072,-0.17768795788288116,0.6323239207267761
1789453818162551800,6.5795517578125,1.272402286529541,-0.18235595524311066,0.5744220018386841
1789453818172492000,6.589491943359375,1.2712576389312744,-0.17683084309101105,0.5435543060302734
1789453818182431000,6.599430908203125,1.2497541904449463,-0.16460026800632477,0.5171812772750854
1789453818192371000,6.609370849609375,1.1996937990188599,-0.14353984594345093,0.5095377564430237
1789453818202310100,6.61931005859375,1.143477439880371,-0.14376354217529297,0.48830920457839966
1789453818212250000,6.62925,1.1314162015914917,-0.07355950772762299,0.4533197283744812
1789453818222189000,6.63918896484375,1.1450843811035156,-0.03811921924352646,0.4236561357975006
1789453818232128800,6.649128662109375,1.1363816261291504,-0.05529075115919113,0.3798367381095886
1789453818242068000,6.65906787109375,1.1075718402862549,-0.018804647028446198,0.32896289229393005
1789453818252008000,6.669008056640625,1.0331065654754639,0.005047822371125221,0.30870386958122253
1789453818261947000,6.67894677734375,1.0100618600845337,-0.03228064253926277,0.30971720814704895
1789453818271887000,6.68888720703125,0.9970911741256714,-0.046919822692871094,0.29519352316856384
1789453818281826300,6.698826416015625,1.0195591449737549,-0.08536414802074432,0.27653968334198
1789453818291766500,6.7087666015625,0.8355904817581177,-0.07814057171344757,0.2891947031021118
1789453818301705500,6.71870556640625,0.7536007761955261,-0.09724821895360947,0.262578547000885
1789453818311645200,6.728645263671875,0.6985514760017395,-0.05814870074391365,0.30600523948669434
1789453818321584400,6.73858447265625,0.7116140127182007,-0.07250447571277618,0.37249982357025146
1789453818331523300,6.7485234375,0.8053735494613647,-0.19984547793865204,0.3768870532512665
1789453818341463300,6.75846337890625,0.7956681847572327,-0.21697679162025452,0.41033557057380676
1789453818351402200,6.76840234375,0.7031279802322388,-0.23850493133068085,0.42914170026779175
1789453818361342500,6.778342529296875,0.6249974966049194,-0.2799959182739258,0.3957251310348511
1789453818371281400,6.788281494140625,0.534507155418396,-0.2649863362312317,0.3837062120437622
1789453818381221400,6.798221435546875,0.4764513373374939,-0.25492146611213684,0.3396055996417999
1789453818391160300,6.808160400390625,0.4378933012485504,-0.24598175287246704,0.31245121359825134
1789453818401100300,6.818100341796875,0.39513012766838074,-0.2551313042640686,0.2814951539039612
1789453818411039200,6.828039306640625,0.33104366064071655,-0.25849419832229614,0.263868510723114
1789453818420979200,6.837979248046875,0.2696511447429657,-0.3063890039920807,0.24019356071949005
1789453818430918400,6.84791845703125,0.2270440012216568,-0.304887980222702,0.233102485537529
1789453818440858400,6.8578583984375,0.20190535485744476,-0.3343507945537567,0.2534593939781189
1789453818450797300,6.86779736328125,0.19227689504623413,-0.33655300736427307,0.23527470231056213
1789453818460737300,6.8777373046875,0.19999366998672485,-0.2388285994529724,0.22128857672214508
1789453818470676500,6.887676513671875,0.190036341547966,-0.18961378931999207,0.22708484530448914
1789453818480616400,6.897616455078125,0.1653967797756195,-0.186221182346344,0.2318444401025772
1789453818490555400,6.907555419921875,0.1212468296289444,-0.16529497504234314,0.1990407109260559
1789453818500495400,6.917495361328125,0.06734178960323334,-0.1165897473692894,0.14964866638183594
1789453818510434300,6.927434326171875,0.021656274795532227,-0.11012504994869232,0.09910888969898224
1789453818520374300,6.937374267578125,-0.03682008385658264,-0.10922728478908539,0.03730544447898865
1789453818530313200,6.947313232421875,-0.07541658729314804,-0.11239106208086014,-0.01755482703447342
1789453818540253400,6.95725341796875,-0.11281882226467133,-0.14273564517498016,-0.046590469777584076
1789453818550192400,6.9671923828125,-0.1868678480386734,-0.15594887733459473,-0.06179860234260559
1789453818560132400,6.97713232421875,-0.20966504514217377,-0.16712670028209686,-0.08871276676654816
1789453818570071600,6.987071533203125,-0.3006174862384796,-0.21903307735919952,-0.14200887084007263
1789453818580010500,6.997010498046875,-0.39474451541900635,-0.25591814517974854,-0.19610567390918732
1789453818589950200,7.0069501953125,-0.47757601737976074,-0.24254772067070007,-0.2276420146226883
1789453818599889200,7.01688916015625,-0.5548322200775146,-0.18223245441913605,-0.25962337851524353
1789453818609829400,7.026829345703125,-0.6237568259239197,-0.12422619014978409,-0.30179890990257263
1789453818619768300,7.036768310546875,-0.6693123579025269,-0.11237964779138565,-0.32334575057029724
1789453818629708300,7.046708251953125,-0.7016465663909912,-0.037732429802417755,-0.32875028252601624
1789453818639647200,7.056647216796875,-0.7065025568008423,0.0559927299618721,-0.3400591313838959
1789453818649587500,7.06658740234375,-0.7048012018203735,0.09418944269418716,-0.3516156077384949
1789453818659526400,7.0765263671875,-0.7126657962799072,0.11674641817808151,-0.320376455783844
1789453818669466400,7.08646630859375,-0.7249607443809509,0.13203004002571106,-0.2673438489437103
1789453818679405600,7.096405517578125,-0.7137341499328613,0.08292641490697861,-0.21200336515903473
1789453818689345300,7.10634521484375,-0.677173912525177,-0.01845475658774376,-0.1399461030960083
1789453818699284200,7.1162841796875,-0.595281720161438,-0.1254967898130417,-0.07264403253793716
1789453818709224400,7.126224365234375,-0.5357373356819153,-0.2133655995130539,-0.052495233714580536
1789453818719163400,7.136163330078125,-0.5151047706604004,-0.25880900025367737,-0.058795470744371414
1789453818729103400,7.146103271484375,-0.5130394697189331,-0.24570049345493317,-0.06542984396219254
1789453818739042300,7.156042236328125,-0.5085791945457458,-0.2106676697731018,-0.04691368341445923
1789453818748982500,7.165982421875,-0.5108826756477356,-0.1861380636692047,-0.018084581941366196
1789453818758921500,7.17592138671875,-0.5490934252738953,-0.16743335127830505,-0.010853566229343414
1789453818768861200,7.185861083984375,-0.5999383330345154,-0.143000066280365,-0.008028772659599781
1789453818778800000,7.195800048828125,-0.6372523903846741,-0.13969933986663818,0.01493380032479763
1789453818788740400,7.205740234375,-0.6503355503082275,-0.1475963592529297,0.026450956240296364
1789453818798679300,7.21567919921875,-0.6662372946739197,-0.17191235721111298,-0.012801642529666424
1789453818808619300,7.225619384765625,-0.6661894917488098,-0.12807850539684296,-0.07099112868309021
1789453818818558500,7.235558349609375,-0.6604756712913513,-0.11411847919225693,-0.0770929679274559
1789453818828498400,7.24549853515625,-0.6379302740097046,-0.07103799283504486,-0.06769103556871414
1789453818838437400,7.255437255859375,-0.6271964311599731,0.0076336488127708435,-0.09515035152435303
1789453818848377300,7.26537744140625,-0.6084398031234741,0.0349920429289341,-0.17701920866966248
1789453818858316500,7.275316650390625,-0.5947471261024475,0.019822411239147186,-0.28193336725234985
1789453818868256300,7.28525634765625,-0.605121374130249,0.020024416968226433,-0.36647042632102966
1789453818878195200,7.2951953125,-0.6022207140922546,0.09732719510793686,-0.4066937565803528
1789453818888134100,7.305134033203125,-0.6032266020774841,0.16775934398174286,-0.4452269971370697
1789453818898074400,7.315074462890625,-0.6384756565093994,0.15564487874507904,-0.5049081444740295
1789453818908013300,7.325013427734375,-0.6916060447692871,0.14030972123146057,-0.548094630241394
1789453818917953300,7.334953369140625,-0.7260937094688416,0.14159522950649261,-0.5304772853851318
1789453818927892500,7.344892578125,-0.7242210507392883,0.10604660958051682,-0.5268161296844482
1789453818937832400,7.35483251953125,-0.6964373588562012,0.08383957296609879,-0.5243372321128845
1789453818947771400,7.364771484375,-0.6756581664085388,0.08931472152471542,-0.5454255938529968
1789453818957711400,7.37471142578125,-0.6601990461349487,0.1219291239976883,-0.5607070922851562
1789453818967650300,7.384650390625,-0.6691965460777283,0.14768975973129272,-0.5715239644050598
1789453818977590300,7.39459033203125,-0.6824505925178528,0.15945559740066528,-0.5842727422714233
1789453818987529200,7.404529296875,-0.68283611536026,0.16887988150119781,-0.5989645719528198
1789453818997469400,7.414469482421875,-0.6685871481895447,0.15837423503398895,-0.5936179757118225
1789453819007408400,7.424408447265625,-0.6892129778862,0.08794358372688293,-0.5886258482933044
1789453819017348400,7.434348388671875,-0.7325934767723083,0.051796767860651016,-0.5965802073478699
1789453819027287300,7.444287353515625,-0.7282624840736389,0.11172808706760406,-0.572741687297821
1789453819037227500,7.4542275390625,-0.7121817469596863,0.11747891455888748,-0.5707901120185852
1789453819047166500,7.46416650390625,-0.7150121927261353,0.0704762190580368,-0.5824558138847351
1789453819057106200,7.474106201171875,-0.7105966806411743,0.06886181235313416,-0.5793188214302063
1789453819067045400,7.48404541015625,-0.6890141367912292,0.0422818697988987,-0.5669918656349182
1789453819076985300,7.4939853515625,-0.6874465942382812,0.05046816170215607,-0.5669580698013306
1789453819086924300,7.50392431640625,-0.6790654063224792,0.04987703263759613,-0.5936983227729797
1789453819096864500,7.513864501953125,-0.7299959659576416,0.0074182553216814995,-0.6329562664031982
1789453819106803500,7.523803466796875,-0.7239595055580139,0.09755676984786987,-0.5712481737136841
1789453819116743400,7.533743408203125,-0.8331304788589478,-0.09533412754535675,-0.6411087512969971
1789453819126682400,7.543682373046875,-0.8190086483955383,0.048392824828624725,-0.5601333975791931
1789453819136622300,7.553622314453125,-0.8721221685409546,-0.06859397888183594,-0.5896990299224854
1789453819146561300,7.563561279296875,-0.9759997129440308,-0.09507005661725998,-0.5629014372825623
1789453819156501200,7.573501220703125,-1.0076377391815186,-0.09442024677991867,-0.535203754901886
1789453819166440200,7.583440185546875,-1.0112758874893188,-0.29819628596305847,-0.6225631833076477
1789453819176380400,7.59338037109375,-0.9304644465446472,-0.1556444615125656,-0.5356128215789795
1789453819186319400,7.6033193359375,-0.893520176410675,-0.2403651773929596,-0.5318621397018433
1789453819196259300,7.61325927734375,-0.9131444692611694,-0.2201339453458786,-0.5092058181762695
1789453819206198500,7.623198486328125,-0.9096896648406982,-0.2346941977739334,-0.5228471755981445
1789453819216138200,7.63313818359375,-0.9321046471595764,-0.23349177837371826,-0.5195475220680237
1789453819226077400,7.643077392578125,-0.8971480131149292,-0.24564601480960846,-0.5523816347122192
1789453819236017200,7.65301708984375,-0.8746948838233948,-0.15021030604839325,-0.530583381652832
1789453819245956400,7.662956298828125,-0.8349190950393677,-0.18054556846618652,-0.5421367287635803
1789453819255896300,7.672896240234375,-0.8011794686317444,-0.19381503760814667,-0.5342487096786499
1789453819265835300,7.682835205078125,-0.7853325605392456,-0.21978816390037537,-0.5294290781021118
1789453819275776000,7.69277587890625,-0.8360418081283569,-0.17383825778961182,-0.4998008906841278
1789453819285715000,7.70271484375,-0.8689786195755005,-0.22501006722450256,-0.5028561353683472
1789453819295654700,7.712654541015625,-0.9127045273780823,-0.1889420747756958,-0.4545370638370514
1789453819305593900,7.72259375,-0.9012070298194885,-0.1718262881040573,-0.4301612079143524
1789453819315533800,7.732533935546875,-0.8258299827575684,-0.2155042588710785,-0.42887917160987854
1789453819325472800,7.74247265625,-0.7841954827308655,-0.1657417118549347,-0.4005590081214905
1789453819335413000,7.7524130859375,-0.7046995759010315,-0.19591985642910004,-0.43348047137260437
1789453819345352000,7.76235205078125,-0.7019703984260559,-0.10301569849252701,-0.4291535019874573
1789453819355291000,7.772290771484375,-0.6752884387969971,-0.09484565258026123,-0.44928592443466187
1789453819365230800,7.78223095703125,-0.7158697247505188,0.02165619283914566,-0.40335094928741455
1789453819375170000,7.792170166015625,-0.6856138110160828,-0.0333910807967186,-0.44512447714805603
1789453819385110000,7.802110107421875,-0.7207812070846558,0.07863199710845947,-0.40128716826438904
1789453819395049000,7.812049072265625,-0.6593902707099915,-0.06894334405660629,-0.43798738718032837
1789453819404989000,7.821989013671875,-0.6599450707435608,-0.09445196390151978,-0.4470174014568329
1789453819414928000,7.831927978515625,-0.693846583366394,0.05507148057222366,-0.40242674946784973
1789453819424867800,7.841867919921875,-0.6081136465072632,-0.023651225492358208,-0.4260851740837097
1789453819434806800,7.851806884765625,-0.5552826523780823,0.03372764587402344,-0.3517603278160095
1789453819444747000,7.8617470703125,-0.5182747840881348,0.08613647520542145,-0.26369425654411316
1789453819454686000,7.87168603515625,-0.5079421997070312,0.10739702731370926,-0.26938596367836
1789453819464626000,7.8816259765625,-0.530895471572876,0.22723685204982758,-0.2960268259048462
1789453819474564900,7.89156494140625,-0.5723174810409546,0.3173840343952179,-0.2532852292060852
1789453819484504800,7.9015048828125,-0.521108090877533,0.3665899634361267,-0.2458587884902954
1789453819494443800,7.91144384765625,-0.5371115803718567,0.4502459764480591,-0.16981914639472961
1789453819504383700,7.9213837890625,-0.5361530184745789,0.3743014931678772,-0.05451507493853569
1789453819514323000,7.931322998046875,-0.4066578447818756,0.1242263987660408,-0.0073097459971904755
1789453819524263000,7.941262939453125,-0.3385723829269409,0.12966644763946533,-0.006639245897531509
1789453819534201900,7.951201904296875,-0.3106728494167328,0.250953733921051,0.02315114066004753
1789453819544141800,7.961141845703125,-0.2413814216852188,0.3088323771953583,0.10179571807384491
1789453819554081000,7.9710810546875,-0.15503481030464172,0.301906555891037,0.11905699968338013
1789453819564021000,7.98102099609375,-0.10550425201654434,0.3096091151237488,0.13673056662082672
1789453819573960000,7.9909599609375,-0.10346800088882446,0.3316963016986847,0.18308953940868378
1789453819583900000,8.00089990234375,-0.07974108308553696,0.3872857391834259,0.21603210270404816
1789453819593838800,8.0108388671875,-0.03855476900935173,0.34484267234802246,0.22467832267284393
1789453819603778800,8.02077880859375,-0.02570352889597416,0.28611740469932556,0.2696269452571869
1789453819613717800,8.0307177734375,-0.029784556478261948,0.23806333541870117,0.29839786887168884
1789453819623658000,8.040657958984376,-0.03548972308635712,0.20235423743724823,0.35090795159339905
1789453819633597000,8.050596923828126,-0.04716182500123978,0.1906358003616333,0.42262208461761475
1789453819643537000,8.060536865234376,-0.0215840395539999,0.16122174263000488,0.4446067214012146
1789453819653476000,8.07047607421875,0.03516685590147972,0.1555398851633072,0.4527466595172882
1789453819663415800,8.080415771484375,0.11716975271701813,0.18914316594600677,0.48228415846824646
1789453819673354800,8.090354736328125,0.2017783671617508,0.18827098608016968,0.4910014867782593
1789453819683294700,8.100294677734375,0.2694425880908966,0.1804358810186386,0.5225098133087158
1789453819693234000,8.11023388671875,0.3442174792289734,0.14975866675376892,0.5320726633071899
1789453819703174000,8.120173828125,0.4162783622741699,0.13422517478466034,0.5217651128768921
1789453819713112800,8.13011279296875,0.4842424988746643,0.07432775944471359,0.5478516221046448
1789453819723053000,8.140052978515625,0.5562410950660706,0.008461480028927326,0.5561150908470154
1789453819732992000,8.149991943359375,0.6123768091201782,-0.04635170102119446,0.5672204494476318
1789453819742932000,8.159931884765625,0.6893317103385925,-0.055288709700107574,0.6188021302223206
1789453819752871000,8.169870849609374,0.7996185421943665,-0.04082002118229866,0.6453730463981628
1789453819762811000,8.179810791015624,0.9128047227859497,-0.006128257140517235,0.6388740539550781
1789453819772749800,8.189749755859374,0.9878155589103699,0.042016368359327316,0.6432639956474304
1789453819782689800,8.199689697265624,1.0556694269180298,0.13034671545028687,0.6609267592430115
1789453819792629000,8.20962890625,1.134412407875061,0.15957757830619812,0.6390371918678284
1789453819802569000,8.21956884765625,1.1826647520065308,0.18107841908931732,0.6043578386306763
1789453819812508000,8.2295078125,1.169412612915039,0.2621903121471405,0.5814562439918518
1789453819822447900,8.23944775390625,1.161567211151123,0.24109049141407013,0.5904836654663086
1789453819832387000,8.249386962890625,1.1774300336837769,0.1798766702413559,0.5958970785140991
1789453819842326800,8.259326904296875,1.1653026342391968,0.10015615075826645,0.5858738422393799
1789453819852265700,8.269265625,1.1662791967391968,0.08545949310064316,0.6281925439834595
1789453819862206000,8.2792060546875,1.195067286491394,0.12831421196460724,0.6735842227935791
1789453819872145000,8.289144775390625,1.2742127180099487,0.20392829179763794,0.7138850092887878
1789453819882084900,8.2990849609375,1.3673614263534546,0.25641414523124695,0.7253336906433105
1789453819892023800,8.30902392578125,1.454820156097412,0.2999784052371979,0.7375607490539551
1789453819901964000,8.318964111328125,1.4897582530975342,0.31254884600639343,0.7364941835403442
1789453819911903000,8.328903076171875,1.475372076034546,0.3362989127635956,0.706767201423645
1789453819921842700,8.3388427734375,1.4349218606948853,0.3204481899738312,0.6318081021308899
1789453819931782000,8.348781982421874,1.3749197721481323,0.2725030183792114,0.6082096099853516
1789453819941721900,8.358721923828124,1.3196437358856201,0.23636554181575775,0.6128453612327576
1789453819951660800,8.368660888671876,1.2831783294677734,0.2616834044456482,0.626410186290741
1789453819961600800,8.378600830078126,1.2823643684387207,0.2563820481300354,0.6218808889389038
1789453819971540000,8.3885400390625,1.3175897598266602,0.22002564370632172,0.5864678025245667
1789453819981480000,8.39847998046875,1.3419957160949707,0.14612476527690887,0.48203784227371216
1789453819991419000,8.4084189453125,1.341673731803894,0.11275960505008698,0.4158143401145935
1789453820001359000,8.418359130859375,1.3706461191177368,0.12326609343290329,0.4247496426105499
1789453820011298000,8.428298095703125,1.4023493528366089,0.1354396790266037,0.4384891390800476
1789453820021237800,8.43823779296875,1.4588021039962769,0.03306340426206589,0.3737834095954895
1789453820031176700,8.4481767578125,1.450942039489746,0.004771579056978226,0.38677912950515747
1789453820041117000,8.458116943359375,1.3666554689407349,-0.04334189370274544,0.4345703125
1789453820051055900,8.468055908203125,1.2796903848648071,-0.06405862420797348,0.4257347583770752
1789453820060995800,8.477995849609375,1.227881669998169,-0.04707931727170944,0.3970547914505005
1789453820070934800,8.487934814453125,1.2547662258148193,-0.02432180941104889,0.45006686449050903
1789453820080875000,8.497875,1.1274619102478027,-0.0035339267924427986,0.5786859393119812
1789453820090814000,8.50781396484375,1.1956359148025513,-0.15118010342121124,0.5333371162414551
1789453820100753700,8.517753662109374,1.2435898780822754,-0.2111038714647293,0.4973451793193817
1789453820110692900,8.52769287109375,1.1796373128890991,-0.2180643081665039,0.5087289214134216
1789453820120632800,8.5376328125,1.0471376180648804,-0.18048006296157837,0.5364671945571899
1789453820130571800,8.54757177734375,0.909598708152771,-0.15994203090667725,0.5244443416595459
1789453820140512000,8.557511962890626,0.8545617461204529,-0.18167085945606232,0.48021113872528076
1789453820150451000,8.567450927734376,0.8442191481590271,-0.20187784731388092,0.490460604429245
1789453820160391000,8.577390869140626,0.7903119921684265,-0.2163100391626358,0.5493573546409607
1789453820170329900,8.587329833984375,0.7606361508369446,-0.24101564288139343,0.5784473419189453
1789453820180270000,8.59727001953125,0.7467585206031799,-0.3038976490497589,0.518930971622467
1789453820190209000,8.607208984375,0.7309046983718872,-0.2669154107570648,0.527971625328064
1789453820200148700,8.617148681640625,0.7225694060325623,-0.27380651235580444,0.5998870730400085
1789453820210087700,8.627087646484375,0.6995381116867065,-0.25959107279777527,0.6109088063240051
1789453820220028000,8.63702783203125,0.6441694498062134,-0.3022657036781311,0.5762953758239746
1789453820229966800,8.646966796875,0.5594156980514526,-0.29937005043029785,0.5593898892402649
1789453820239906800,8.65690673828125,0.5373384356498718,-0.25827494263648987,0.5498810410499573
1789453820249846000,8.666845947265625,0.5195053815841675,-0.2429865002632141,0.5311220288276672
1789453820259786000,8.676785888671875,0.5156166553497314,-0.22491450607776642,0.5102629065513611
1789453820269725000,8.686724853515624,0.4948226809501648,-0.1854051798582077,0.49207380414009094
1789453820279664400,8.696664306640624,0.4643731415271759,-0.14805735647678375,0.45675650238990784
1789453820289603300,8.706603271484376,0.4362618625164032,-0.1204446405172348,0.39084911346435547
1789453820299543300,8.716543212890626,0.4090619683265686,-0.08151794224977493,0.3336940109729767
1789453820309482200,8.726482177734376,0.3899836242198944,-0.022874869406223297,0.27394866943359375
1789453820319422200,8.736422119140625,0.38435205817222595,-0.009317347779870033,0.19470897316932678
1789453820329361200,8.746361083984375,0.3469412922859192,-0.06932315975427628,0.1587536334991455
1789453820339300000,8.756300048828125,0.21532326936721802,-0.028674572706222534,0.12975944578647614
1789453820349240300,8.766240234375,0.15516486763954163,0.04050156846642494,0.044542551040649414
1789453820359179300,8.77617919921875,0.0880092978477478,-0.0691395252943039,-0.04278469830751419
1789453820369119200,8.786119140625,-0.0002832838799804449,-0.16197678446769714,-0.08922703564167023
1789453820379058400,8.796058349609375,-0.09754813462495804,-0.12073696404695511,-0.09368481487035751
1789453820388998100,8.805998046875,-0.1763651818037033,-0.05623040720820427,-0.11329846829175949
1789453820398937300,8.815937255859374,-0.2565416693687439,0.03620278090238571,-0.14359542727470398
1789453820408877300,8.825877197265624,-0.3513994812965393,0.12748822569847107,-0.17691263556480408
1789453820418816300,8.835816162109374,-0.423897385597229,0.1347075253725052,-0.22242286801338196
1789453820428756200,8.845756103515624,-0.49443838000297546,0.1420338749885559,-0.25600239634513855
1789453820438695200,8.855695068359376,-0.547730565071106,0.10555500537157059,-0.2594026029109955
1789453820448635400,8.865635498046874,-0.5726748108863831,0.05860108509659767,-0.24497678875923157
1789453820458574300,8.87557421875,-0.5964363813400269,0.021783897653222084,-0.2685070037841797
1789453820468514300,8.885514404296876,-0.6104126572608948,0.0011057830415666103,-0.32060855627059937
1789453820478453200,8.895453369140625,-0.6035776138305664,0.005253173410892487,-0.3682459890842438
1789453820488393200,8.905393310546875,-0.5902132987976074,0.08791209757328033,-0.3900756537914276
1789453820498332200,8.915332275390625,-0.593805193901062,0.18731793761253357,-0.40823036432266235
1789453820508272000,8.925272216796875,-0.6168295741081238,0.18491947650909424,-0.4484773874282837
1789453820518211300,8.93521142578125,-0.6498984098434448,0.1546325981616974,-0.47997453808784485
1789453820528151300,8.9451513671875,-0.6807063817977905,0.14219003915786743,-0.4563341736793518
1789453820538090200,8.95509033203125,-0.6843867301940918,0.17269858717918396,-0.3866477608680725
1789453820548030500,8.965030517578125,-0.6281170845031738,0.22879940271377563,-0.31584814190864563
1789453820557969400,8.974969482421875,-0.5633725523948669,0.27942898869514465,-0.2724827826023102
1789453820567909000,8.9849091796875,-0.5416802763938904,0.23587140440940857,-0.29936790466308594
1789453820577848300,8.994848388671874,-0.5590052008628845,0.24540375173091888,-0.3675779104232788
1789453820587788300,9.004788330078124,-0.6077266931533813,0.3127223253250122,-0.4294852018356323
1789453820597727200,9.014727294921874,-0.6533553600311279,0.34576767683029175,-0.49843350052833557
1789453820607667200,9.024667236328124,-0.6877610087394714,0.38387006521224976,-0.5684655904769897
1789453820617606100,9.034606201171876,-0.6705349087715149,0.49013495445251465,-0.5939138531684875
1789453820627546400,9.04454638671875,-0.5792276263237,0.5689173936843872,-0.5594006180763245
1789453820637485300,9.0544853515625,-0.48836952447891235,0.48418834805488586,-0.5795779228210449
1789453820647425300,9.06442529296875,-0.4560731053352356,0.35296133160591125,-0.6157444715499878
1789453820657364500,9.074364501953125,-0.4780164659023285,0.22408592700958252,-0.6683461666107178
1789453820667304200,9.08430419921875,-0.5372132062911987,0.20980072021484375,-0.6916035413742065
1789453820677243100,9.0942431640625,-0.5945332050323486,0.28613609075546265,-0.6905458569526672
1789453820687183400,9.104183349609375,-0.6355647444725037,0.35597002506256104,-0.7134397029876709
1789453820697122300,9.114122314453125,-0.6277493834495544,0.4233412742614746,-0.745340883731842
1789453820707062300,9.124062255859375,-0.5849739909172058,0.4499014914035797,-0.7494671940803528
1789453820717001200,9.134001220703125,-0.5660802721977234,0.3390527069568634,-0.7775362730026245
1789453820726941400,9.14394140625,-0.5950637459754944,0.17715196311473846,-0.8391951322555542
1789453820736880400,9.15388037109375,-0.6299833059310913,0.17088422179222107,-0.861457884311676
1789453820746820000,9.163820068359374,-0.6280402541160583,0.21206119656562805,-0.874092161655426
1789453820756759000,9.173759033203124,-0.6178724765777588,0.2939028739929199,-0.878817617893219
1789453820766699300,9.18369921875,-0.6201923489570618,0.33968794345855713,-0.8807252645492554
1789453820776638200,9.19363818359375,-0.6229991912841797,0.3092266023159027,-0.8819864988327026
1789453820786578200,9.203578125,-0.6207959651947021,0.22752270102500916,-0.8684390187263489
1789453820796517400,9.213517333984376,-0.6339067816734314,0.13341321051120758,-0.8625791072845459
1789453820806457300,9.223457275390626,-0.6436222791671753,0.07328008115291595,-0.838818371295929
1789453820816396300,9.233396240234375,-0.5884373784065247,-0.028340306133031845,-0.7292571663856506
1789453820826336300,9.243336181640625,-0.5220288038253784,0.00893622636795044,-0.6452314853668213
1789453820836275500,9.253275390625,-0.5024908185005188,0.0869174599647522,-0.6710931062698364
1789453820846215200,9.263215087890625,-0.5324497818946838,0.11906953155994415,-0.7360720634460449
1789453820856154000,9.273154052734375,-0.6380825638771057,0.13373534381389618,-0.7760228514671326
1789453820866094300,9.28309423828125,-0.7001984119415283,0.1683303415775299,-0.7796084880828857
1789453820876033300,9.293033203125,-0.7311436533927917,0.14448733627796173,-0.7474037408828735
1789453820885973200,9.30297314453125,-0.7655197381973267,0.08760087937116623,-0.79332435131073
1789453820895912200,9.312912109375,-0.7104899287223816,0.1765669882297516,-0.8288288712501526
1789453820905852400,9.322852294921875,-0.6578600406646729,-0.009975725784897804,-0.8480374813079834
1789453820915791400,9.332791259765624,-0.6275909543037415,-0.006866317708045244,-0.7242380380630493
1789453820925731000,9.34273095703125,-0.6824925541877747,-0.12649977207183838,-0.6872422099113464
1789453820935670300,9.352670166015624,-0.7856691479682922,-0.12646904587745667,-0.6796939969062805
1789453820945610200,9.3626103515625,-0.8996415138244629,-0.18390411138534546,-0.6189281344413757
1789453820955549200,9.372549072265626,-0.9119284152984619,-0.17259246110916138,-0.5947343111038208
1789453820965489200,9.3824892578125,-0.8901965022087097,-0.28060442209243774,-0.6333072781562805
1789453820975428400,9.392428466796876,-0.8213041424751282,-0.3234631419181824,-0.672396183013916
1789453820985368300,9.402368408203126,-0.8326082229614258,-0.407732754945755,-0.6779142022132874
1789453820995307300,9.412307373046875,-0.8345043659210205,-0.3549406826496124,-0.6140784621238708
1789453821005247200,9.422247314453125,-0.8688415288925171,-0.3459184169769287,-0.58775794506073
1789453821015186400,9.4321865234375,-0.8878012299537659,-0.3293813467025757,-0.6030310988426208
1789453821025126100,9.442126220703125,-0.8219543099403381,-0.34036049246788025,-0.6302584409713745
1789453821035065000,9.452065185546875,-0.7493105530738831,-0.3285931646823883,-0.6392415761947632
1789453821045005300,9.46200537109375,-0.660706639289856,-0.32639792561531067,-0.6552279591560364
1789453821054944300,9.4719443359375,-0.5964757204055786,-0.34441590309143066,-0.6708590984344482
1789453821064884200,9.48188427734375,-0.5581064820289612,-0.3140239119529724,-0.5904638171195984
1789453821074823400,9.491823486328125,-0.5994436740875244,-0.18360669910907745,-0.5285654664039612
1789453821084763400,9.501763427734375,-0.5957165956497192,-0.199066624045372,-0.5503999590873718
1789453821094702300,9.511702392578124,-0.6706413626670837,-0.15863889455795288,-0.52784663438797
1789453821104642000,9.52164208984375,-0.8112019300460815,-0.10903060436248779,-0.46337923407554626
1789453821114581200,9.531581298828126,-0.8971941471099854,-0.15368996560573578,-0.4462140202522278
1789453821124521200,9.541521240234376,-0.9548976421356201,-0.22812318801879883,-0.38888946175575256
1789453821134461200,9.551461181640626,-0.9597543478012085,-0.2563456594944,-0.339756041765213
1789453821144400400,9.561400390625,-0.9319754242897034,-0.14307130873203278,-0.2654426395893097
1789453821154339300,9.57133935546875,-0.7614930868148804,-0.20695306360721588,-0.34371650218963623
1789453821164279300,9.581279296875,-0.6353052854537964,-0.16587993502616882,-0.32709091901779175
1789453821174218200,9.59121826171875,-0.5455112457275391,-0.19678977131843567,-0.2883724570274353
1789453821184158200,9.601158203125,-0.4844262897968292,-0.16554155945777893,-0.28362321853637695
1789453821194097400,9.611097412109375,-0.5277629494667053,0.04066081717610359,-0.21660731732845306
1789453821204037000,9.621037109375,-0.5407708883285522,0.07285497337579727,-0.16925524175167084
1789453821213977300,9.630977294921875,-0.5472767353057861,0.12260095030069351,-0.14468598365783691
1789453821223916300,9.640916259765625,-0.5861924290657043,0.27783501148223877,-0.17881307005882263
1789453821233856300,9.650856201171875,-0.5770231485366821,0.27728480100631714,-0.16417387127876282
1789453821243795200,9.660795166015625,-0.5290492177009583,0.1415375918149948,-0.03524890914559364
1789453821253734400,9.670734375,-0.43319252133369446,-0.012314927764236927,0.062318239361047745
1789453821263674400,9.68067431640625,-0.3327617943286896,-0.10581451654434204,0.04957447946071625
1789453821273614000,9.690614013671874,-0.2894790768623352,-0.01982242800295353,0.061631545424461365
1789453821283554000,9.700553955078124,-0.26760682463645935,0.0625012069940567,0.09201022237539291
1789453821293494000,9.710493896484374,-0.24140478670597076,0.11517773568630219,0.16093310713768005
1789453821303433000,9.720432861328124,-0.2422008067369461,0.19007115066051483,0.2538880705833435
1789453821313373200,9.730373291015624,-0.26161226630210876,0.22244754433631897,0.3344796597957611
1789453821323312000,9.74031201171875,-0.27135223150253296,0.22018146514892578,0.4018288552761078
1789453821333251800,9.750251953125,-0.2719481289386749,0.166499525308609,0.4198451042175293
1789453821343190800,9.760190673828125,-0.33005937933921814,0.06960785388946533,0.4433368444442749
1789453821353131000,9.770131103515626,-0.3735089600086212,0.003187625203281641,0.5041744112968445
1789453821363070000,9.780070068359375,-0.3392029404640198,-0.053615469485521317,0.5423833131790161
1789453821373010000,9.790010009765625,-0.251514732837677,-0.04953226447105408,0.546617865562439
1789453821382948900,9.799948974609375,-0.12985166907310486,-0.04842891916632652,0.5321664810180664
1789453821392889000,9.80988916015625,0.016420412808656693,-0.09050950407981873,0.49976295232772827
1789453821402828000,9.819828125,0.09292344748973846,-0.08246701955795288,0.5080299377441406
1789453821412768000,9.82976806640625,0.1332019567489624,-0.03711574897170067,0.5383121371269226
1789453821422707200,9.839707275390625,0.1645718663930893,-0.013284718617796898,0.5824201703071594
1789453821432647000,9.84964697265625,0.22809816896915436,-0.037476517260074615,0.6200416088104248
1789453821442585900,9.8595859375,0.29914677143096924,-0.15047070384025574,0.6287272572517395
1789453821452525800,9.86952587890625,0.328184574842453,-0.2724429666996002,0.642885684967041
1789453821462465000,9.879465087890624,0.3529210686683655,-0.30850750207901,0.6641635894775391
1789453821472405000,9.889405029296874,0.42474788427352905,-0.2877299189567566,0.706732988357544
1789453821482344000,9.899343994140626,0.5612178444862366,-0.2183588296175003,0.761498749256134
1789453821492284200,9.9092841796875,0.7373051047325134,-0.13476866483688354,0.7820412516593933
1789453821502223000,9.91922314453125,0.9166597127914429,-0.022678617388010025,0.7847451567649841
1789453821512162800,9.929162841796876,1.0166985988616943,0.10345670580863953,0.7668875455856323
1789453821522101800,9.939101806640625,1.0202046632766724,0.2405272126197815,0.7810342311859131
1789453821532042000,9.9490419921875,0.9913881421089172,0.32053980231285095,0.8166961073875427
1789453821541981000,9.95898095703125,0.9755154252052307,0.23789075016975403,0.8368120789527893
1789453821551921000,9.9689208984375,1.002199411392212,0.15984481573104858,0.8900516629219055
1789453821561860000,9.978860107421875,1.0355733633041382,0.07045263051986694,0.903850793838501
1789453821571800000,9.988800048828125,1.0830848217010498,0.0516250841319561,0.9468539357185364
1789453821581739000,9.998739013671875,1.1424109935760498,0.09024171531200409,0.9983842968940735
1789453821591679000,10.008678955078125,1.22529935836792,0.11034346371889114,0.9974823594093323
1789453821601618200,10.0186181640625,1.300369381904602,0.05219414457678795,0.954024076461792
1789453821611558000,10.028557861328125,1.3435403108596802,-0.04270057752728462,0.9035215377807617
1789453821621496800,10.038496826171874,1.346032977104187,-0.07520791888237,0.8921937346458435
1789453821631437000,10.04843701171875,1.3984217643737793,-0.09487645328044891,0.8922834992408752
1789453821641376000,10.0583759765625,1.462410807609558,-0.15895265340805054,0.8588699102401733
1789453821651316000,10.06831591796875,1.5367233753204346,-0.14113201200962067,0.8250999450683594
1789453821661255000,10.0782548828125,1.5280550718307495,-0.1557522416114807,0.8031235337257385
1789453821671195100,10.088195068359376,1.4297263622283936,-0.1363440603017807,0.805286705493927
1789453821681134000,10.098134033203126,1.4053469896316528,-0.14522837102413177,0.7376469373703003
1789453821691073800,10.10807373046875,1.3554060459136963,-0.209721177816391,0.670691967010498
1789453821701013000,10.118012939453125,1.3304921388626099,-0.24965688586235046,0.6509891152381897
1789453821710953000,10.127952880859375,1.3728965520858765,-0.2817056477069855,0.6501227617263794
1789453821720892000,10.137891845703125,1.4022592306137085,-0.39056819677352905,0.572671115398407
1789453821730832000,10.147831787109375,1.3104289770126343,-0.27699699997901917,0.6557875871658325
1789453821740771000,10.15777099609375,1.1867585182189941,-0.2754688858985901,0.6974780559539795
1789453821750711000,10.1677109375,1.2070962190628052,-0.35449475049972534,0.678956151008606
1789453821760650000,10.17764990234375,1.2039810419082642,-0.3680534362792969,0.6892279386520386
1789453821770590000,10.18758984375,1.1428778171539307,-0.25394734740257263,0.7810086607933044
1789453821780529000,10.19752880859375,1.1312379837036133,-0.3609749972820282,0.7215410470962524
1789453821790468900,10.20746875,1.0989856719970703,-0.32149598002433777,0.7461807727813721
1789453821800407800,10.21740771484375,1.0111123323440552,-0.275040864944458,0.8245970606803894
1789453821810348000,10.22734814453125,0.9656241536140442,-0.2860361337661743,0.8806045651435852
1789453821820287000,10.237286865234376,0.9484915137290955,-0.28145337104797363,0.887120246887207
1789453821830227000,10.24722705078125,0.9226685166358948,-0.302090585231781,0.8464651107788086
1789453821840166000,10.257165771484376,0.9178588390350342,-0.24864335358142853,0.8117417693138123
1789453821850106000,10.267106201171876,0.9079455733299255,-0.2782861590385437,0.7582597732543945
1789453821860045000,10.277045166015625,0.8334295749664307,-0.2884035110473633,0.7126941680908203
1789453821869984800,10.28698486328125,0.7662675976753235,-0.352276086807251,0.6992011070251465
1789453821879924000,10.296924072265625,0.698241651058197,-0.33758875727653503,0.7082138061523438
1789453821889864000,10.306864013671875,0.6995170712471008,-0.27499330043792725,0.7024304866790771
1789453821899803000,10.316802978515625,0.7877603769302368,-0.28693464398384094,0.6975693702697754
1789453821909743000,10.3267431640625,0.8249545693397522,-0.3278350830078125,0.6820946931838989
1789453821919682000,10.33668212890625,0.7966704368591309,-0.24793387949466705,0.6890556812286377
1789453821929622000,10.3466220703125,0.7139301896095276,-0.18698179721832275,0.6946167349815369
1789453821939561000,10.35656103515625,0.6539574265480042,-0.18186692893505096,0.6856802701950073
1789453821949501000,10.3665009765625,0.6057223081588745,-0.13432276248931885,0.6355910897254944
1789453821959440000,10.37643994140625,0.5264357328414917,-0.11629662662744522,0.5329778790473938
1789453821969379800,10.3863798828125,0.42981135845184326,-0.09379427134990692,0.43142229318618774
1789453821979318800,10.39631884765625,0.2949238419532776,0.019969582557678223,0.36043307185173035
1789453821989259000,10.406259033203124,0.2659805715084076,0.09997031092643738,0.2914484143257141
1789453821999198000,10.416197998046876,0.22048500180244446,0.1399344950914383,0.19730167090892792
1789453822009138000,10.426137939453126,0.13815753161907196,0.12933892011642456,0.09677004814147949
1789453822019077000,10.4360771484375,0.05193635821342468,0.14951395988464355,0.01147991232573986
1789453822029017000,10.44601708984375,0.015828518196940422,0.11811817437410355,-0.05649631470441818
1789453822038956000,10.4559560546875,-0.0829814150929451,0.055530428886413574,-0.11930723488330841
1789453822048896000,10.46589599609375,-0.19073320925235748,0.05749380961060524,-0.1669275164604187
1789453822058835000,10.4758349609375,-0.29655924439430237,0.06383959203958511,-0.19742044806480408
1789453822068775000,10.48577490234375,-0.39167359471321106,0.07117526978254318,-0.21336477994918823
1789453822078713900,10.4957138671875,-0.48779240250587463,0.11633768677711487,-0.2202855348587036
1789453822088654000,10.505654052734375,-0.588127851486206,0.13463768362998962,-0.26778727769851685
1789453822098593000,10.515593017578125,-0.6910712718963623,0.11986114084720612,-0.3684401214122772
1789453822108533000,10.525532958984375,-0.784533679485321,0.1448315978050232,-0.45947161316871643
1789453822118472000,10.535471923828124,-0.8380736112594604,0.2152879238128662,-0.4946487545967102
1789453822128412000,10.545411865234374,-0.9123822450637817,0.25915277004241943,-0.5049661993980408
1789453822138350800,10.555350830078124,-0.9967056512832642,0.28031665086746216,-0.5404160618782043
1789453822148290800,10.565290771484374,-1.1097415685653687,0.24240541458129883,-0.6227818131446838
1789453822158230000,10.57522998046875,-1.2294607162475586,0.1976962685585022,-0.6580497622489929
1789453822168170000,10.585169921875,-1.298858642578125,0.2235993891954422,-0.5700829029083252
1789453822178109000,10.59510888671875,-1.3219072818756104,0.23647445440292358,-0.39186760783195496
1789453822188049200,10.605049072265626,-1.3006484508514404,0.29537123441696167,-0.2645551562309265
1789453822197988000,10.614988037109375,-1.2092463970184326,0.35539036989212036,-0.1977497637271881
1789453822207928000,10.624927978515625,-1.1005525588989258,0.3403635025024414,-0.154362753033638
1789453822217867000,10.634866943359375,-1.0281636714935303,0.3141452372074127,-0.13985304534435272
1789453822227807000,10.644806884765625,-0.9782506823539734,0.31017470359802246,-0.1355684995651245
1789453822237746000,10.654745849609375,-0.9136663675308228,0.3394407331943512,-0.14075607061386108
1789453822247686000,10.664685791015625,-0.819116473197937,0.4514189064502716,-0.14784692227840424
1789453822257624800,10.674624755859375,-0.7045331597328186,0.49331679940223694,-0.18924522399902344
1789453822267565000,10.68456494140625,-0.5972659587860107,0.4466094672679901,-0.25400635600090027
1789453822277503500,10.69450341796875,-0.4665377736091614,0.3694220185279846,-0.28211015462875366
1789453822287443500,10.704443359375,-0.4329712688922882,0.15687544643878937,-0.3394969403743744
1789453822297382700,10.714382568359374,-0.5128408074378967,-0.1151944175362587,-0.41613179445266724
1789453822307322600,10.724322509765624,-0.6479778289794922,-0.242678701877594,-0.46437838673591614
1789453822317262300,10.734262451171874,-0.7345633506774902,-0.0823926255106926,-0.4485781192779541
1789453822327201500,10.744201416015626,-0.7785216569900513,0.20127949118614197,-0.4525124430656433
1789453822337140500,10.754140380859376,-0.7734363079071045,0.3000470995903015,-0.5237317681312561
1789453822347080400,10.76408056640625,-0.7013096213340759,0.23246188461780548,-0.6195663809776306
1789453822357019400,10.774019287109375,-0.598483145236969,-0.013343079015612602,-0.6996851563453674
1789453822366959600,10.783959716796875,-0.5575878024101257,-0.21088668704032898,-0.7580465078353882
1789453822376899600,10.793899658203125,-0.5321394205093384,-0.2503986656665802,-0.7791866660118103
1789453822386838500,10.803838623046875,-0.5282469391822815,-0.2091439664363861,-0.8147000670433044
1789453822396778500,10.813778564453125,-0.5266045928001404,-0.129428893327713,-0.8465756773948669
1789453822406717400,10.823717529296875,-0.5119699239730835,-0.08106213063001633,-0.8732214570045471
1789453822416657400,10.833657470703125,-0.5325630903244019,-0.03426133841276169,-0.8573370575904846
1789453822426596400,10.843596435546875,-0.5736364126205444,0.018305685371160507,-0.8128602504730225
1789453822436536600,10.85353662109375,-0.6097709536552429,-0.03409121185541153,-0.8005316853523254
1789453822446475500,10.8634755859375,-0.614916980266571,-0.10253670066595078,-0.8381199836730957
1789453822456415500,10.87341552734375,-0.5761421322822571,-0.10206957906484604,-0.809786856174469
1789453822466354700,10.883354736328124,-0.5844011306762695,0.04667554050683975,-0.669662594795227
1789453822476294400,10.89329443359375,-0.6216822266578674,0.07417800277471542,-0.5817809700965881
1789453822486233600,10.903233642578124,-0.6666602492332458,0.030708875507116318,-0.5501635074615479
1789453822496173600,10.913173583984374,-0.6734204292297363,-0.00392739987000823,-0.5236855745315552
1789453822506112500,10.923112548828126,-0.6115623116493225,-0.10481815785169601,-0.5599652528762817
1789453822516052500,10.933052490234376,-0.533301055431366,-0.1820402443408966,-0.6348951458930969
1789453822525991400,10.942991455078126,-0.52765953540802,-0.17550921440124512,-0.6168349385261536
1789453822535931600,10.952931640625,-0.5707949995994568,-0.059218812733888626,-0.4887171685695648
1789453822545870600,10.96287060546875,-0.7383867502212524,-0.06892944872379303,-0.4576188027858734
1789453822555810600,10.972810546875,-0.8625079393386841,-0.09249655902385712,-0.43226417899131775
1789453822565749500,10.98274951171875,-0.947830319404602,-0.15593451261520386,-0.434444397687912
1789453822575689500,10.992689453125,-0.9076828956604004,-0.04789192974567413,-0.3822336494922638
1789453822585628400,11.00262841796875,-0.8695867657661438,-0.1198037639260292,-0.43369415402412415
1789453822595568400,11.012568359375,-0.8350083231925964,-0.2525636851787567,-0.5381572246551514
1789453822605507600,11.022507568359375,-0.8730059266090393,-0.31154686212539673,-0.5844190716743469
1789453822615447600,11.032447509765625,-0.8202537298202515,-0.13308048248291016,-0.5034453868865967
1789453822625386500,11.042386474609375,-0.8077136278152466,-0.23496857285499573,-0.5853559970855713
1789453822635326700,11.05232666015625,-0.8553128242492676,-0.11481712013483047,-0.5807806849479675
1789453822645265700,11.062265625,-0.7263148427009583,-0.047123413532972336,-0.6195386648178101
1789453822655205400,11.072205322265624,-0.7529941201210022,-0.08601488918066025,-0.713612973690033
1789453822665144300,11.082144287109376,-0.6887964606285095,-0.013383947312831879,-0.7346433401107788
1789453822675084500,11.09208447265625,-0.6778125762939453,-0.03373822197318077,-0.7260663509368896
1789453822685023500,11.1020234375,-0.6728832721710205,-0.09244240075349808,-0.7736928462982178
1789453822694963500,11.11196337890625,-0.6964373588562012,0.0006356113590300083,-0.7780460715293884
1789453822704902400,11.12190234375,-0.6691815257072449,0.06222943961620331,-0.7805688381195068
1789453822714842600,11.131842529296875,-0.6088947653770447,0.01861485466361046,-0.8095634579658508
1789453822724781600,11.141781494140625,-0.6499797701835632,0.09182067215442657,-0.8047598004341125
1789453822734721500,11.151721435546875,-0.6278846263885498,-0.011807452887296677,-0.8769879341125488
1789453822744660700,11.16166064453125,-0.7460471987724304,0.01934714987874031,-0.8686585426330566
1789453822754600400,11.171600341796875,-0.7978757619857788,-0.05242210999131203,-0.8439728617668152
1789453822764539400,11.181539306640625,-0.8423210382461548,-0.028240511193871498,-0.7092571258544922
1789453822774479600,11.191479736328125,-0.8275095820426941,0.038209084421396255,-0.5802893042564392
1789453822784418600,11.20141845703125,-0.6834699511528015,-0.08516419678926468,-0.568591833114624
1789453822794358500,11.211358642578125,-0.6429915428161621,-0.055172745138406754,-0.45466285943984985
1789453822804297500,11.22129736328125,-0.6453032493591309,0.03004523739218712,-0.3011641502380371
1789453822814237700,11.23123779296875,-0.6361398696899414,0.09497576951980591,-0.1937045454978943
1789453822824176600,11.2411767578125,-0.6248041391372681,0.16325952112674713,-0.13740378618240356
1789453822834116400,11.251116455078124,-0.6249634027481079,0.28185006976127625,-0.1005973070859909
1789453822844055300,11.26105517578125,-0.7063615918159485,0.5250819325447083,0.055587995797395706
1789453822853995500,11.27099560546875,-0.6282303333282471,0.16565769910812378,0.1938161700963974
1789453822863934500,11.2809345703125,-0.5554766058921814,0.057995378971099854,0.3470305800437927
1789453822873874400,11.29087451171875,-0.40264469385147095,-0.018724165856838226,0.4017353653907776
1789453822883813600,11.300813720703125,-0.2893734276294708,0.04216789826750755,0.3933124840259552
1789453822893753600,11.310753662109375,-0.23325423896312714,0.17828738689422607,0.38363856077194214
1789453822903692500,11.320692626953125,-0.17913818359375,0.18656453490257263,0.42284414172172546
1789453822913632500,11.330632568359375,-0.13366684317588806,0.11571966111660004,0.45107710361480713
1789453822923571700,11.34057177734375,-0.11529768258333206,0.11662697792053223,0.4619135558605194
1789453822933511400,11.350511474609375,-0.09623531252145767,0.12701942026615143,0.46468937397003174
1789453822943450400,11.360450439453125,-0.10683224350214005,0.1313311606645584,0.46495282649993896
1789453822953390600,11.370390625,-0.123075932264328,0.08540281653404236,0.5145241022109985
1789453822963329500,11.38032958984375,-0.13983698189258575,0.05868707597255707,0.5484844446182251
1789453822973269500,11.39026953125,-0.17997267842292786,-0.01879839599132538,0.5472175478935242
1789453822983208400,11.40020849609375,-0.18490011990070343,-0.06237814575433731,0.5553166270256042
1789453822993148700,11.410148681640624,-0.11707501113414764,-0.07327846437692642,0.5488768219947815
1789453823003088400,11.42008837890625,0.05595715343952179,-0.09651326388120651,0.509867787361145
1789453823013027300,11.43002734375,0.222876638174057,-0.1133795902132988,0.487606942653656
1789453823022967600,11.439967529296876,0.38167864084243774,-0.10071023553609848,0.47422271966934204
1789453823032906500,11.449906494140626,0.4922139346599579,-0.08577069640159607,0.45690417289733887
1789453823042846500,11.459846435546876,0.571839451789856,-0.015474768355488777,0.4680830240249634
1789453823052785400,11.469785400390625,0.6786497831344604,0.05946391820907593,0.4878290593624115
1789453823062725600,11.4797255859375,0.8305498361587524,0.1278965175151825,0.5206455588340759
1789453823072664600,11.48966455078125,0.9963241815567017,0.2021409124135971,0.5416358113288879
1789453823082604300,11.499604248046875,1.1198012828826904,0.27489304542541504,0.5435735583305359
1789453823092543500,11.50954345703125,1.221980333328247,0.33812180161476135,0.5755301713943481
1789453823102483500,11.5194833984375,1.306942343711853,0.3237702250480652,0.5991339683532715
1789453823112422400,11.52942236328125,1.3428627252578735,0.3123500645160675,0.6318027377128601
1789453823122362600,11.539362548828125,1.3556551933288574,0.3633395731449127,0.6414542198181152
1789453823132301600,11.549301513671875,1.3682745695114136,0.36056190729141235,0.6136846542358398
1789453823142241500,11.559241455078125,1.359765887260437,0.3015066385269165,0.612309455871582
1789453823152180500,11.569180419921874,1.4003782272338867,0.26342132687568665,0.6153952479362488
1789453823162120700,11.57912060546875,1.4582079648971558,0.2129981964826584,0.5691565275192261
1789453823172059600,11.5890595703125,1.4973831176757812,0.2301367074251175,0.5637801885604858
1789453823181999400,11.598999267578124,1.5646547079086304,0.234754741191864,0.5584579706192017
1789453823191938300,11.608938232421876,1.5725369453430176,0.2569809854030609,0.5319379568099976
1789453823201878500,11.61887841796875,1.5468577146530151,0.31298860907554626,0.5658738017082214
1789453823211817500,11.6288173828125,1.5542343854904175,0.2570608854293823,0.5691018104553223
1789453823221757400,11.63875732421875,1.5405404567718506,0.1898653507232666,0.5172834992408752
1789453823231696600,11.648696533203125,1.571900486946106,0.20570610463619232,0.5496302843093872
1789453823241636600,11.65863671875,1.5192781686782837,0.08226002007722855,0.5701447129249573
1789453823251575600,11.668575439453125,1.4650975465774536,0.042065732181072235,0.5961100459098816
1789453823261515500,11.678515625,1.411814570426941,-0.0059836991131305695,0.6541740894317627
1789453823271454500,11.688454345703125,1.3812345266342163,-0.080569788813591,0.6405379176139832
1789453823281394200,11.698394287109375,1.3204469680786133,-0.10866685956716537,0.6558351516723633
1789453823291333400,11.70833349609375,1.3400777578353882,-0.10312562435865402,0.7056117653846741
1789453823301273300,11.7182734375,1.4058260917663574,-0.1821160763502121,0.6653088331222534
1789453823311212300,11.72821240234375,1.476549506187439,-0.2445317804813385,0.5861154794692993
1789453823321152500,11.738152587890625,1.5254805088043213,-0.2798686623573303,0.5213336944580078
1789453823331091500,11.748091552734374,1.4658411741256714,-0.2444630265235901,0.5663022398948669
1789453823341031400,11.758031494140624,1.4603221416473389,-0.2897234261035919,0.5133100748062134
1789453823350970400,11.767970458984376,1.355470061302185,-0.2236970067024231,0.5123598575592041
1789453823360910300,11.777910400390626,1.2794193029403687,-0.27861708402633667,0.3529156744480133
1789453823370849300,11.787849365234376,1.1862845420837402,-0.20992432534694672,0.4049205482006073
1789453823380789200,11.797789306640626,1.108183741569519,-0.18054988980293274,0.43440112471580505
1789453823390728200,11.807728271484375,1.089712142944336,-0.16860800981521606,0.3449162542819977
1789453823400668400,11.81766845703125,1.0529611110687256,-0.205344095826149,0.2758876383304596
1789453823410607400,11.827607421875,1.0051357746124268,-0.20584850013256073,0.31955069303512573
1789453823420547300,11.83754736328125,0.9151976108551025,-0.18850746750831604,0.4055483341217041
1789453823430486500,11.847486572265625,0.8309268951416016,-0.15641024708747864,0.4758989214897156
1789453823440426200,11.85742626953125,0.8221644759178162,-0.18327338993549347,0.5889986157417297
1789453823450365200,11.867365234375,0.8627579808235168,-0.31975987553596497,0.6316384673118591
1789453823460305400,11.877305419921875,0.8555980920791626,-0.3633422255516052,0.6411345601081848
1789453823470244400,11.887244384765625,0.7910771369934082,-0.4022717773914337,0.6926997303962708
1789453823480184300,11.897184326171875,0.6989562511444092,-0.3371615707874298,0.7401885986328125
1789453823490123300,11.907123291015624,0.6055424213409424,-0.3557696044445038,0.7425550818443298
1789453823500063500,11.9170634765625,0.555229127407074,-0.4214309751987457,0.6697300672531128
1789453823510002400,11.92700244140625,0.5447235107421875,-0.3796164095401764,0.6240866780281067
1789453823519942400,11.9369423828125,0.525640606880188,-0.24162322282791138,0.6287755370140076
1789453823529881300,11.94688134765625,0.5401881337165833,-0.20549984276294708,0.6160762310028076
1789453823539821300,11.9568212890625,0.5163177847862244,-0.19587218761444092,0.5381765365600586
1789453823549760300,11.96676025390625,0.43236297369003296,-0.0913604274392128,0.46195387840270996
1789453823559700200,11.9767001953125,0.30373385548591614,0.04920503497123718,0.38565322756767273
1789453823569639400,11.986639404296875,0.21600958704948425,0.1194634884595871,0.304146409034729
1789453823579579400,11.996579345703125,0.14465494453907013,0.1551251858472824,0.18339937925338745
1789453823589518300,12.006518310546875,0.052856042981147766,0.09616866707801819,0.03232596442103386
1789453823599458600,12.01645849609375,-0.10794955492019653,0.04581534117460251,-0.09106319397687912
1789453823609397500,12.0263974609375,-0.2009788453578949,0.0628044456243515,-0.1383281797170639
1789453823619337200,12.036337158203125,-0.2975405752658844,-0.002727815881371498,-0.1776357889175415
1789453823629276200,12.046276123046875,-0.38433006405830383,-0.12103235721588135,-0.271742582321167
1789453823639216400,12.05621630859375,-0.4712603986263275,-0.18461495637893677,-0.3632797598838806
1789453823649156400,12.06615625,-0.5805461406707764,-0.2509641647338867,-0.40906402468681335
1789453823659095300,12.07609521484375,-0.6806533336639404,-0.24499815702438354,-0.44405627250671387
1789453823669035500,12.086035400390625,-0.7662052512168884,-0.08300447463989258,-0.4789426028728485
1789453823678974500,12.095974365234374,-0.8547158241271973,-0.025922181084752083,-0.5229225754737854
1789453823688914200,12.1059140625,-0.9328769445419312,0.07183686643838882,-0.5567111372947693
1789453823698853400,12.115853271484376,-0.9486697912216187,0.16619408130645752,-0.5743378400802612
1789453823708793300,12.12579345703125,-0.9587439894676208,0.23955218493938446,-0.5872243642807007
1789453823718732300,12.135732177734376,-1.0116686820983887,0.2593523859977722,-0.5765742063522339
1789453823728672300,12.14567236328125,-1.097867488861084,0.24553510546684265,-0.5819564461708069
1789453823738611500,12.155611572265625,-1.18938148021698,0.31726792454719543,-0.5015022158622742
1789453823748551400,12.165551513671875,-1.2631521224975586,0.3851769268512726,-0.30131083726882935
1789453823758490400,12.175490478515625,-1.2825114727020264,0.3329721689224243,-0.06384903192520142
1789453823768430300,12.185430419921875,-1.2246055603027344,0.28234654664993286,0.1025969386100769
1789453823778369500,12.19536962890625,-1.0998610258102417,0.27731695771217346,0.18947194516658783
1789453823788309200,12.205309326171875,-1.0109457969665527,0.2482568323612213,0.1781761348247528
1789453823798248200,12.215248291015625,-0.9297124743461609,0.2736620604991913,0.11324075609445572
1789453823808188400,12.2251884765625,-0.8389982581138611,0.31784895062446594,0.09457625448703766
1789453823818127400,12.23512744140625,-0.7829768061637878,0.26474419236183167,0.019479641690850258
1789453823828067300,12.2450673828125,-0.7869734168052673,0.24742326140403748,-0.06172573193907738
1789453823838006300,12.25500634765625,-0.7435318827629089,0.372141569852829,-0.08565177023410797
1789453823847946500,12.264946533203124,-0.6692416667938232,0.3630058467388153,-0.12585511803627014
1789453823857885400,12.274885498046874,-0.6454487442970276,0.16130730509757996,-0.23771868646144867
1789453823867825200,12.2848251953125,-0.6625299453735352,-0.04420722648501396,-0.3603835999965668
1789453823877764400,12.294764404296876,-0.6461639404296875,-0.0792812779545784,-0.4010635316371918
1789453823887704300,12.304704345703126,-0.587840735912323,0.04057108983397484,-0.4015690088272095
1789453823897643300,12.314643310546876,-0.5177181363105774,0.20805886387825012,-0.4261690676212311
1789453823907583200,12.324583251953126,-0.4074457287788391,0.30782967805862427,-0.465774804353714
1789453823917522400,12.3345224609375,-0.2550998628139496,0.2337428778409958,-0.49711930751800537
1789453823927462400,12.34446240234375,-0.16538327932357788,0.06205181032419205,-0.5354541540145874
1789453823937401300,12.3544013671875,-0.1751200407743454,-0.16861136257648468,-0.610625147819519
1789453823947341600,12.364341552734375,-0.32053446769714355,-0.25831007957458496,-0.6511493921279907
1789453823957280500,12.374280517578125,-0.4963352382183075,-0.1566108912229538,-0.6157220005989075
