time,seconds_elapsed,z,y,x
1789454203152372500,0.07137255859375,0.26698437333106995,0.5043783783912659,0.6019420623779297
1789454203162312700,0.081312744140625,0.3222622573375702,0.6586009860038757,0.5118707418441772
1789454203172252700,0.091252685546875,0.34683701395988464,0.6993421912193298,0.43498802185058594
1789454203182192600,0.101192626953125,0.3834301829338074,0.6419655084609985,0.36257827281951904
1789454203192132600,0.111132568359375,0.4361685812473297,0.6023830771446228,0.30012500286102295
1789454203202072600,0.121072509765625,0.49022409319877625,0.6993234753608704,0.2823966145515442
1789454203212012500,0.131012451171875,0.5602756142616272,0.8433985114097595,0.24376505613327026
1789454203221952800,0.140952880859375,0.6353490352630615,1.0876550674438477,0.20369459688663483
1789454203231892500,0.150892578125,0.7608144879341125,1.2296987771987915,0.24819160997867584
1789454203241833700,0.160833740234375,0.9123177528381348,0.4377782642841339,0.2718322277069092
1789454203251773700,0.170773681640625,0.9587458372116089,-0.6516273617744446,0.33595868945121765
1789454203261713700,0.180713623046875,0.9402936100959778,-1.4701826572418213,0.48647069931030273
1789454203271653600,0.190653564453125,0.8045627474784851,-1.7794703245162964,0.6543446779251099
1789454203281593600,0.200593505859375,0.23776507377624512,-1.4810158014297485,0.9694170951843262
1789454203291533800,0.210533935546875,-0.2819599509239197,-1.4001450538635254,1.099344253540039
1789454203301473500,0.2204736328125,-0.2348339706659317,-1.608786940574646,0.9480524659156799
1789454203311413500,0.23041357421875,-0.10337360203266144,-1.3296606540679932,0.7612676620483398
1789454203321353700,0.240353759765625,-0.0898711085319519,-0.7882199287414551,0.5703352689743042
1789454203331293700,0.250293701171875,-0.014416255056858063,-0.45760712027549744,0.31816980242729187
1789454203341233700,0.260233642578125,0.11566771566867828,-0.3527962863445282,0.10548096895217896
1789454203351173600,0.270173583984375,0.28528866171836853,-0.19217240810394287,-0.0007376479916274548
1789454203361113600,0.280113525390625,0.41517743468284607,-0.04030511528253555,-0.06782906502485275
1789454203371053600,0.290053466796875,0.417126327753067,-0.11385656893253326,-0.027578582987189293
1789454203380993500,0.29999365234375,0.37735867500305176,-0.21800586581230164,0.08512400090694427
1789454203390933800,0.309933837890625,0.355541467666626,-0.3003290295600891,0.20809300243854523
1789454203400873700,0.319873779296875,0.3516803979873657,-0.21182312071323395,0.29024538397789
1789454203410813700,0.329813720703125,0.362548291683197,0.01723233237862587,0.3208806812763214
1789454203420753700,0.339753662109375,0.4012823700904846,0.11338096857070923,0.27830177545547485
1789454203430693600,0.349693603515625,0.47407999634742737,-0.012343871407210827,0.23285546898841858
1789454203440634600,0.359634521484375,0.5605970025062561,-0.34324535727500916,0.2585775852203369
1789454203450574600,0.36957470703125,0.7285826206207275,-0.7041110992431641,0.33689355850219727
1789454203460514600,0.3795146484375,0.9768286347389221,-0.9645594954490662,0.44890186190605164
1789454203470454800,0.389454833984375,1.2127851247787476,-1.0565168857574463,0.5628441572189331
1789454203480394500,0.39939453125,1.334681749343872,-0.9775872230529785,0.6202560663223267
1789454203490334700,0.409334716796875,1.2864238023757935,-0.8143531084060669,0.5840848684310913
1789454203500274700,0.419274658203125,1.1061583757400513,-0.6716422438621521,0.4801131784915924
1789454203510214700,0.429214599609375,0.9422051310539246,-0.6911635398864746,0.2834509611129761
1789454203520154600,0.439154541015625,0.7155956625938416,-0.8088880777359009,0.08899786323308945
1789454203530094600,0.449094482421875,0.5308328866958618,-0.9760083556175232,-0.08755764365196228
1789454203540034600,0.45903466796875,0.46507012844085693,-1.0613772869110107,-0.21633292734622955
1789454203549974800,0.468974853515625,0.4382760524749756,-1.1584837436676025,-0.34760528802871704
1789454203559914500,0.47891455078125,0.40954694151878357,-1.0321407318115234,-0.3205089569091797
1789454203569854700,0.488854736328125,0.3449672758579254,-0.7647995352745056,-0.2354249656200409
1789454203579794700,0.498794677734375,0.3339037001132965,-0.4747770428657532,-0.1809779703617096
1789454203589734700,0.508734619140625,0.37679868936538696,-0.19009830057621002,-0.17769108712673187
1789454203599675600,0.518675537109375,0.3803505599498749,-0.07221481949090958,-0.23471948504447937
1789454203609615600,0.52861572265625,0.39276134967803955,-0.05073273926973343,-0.33450552821159363
1789454203619555600,0.5385556640625,0.4169313907623291,-0.1408596932888031,-0.43433865904808044
1789454203629495600,0.54849560546875,0.47468990087509155,-0.30698803067207336,-0.47757622599601746
1789454203639435500,0.558435546875,0.5377333164215088,-0.38023561239242554,-0.5329684019088745
1789454203649375500,0.56837548828125,0.5139976739883423,-0.39587247371673584,-0.5991157293319702
1789454203659315700,0.578315673828125,0.432618111371994,-0.38323310017585754,-0.6627349257469177
1789454203669255400,0.58825537109375,0.36348918080329895,-0.28372007608413696,-0.7585878968238831
1789454203679195400,0.5981953125,0.2955404818058014,-0.12034951895475388,-0.8546558022499084
1789454203689135600,0.608135498046875,0.21321596205234528,0.05397365242242813,-0.9569342136383057
1789454203699075600,0.61807568359375,0.21413342654705048,0.18332365155220032,-1.0387688875198364
1789454203709015600,0.628015625,0.353877991437912,0.23088794946670532,-1.0824224948883057
1789454203718955500,0.63795556640625,0.523971676826477,0.0687568336725235,-1.127177357673645
1789454203728895500,0.6478955078125,0.6387733221054077,-0.23821792006492615,-1.1217509508132935
1789454203738835500,0.65783544921875,0.8322796821594238,-0.4613378345966339,-1.1617646217346191
1789454203748775400,0.667775390625,1.1752456426620483,-0.45496654510498047,-1.3176509141921997
1789454203758716700,0.677716552734375,1.5679426193237305,-0.278333455324173,-1.5068552494049072
1789454203768656400,0.687656494140625,1.8861228227615356,-0.14038892090320587,-1.717379093170166
1789454203778596400,0.697596435546875,2.082758903503418,-0.016937023028731346,-1.8990777730941772
1789454203788536600,0.70753662109375,2.202094078063965,-0.1962069272994995,-2.0533554553985596
1789454203798476500,0.7174765625,2.0578391551971436,-0.6725119352340698,-2.2043979167938232
1789454203808416500,0.72741650390625,2.0042967796325684,-0.8068801164627075,-2.2715115547180176
1789454203818356500,0.7373564453125,2.204923629760742,-1.0417394638061523,-2.5902154445648193
1789454203828296400,0.74729638671875,2.4593582153320312,-2.007561206817627,-2.975583076477051
1789454203838236700,0.757236572265625,2.746297597885132,-2.9629430770874023,-3.132301092147827
1789454203848176400,0.76717626953125,3.1583828926086426,-3.3521203994750977,-3.1050429344177246
1789454203858116600,0.77711669921875,3.644148349761963,-3.6797425746917725,-3.188450336456299
1789454203868056600,0.787056640625,4.370909690856934,-4.438761234283447,-3.560067653656006
1789454203877996500,0.79699658203125,4.625373363494873,-4.347004413604736,-3.5067927837371826
1789454203887937500,0.8069375,4.391738414764404,-4.297987461090088,-3.404618501663208
1789454203897877500,0.81687744140625,4.102320671081543,-4.553139686584473,-3.262730121612549
1789454203907817700,0.826817626953125,3.8072855472564697,-4.6726884841918945,-3.010770320892334
1789454203917757400,0.83675732421875,3.47860050201416,-4.621682167053223,-2.710294008255005
1789454203927697400,0.846697509765625,3.246345281600952,-4.3737897872924805,-2.2624850273132324
1789454203937637600,0.8566376953125,3.3061089515686035,-4.231767654418945,-1.8869976997375488
1789454203947577600,0.86657763671875,3.604701042175293,-4.038838863372803,-1.5617589950561523
1789454203957517600,0.876517578125,4.021207332611084,-3.6795382499694824,-1.2329198122024536
1789454203967457500,0.88645751953125,4.0968918800354,-3.461008071899414,-0.9940096139907837
1789454203977397500,0.8963974609375,4.42841911315918,-3.30548095703125,-0.9331856966018677
1789454203987337500,0.90633740234375,4.759800910949707,-2.6122353076934814,-1.2110710144042969
1789454203997277400,0.91627734375,4.932995319366455,-2.0254340171813965,-1.8357542753219604
1789454204007217400,0.926217529296875,5.063451766967773,-1.8493263721466064,-2.656022548675537
1789454204017158400,0.936158447265625,5.336667537689209,-2.4163413047790527,-3.58298397064209
1789454204027098400,0.946098388671875,5.732897758483887,-3.161987066268921,-4.6780619621276855
1789454204037038600,0.95603857421875,5.951327800750732,-3.4448766708374023,-5.166757106781006
1789454204046978600,0.965978515625,5.704713821411133,-2.663057804107666,-4.3658766746521
1789454204056918500,0.97591845703125,5.103270530700684,-1.5813531875610352,-2.8665995597839355
1789454204066858500,0.9858583984375,4.272547245025635,-0.9515112638473511,-1.0188264846801758
1789454204076798500,0.995798583984375,3.5659708976745605,-0.6938709020614624,0.6908942461013794
1789454204086738700,1.00573876953125,3.048468589782715,-0.21874471008777618,1.619991660118103
1789454204096678400,1.015678466796875,2.634476900100708,0.37052759528160095,2.2962393760681152
1789454204106618400,1.025618408203125,2.2003591060638428,0.7410258054733276,2.8667726516723633
1789454204116558600,1.03555859375,1.7879942655563354,1.3773417472839355,3.169069766998291
1789454204126498600,1.04549853515625,1.3623265027999878,1.727255940437317,1.4323393106460571
1789454204136439600,1.055439453125,0.9940195679664612,2.145120859146118,0.3496790826320648
1789454204146379500,1.065379638671875,0.5444044470787048,1.83567214012146,-0.38574492931365967
1789454204156319700,1.07531982421875,0.28806567192077637,1.3935178518295288,-0.5302408933639526
1789454204166259500,1.085259521484375,-0.20302289724349976,0.9156709909439087,-0.47610828280448914
1789454204176199400,1.095199462890625,-0.4201189875602722,0.5261858105659485,-0.3331766724586487
1789454204186139600,1.1051396484375,-0.494774729013443,0.1582840383052826,-0.10892226547002792
1789454204196079600,1.11507958984375,-0.5494318604469299,-0.12152630090713501,0.06973829120397568
1789454204206019300,1.125019287109375,-0.49434807896614075,-0.4314720332622528,-0.09776345640420914
1789454204215959600,1.13495947265625,-0.15371567010879517,-0.6312040686607361,-0.17466703057289124
1789454204225899500,1.1448994140625,0.093492291867733,-0.9824396967887878,-0.0702977105975151
1789454204235839500,1.154839599609375,0.04342113062739372,-1.1811590194702148,-0.21441839635372162
1789454204245780500,1.164780517578125,0.01703830435872078,-1.1586172580718994,-0.3736237585544586
1789454204255720700,1.174720703125,0.08836734294891357,-1.0413638353347778,-0.36324542760849
1789454204265660400,1.184660400390625,0.10937423259019852,-1.351264238357544,-0.09238087385892868
1789454204275600400,1.194600341796875,0.23382775485515594,-2.552295207977295,1.0862822532653809
1789454204285540600,1.20454052734375,0.6344579458236694,-6.459714889526367,6.712233066558838
1789454204295480600,1.21448046875,-0.3514280319213867,-6.38364315032959,5.055150985717773
1789454204305420300,1.224420166015625,-0.0839231088757515,-3.584592580795288,-0.6531750559806824
1789454204315360500,1.234360595703125,0.71638023853302,-2.4902946949005127,-0.5911785364151001
1789454204325300500,1.244300537109375,0.30580243468284607,-2.3715343475341797,-0.14338961243629456
1789454204335240700,1.25424072265625,0.011921549215912819,-1.9874444007873535,-0.01931425929069519
1789454204345180400,1.264180419921875,-0.03496606647968292,-1.2613996267318726,0.21499145030975342
1789454204355120400,1.274120361328125,-0.08883888274431229,-0.9404500126838684,0.09678065776824951
1789454204365061600,1.2840615234375,-0.28327322006225586,-0.5770546793937683,0.0302219707518816
1789454204375001300,1.29400146484375,-0.6763736009597778,-0.32056301832199097,0.0420922115445137
1789454204384941600,1.303941650390625,-1.0385223627090454,-0.3661334812641144,0.040539950132369995
1789454204394881500,1.313881591796875,-1.2416483163833618,-0.4290192127227783,-0.0978003442287445
1789454204404821500,1.323821533203125,-1.5026376247406006,-0.7395748496055603,-0.161366805434227
1789454204414761500,1.333761474609375,-1.7424306869506836,-1.132473111152649,-0.307346910238266
1789454204424701400,1.343701416015625,-1.861255168914795,-1.3692638874053955,-0.6304482221603394
1789454204434641700,1.3536416015625,-1.6005836725234985,-1.5574761629104614,-0.8680458664894104
1789454204444581600,1.36358154296875,-0.9288245439529419,-1.8247498273849487,-1.0863959789276123
1789454204454521300,1.373521240234375,-0.5900046229362488,-2.0094473361968994,-1.392987608909607
1789454204464462600,1.383462646484375,-0.7270664572715759,-2.412193536758423,-1.791628360748291
1789454204474402300,1.39340234375,-0.9914683103561401,-2.644098997116089,-2.1146812438964844
1789454204484342500,1.403342529296875,-1.9771513938903809,-1.2578710317611694,-1.6210860013961792
1789454204494282500,1.413282470703125,-3.2341835498809814,-0.2651827335357666,-1.0273529291152954
1789454204504222700,1.42322265625,-4.048920631408691,-0.029620874673128128,-0.874212384223938
1789454204514162400,1.433162353515625,-3.638594388961792,0.199623242020607,-0.958425760269165
1789454204524102400,1.443102294921875,-3.985391855239868,-0.34032106399536133,-0.7077246308326721
1789454204534042600,1.453042724609375,-4.311087608337402,-1.9194525480270386,1.0624996423721313
1789454204543982600,1.462982666015625,-2.8882293701171875,-3.8144476413726807,2.9401543140411377
1789454204553922300,1.47292236328125,-1.2601126432418823,-3.6735520362854004,3.6324973106384277
1789454204563863600,1.482863525390625,-0.34792229533195496,-2.191375732421875,2.909834861755371
1789454204573803500,1.492803466796875,0.3734297454357147,-0.19519048929214478,1.6245685815811157
1789454204583743500,1.502743408203125,0.7648811340332031,0.9066147208213806,0.49762091040611267
1789454204593683500,1.512683349609375,0.5065036416053772,0.7992845773696899,0.06044650822877884
1789454204603623700,1.522623779296875,0.29309988021850586,0.4162851870059967,-0.07797368615865707
1789454204613563600,1.532563720703125,0.311923086643219,0.41087815165519714,-0.2823675572872162
1789454204623503400,1.54250341796875,0.43688076734542847,0.5558078289031982,-0.4612591564655304
1789454204633443600,1.552443603515625,0.6216828227043152,0.47100529074668884,-0.5356684327125549
1789454204643383000,1.562383056640625,0.8516559600830078,0.4294600486755371,-0.6324571371078491
1789454204653323000,1.572322998046875,1.4527034759521484,0.022751400247216225,-1.1550379991531372
1789454204663263000,1.582262939453125,2.132201671600342,-1.0606749057769775,-2.2032740116119385
1789454204673204000,1.592203857421875,2.2872159481048584,0.15045323967933655,-1.818679928779602
1789454204683144200,1.602144287109375,1.828560471534729,1.440617322921753,-1.1976655721664429
1789454204693084000,1.612083984375,1.4279471635818481,0.8606940507888794,-0.5069257616996765
1789454204703023900,1.62202392578125,1.2857434749603271,0.048599205911159515,0.07703227549791336
1789454204712964000,1.631964111328125,1.2043730020523071,-0.22181949019432068,0.463451087474823
1789454204722904000,1.641904052734375,1.2358424663543701,-0.15173164010047913,0.2959631681442261
1789454204732844000,1.651843994140625,1.7419168949127197,-0.20799517631530762,-0.45965898036956787
1789454204742784000,1.661783935546875,2.495375394821167,-0.300433486700058,-0.8581686019897461
1789454204752724000,1.671723876953125,3.129356861114502,0.004221741110086441,-0.960159957408905
1789454204762665000,1.6816650390625,3.170173168182373,0.5633304119110107,-1.178373098373413
1789454204772605000,1.69160498046875,2.8263368606567383,0.43616899847984314,-1.1507248878479004
1789454204782545200,1.701545166015625,2.7313148975372314,0.08159676194190979,-0.39298805594444275
1789454204792485000,1.711485107421875,2.3264849185943604,-0.750887393951416,0.9592750668525696
1789454204802424800,1.7214248046875,0.946916401386261,-2.4469172954559326,0.2988453805446625
1789454204812365000,1.731364990234375,0.20838962495326996,-1.4656540155410767,-1.6568655967712402
1789454204822305000,1.741304931640625,1.4442064762115479,-0.2471359223127365,-1.3273411989212036
1789454204832245000,1.751244873046875,3.3389148712158203,-0.6744019985198975,-1.6362076997756958
1789454204842185000,1.76118505859375,4.05147647857666,-0.7979857325553894,-1.7783948183059692
1789454204852125000,1.771125,3.4754750728607178,-0.6274986863136292,-2.0364272594451904
1789454204862066000,1.78106591796875,2.7197818756103516,-0.8703100085258484,-2.2113802433013916
1789454204872006000,1.791005859375,2.255053997039795,-0.521849513053894,-1.6741057634353638
1789454204881946000,1.800946044921875,1.9929109811782837,-0.5515776872634888,-1.0012805461883545
1789454204891886000,1.810885986328125,1.85068678855896,-0.9807252883911133,-0.2215651124715805
1789454204901825800,1.82082568359375,1.4106169939041138,-1.1315265893936157,0.24863359332084656
1789454204911766000,1.83076611328125,0.7022708654403687,-1.1695019006729126,0.35178208351135254
1789454204921706000,1.8407060546875,0.1286281943321228,-1.5497798919677734,0.4635280668735504
1789454204931646200,1.850646240234375,-0.07538245618343353,-2.001408338546753,1.1736199855804443
1789454204941587000,1.8605869140625,-2.1221349239349365,-1.198265790939331,1.9245762825012207
1789454204951527200,1.870527099609375,-2.8591856956481934,-2.476152181625366,2.615743637084961
1789454204961467100,1.880467041015625,1.950244665145874,-6.448211669921875,3.224613904953003
1789454204971406800,1.89040673828125,3.1409995555877686,-5.599346160888672,2.813788652420044
1789454204981347000,1.90034716796875,5.044696807861328,-6.523396015167236,2.2305991649627686
1789454204991287000,1.910287109375,6.0290608406066895,-4.563385486602783,0.34158456325531006
1789454205001227000,1.92022705078125,4.247799396514893,-2.350900411605835,-1.270473599433899
1789454205011167000,1.9301669921875,2.0714855194091797,-1.469847559928894,-1.209601640701294
1789454205021107000,1.94010693359375,-0.573663055896759,0.0728258565068245,-0.04079360142350197
1789454205031048000,1.9500478515625,-0.3827466368675232,-0.42751020193099976,-0.33736667037010193
1789454205040988000,1.95998779296875,0.24578037858009338,0.001737681683152914,-0.11247288435697556
1789454205050928000,1.96992822265625,0.3244413733482361,1.4091815948486328,-0.6862480044364929
1789454205060868000,1.9798681640625,-0.2867128849029541,3.4103691577911377,-2.1983802318573
1789454205070807800,1.989807861328125,0.6460017561912537,-0.2843247354030609,-1.4426496028900146
1789454205080748000,1.999748046875,0.8561068177223206,-2.025982141494751,-0.32465648651123047
1789454205090688000,2.00968798828125,0.8822374939918518,-1.7851672172546387,0.5431929230690002
1789454205100628000,2.0196279296875,0.7153497934341431,-1.5053303241729736,0.6337363123893738
1789454205110568000,2.02956787109375,0.37844422459602356,-1.0850462913513184,0.5858137607574463
1789454205120509000,2.039509033203125,0.08436346799135208,-0.7121762037277222,0.7386506795883179
1789454205130449200,2.04944921875,-0.12094095349311829,-0.47252926230430603,0.7344732284545898
1789454205140388900,2.059388916015625,-0.08306590467691422,-0.5313646197319031,0.6491663455963135
1789454205150329000,2.0693291015625,0.31568893790245056,-1.0364083051681519,0.6735188364982605
1789454205160269000,2.07926904296875,0.42327526211738586,-0.8098652958869934,0.16785471141338348
1789454205170209000,2.089208984375,0.4944775402545929,-0.01981143280863762,-0.3234737515449524
1789454205180149000,2.09914892578125,0.41706618666648865,0.207005113363266,-0.2222326546907425
1789454205190089000,2.1090888671875,0.2905322015285492,0.27525365352630615,-0.15657082200050354
1789454205200029000,2.11902880859375,0.17453835904598236,0.17676164209842682,-0.1675814837217331
1789454205209970000,2.128969970703125,0.152000293135643,0.040876250714063644,-0.17407560348510742
1789454205219910000,2.138909912109375,0.07038700580596924,0.6158563494682312,0.8500392436981201
1789454205229850000,2.14885009765625,0.0781373381614685,1.3137118816375732,0.3657899796962738
1789454205239790000,2.1587900390625,0.47710585594177246,-0.5876195430755615,-0.3725261688232422
1789454205249730000,2.16872998046875,0.2406669557094574,-0.7458674907684326,0.23539599776268005
1789454205259670000,2.178669921875,0.1677437126636505,-0.9561704397201538,0.4718073904514313
1789454205269610000,2.18860986328125,0.08119896799325943,-0.7397654056549072,0.30283647775650024
1789454205279550000,2.198550048828125,-0.035835616290569305,-0.4553224444389343,0.15656334161758423
1789454205289491000,2.208490966796875,-0.09966999292373657,-0.3153054118156433,0.15074779093265533
1789454205299431200,2.21843115234375,-0.058188095688819885,-0.28475990891456604,0.13847218453884125
1789454205309371000,2.228370849609375,-0.13445143401622772,-0.22386354207992554,0.09972664713859558
1789454205319310800,2.238310791015625,-0.16697348654270172,-0.28343328833580017,0.20488381385803223
1789454205329251000,2.2482509765625,2.094705581665039,0.09789516031742096,-1.6275657415390015
1789454205339191000,2.25819091796875,2.2229912281036377,-1.590076208114624,0.40293699502944946
1789454205349131000,2.268131103515625,1.9507195949554443,-2.4662249088287354,0.7654781937599182
1789454205359071000,2.278071044921875,2.298611879348755,-3.3457295894622803,0.8195787072181702
1789454205369012200,2.28801220703125,2.9514825344085693,-2.955745220184326,0.7346787452697754
1789454205378952000,2.297951904296875,3.436774492263794,-2.1760671138763428,0.6288597583770752
1789454205388892000,2.307891845703125,3.2093098163604736,-2.0138473510742188,0.7727412581443787
1789454205398832000,2.31783203125,3.1270360946655273,-1.8472809791564941,0.9784557819366455
1789454205408772000,2.327772216796875,3.5872254371643066,-1.195923089981079,1.0529422760009766
1789454205418711800,2.3377119140625,3.2422022819519043,-0.21804597973823547,0.6363704204559326
1789454205428652000,2.347652099609375,2.8468716144561768,-0.3270779550075531,0.49254369735717773
1789454205438592000,2.357592041015625,2.117434024810791,-0.38178521394729614,0.621188759803772
1789454205448533000,2.367532958984375,0.9977687001228333,-0.7594976425170898,0.9660031199455261
1789454205458473000,2.377472900390625,0.6763540506362915,-0.8482394218444824,1.074601650238037
1789454205468413200,2.3874130859375,0.0934612974524498,-0.40302571654319763,1.0254931449890137
1789454205478353000,2.397352783203125,-0.12537848949432373,-0.42805925011634827,0.6687320470809937
1789454205488292900,2.40729296875,-0.11680871248245239,0.09961333125829697,0.18846316635608673
1789454205498233000,2.417233154296875,-0.2022312730550766,0.665260374546051,-0.334013432264328
1789454205508173000,2.427173095703125,-0.4634604752063751,0.8908487558364868,-0.6790587306022644
1789454205518113000,2.437113037109375,-0.9080991744995117,0.913695752620697,-0.8864737749099731
1789454205528054000,2.447053955078125,-1.7213270664215088,1.1428481340408325,-1.8186733722686768
1789454205537994000,2.456993896484375,-2.670344829559326,0.8697220087051392,-2.1800436973571777
1789454205547934000,2.466933837890625,-3.139601230621338,0.7128490209579468,-0.760794997215271
1789454205557874000,2.4768740234375,-3.018996477127075,1.7899017333984375,0.490394651889801
1789454205567814100,2.486814208984375,-2.4288570880889893,2.3291726112365723,1.0504070520401
1789454205577754000,2.496754150390625,-1.8623466491699219,2.1617050170898438,0.48032957315444946
1789454205587693800,2.50669384765625,-1.2630642652511597,1.5924259424209595,-0.4036628007888794
1789454205597634000,2.516634033203125,-0.24931824207305908,0.3748330771923065,-0.459724098443985
1789454205607575000,2.526574951171875,0.45317304134368896,-0.04274524748325348,0.20040613412857056
1789454205617515000,2.536514892578125,-0.06775526702404022,0.844193696975708,0.06904732435941696
1789454205627455000,2.546455078125,0.018669098615646362,0.5597297549247742,-0.07437428832054138
1789454205637395500,2.5563955078125,0.03419944643974304,0.3424214720726013,-0.10801111906766891
1789454205647335200,2.566335205078125,0.16496385633945465,0.12939013540744781,0.024555185809731483
1789454205657275400,2.576275390625,0.11382883787155151,0.27696430683135986,0.0005488861352205276
1789454205667215400,2.58621533203125,0.07273519784212112,0.37336140871047974,-0.07357141375541687
1789454205677155600,2.596155517578125,0.07180646806955338,0.37711551785469055,-0.036766231060028076
1789454205687096300,2.606096435546875,0.10237796604633331,0.2791095972061157,-0.02576977014541626
1789454205697036500,2.61603662109375,0.1108875423669815,0.22514647245407104,-0.007996730506420135
1789454205706976500,2.6259765625,0.11933428794145584,0.16255393624305725,0.0015483046881854534
1789454205716916200,2.635916259765625,0.10951665043830872,0.11214196681976318,0.0030511305667459965
1789454205726856400,2.6458564453125,0.043155476450920105,0.010030779987573624,0.03338214010000229
1789454205736796400,2.65579638671875,0.07237618416547775,-0.08047690987586975,0.039819758385419846
1789454205746736400,2.665736328125,0.0957542136311531,-0.10798043757677078,0.030675530433654785
1789454205756677400,2.675677490234375,0.08762975037097931,-0.10131613165140152,0.028501790016889572
1789454205766617300,2.685617431640625,0.037239547818899155,-0.11802080273628235,0.01579158566892147
1789454205776557600,2.6955576171875,-0.0186659824103117,-0.1316608190536499,-0.003165891859680414
1789454205786497300,2.705497314453125,-0.06992784142494202,-0.11081837117671967,-0.009513536468148232
1789454205796437500,2.7154375,-0.09177830815315247,-0.13320747017860413,-0.0074693309143185616
1789454205806377500,2.72537744140625,-0.11905306577682495,-0.10925579071044922,-0.015745103359222412
1789454205816317400,2.7353173828125,-0.12632150948047638,-0.17871761322021484,-0.05485645309090614
1789454205826258400,2.745258544921875,-0.12728530168533325,-0.21809537708759308,-0.07887070626020432
1789454205836198400,2.755198486328125,-0.12713071703910828,-0.23982512950897217,-0.09616478532552719
1789454205846138400,2.765138427734375,-0.10866621881723404,-0.28074193000793457,-0.09775762259960175
1789454205856078300,2.775078369140625,-0.08338909596204758,-0.34923097491264343,-0.10027563571929932
1789454205866018300,2.785018310546875,-0.046413496136665344,-0.42901235818862915,-0.08141939342021942
1789454205875958500,2.79495849609375,-0.015289796516299248,-0.49398306012153625,-0.06743583083152771
1789454205885898200,2.804898193359375,0.02351272664964199,-0.5449585914611816,-0.06070495769381523
1789454205895839500,2.814839599609375,0.05114256218075752,-0.610177755355835,-0.05311065912246704
1789454205905779500,2.824779541015625,0.07793662697076797,-0.7044715285301208,-0.04288944602012634
1789454205915719200,2.83471923828125,0.07666553556919098,-0.6412330269813538,-0.021341774612665176
1789454205925659400,2.844659423828125,0.08339028060436249,-0.5653814077377319,-0.010822554118931293
1789454205935599400,2.854599365234375,0.1003316268324852,-0.5716636180877686,-0.0011213627876713872
1789454205945539600,2.86453955078125,0.10106346011161804,-0.5811372399330139,0.021201252937316895
1789454205955479300,2.874479248046875,0.07096679508686066,-0.5405681133270264,0.0461631678044796
1789454205965420500,2.884420654296875,0.025955911725759506,-0.5031826496124268,0.08333956450223923
1789454205975360500,2.894360595703125,-0.019643960520625114,-0.48096105456352234,0.11597587168216705
1789454205985300200,2.90430029296875,-0.0689164325594902,-0.41160860657691956,0.12929807603359222
1789454205995240400,2.914240478515625,-0.10027562081813812,-0.3307235836982727,0.1257299929857254
1789454206005180400,2.924180419921875,-0.12198863923549652,-0.2830474078655243,0.11584167927503586
1789454206015120400,2.934120361328125,-0.11885567754507065,-0.28911450505256653,0.12310485541820526
1789454206025060400,2.944060302734375,-0.10743897408246994,-0.22211308777332306,0.13696394860744476
1789454206035001300,2.95400146484375,-0.07166533172130585,-0.17806923389434814,0.16291078925132751
1789454206044941300,2.96394140625,-0.03755024075508118,-0.13146817684173584,0.18594765663146973
1789454206054881300,2.97388134765625,-0.01849089190363884,-0.08658143877983093,0.20416142046451569
1789454206064821500,2.983821533203125,0.007387311197817326,-0.06780402362346649,0.2308175414800644
1789454206074761500,2.993761474609375,-0.014929680153727531,-0.06276143342256546,0.2533279359340668
1789454206084701200,3.003701171875,-0.059909138828516006,-0.06197819858789444,0.27282893657684326
1789454206094641400,3.013641357421875,-0.06873204559087753,-0.13729554414749146,0.24563385546207428
1789454206104582400,3.02358251953125,-0.030581200495362282,-0.1161617562174797,0.24833616614341736
1789454206114522400,3.0335224609375,0.0005964598385617137,-0.00988762453198433,0.27342718839645386
1789454206124462300,3.04346240234375,0.0686226487159729,0.0066061303950846195,0.2785910367965698
1789454206134402300,3.05340234375,0.11803308874368668,-0.005456800572574139,0.29236266016960144
1789454206144342500,3.063342529296875,0.1444428563117981,0.0022245552390813828,0.2856033146381378
1789454206154282200,3.0732822265625,0.1854456663131714,0.03448448330163956,0.2898203432559967
1789454206164223500,3.083223388671875,0.222461998462677,0.08379797637462616,0.3078960180282593
1789454206174163500,3.09316357421875,0.2183597981929779,0.12367606908082962,0.3121950626373291
1789454206184103400,3.103103515625,0.18067367374897003,0.12169095128774643,0.3059515357017517
1789454206194043400,3.11304345703125,0.212986558675766,0.1409280151128769,0.30803099274635315
1789454206203983400,3.1229833984375,0.21886441111564636,0.14460237324237823,0.3342317044734955
1789454206213923300,3.13292333984375,0.2105899304151535,0.13636226952075958,0.3461161255836487
1789454206223863300,3.14286328125,0.2028779536485672,0.12614797055721283,0.34262314438819885
1789454206233804500,3.152804443359375,0.18562035262584686,0.15709680318832397,0.35279586911201477
1789454206243744300,3.162744140625,0.16454383730888367,0.1889125257730484,0.3716667890548706
1789454206253684200,3.172684326171875,0.15672855079174042,0.2307603806257248,0.38359305262565613
1789454206263624400,3.18262451171875,0.1551104187965393,0.29005512595176697,0.3892855644226074
1789454206273564400,3.192564453125,0.1681603044271469,0.32923802733421326,0.3994496166706085
1789454206283504400,3.20250439453125,0.19830383360385895,0.3492114841938019,0.42717525362968445
1789454206293445400,3.2124453125,0.21788182854652405,0.36784374713897705,0.4569983184337616
1789454206303385600,3.222385498046875,0.24582770466804504,0.36331796646118164,0.46241438388824463
1789454206313325300,3.2323251953125,0.2761525809764862,0.326045960187912,0.45527780055999756
1789454206323265300,3.242265380859375,0.30930495262145996,0.2988649308681488,0.4626678228378296
1789454206333205500,3.25220556640625,0.33743900060653687,0.30069205164909363,0.4807688891887665
1789454206343145500,3.2621455078125,0.36544400453567505,0.3269934356212616,0.5113776922225952
1789454206353085200,3.272085205078125,0.3975234925746918,0.341281533241272,0.5460126996040344
1789454206363026400,3.2820263671875,0.43384847044944763,0.36150506138801575,0.5764688849449158
1789454206372966400,3.29196630859375,0.4770095646381378,0.3692370355129242,0.5899756550788879
1789454206382906400,3.30190625,0.5321468710899353,0.3882051110267639,0.6011402010917664
1789454206392846300,3.311846435546875,0.5722126364707947,0.4307524859905243,0.6248918771743774
1789454206402786600,3.32178662109375,0.5932372212409973,0.43656402826309204,0.6398687362670898
1789454206412726500,3.3317265625,0.6009916663169861,0.455274373292923,0.6308093070983887
1789454206422667500,3.34166748046875,0.5910676717758179,0.48610687255859375,0.6019997596740723
1789454206432607500,3.351607421875,0.5763128995895386,0.4731503129005432,0.5647629499435425
1789454206442547200,3.361547119140625,0.5472956299781799,0.47047463059425354,0.5272113084793091
1789454206452487400,3.3714873046875,0.49549880623817444,0.5625876784324646,0.5619961023330688
1789454206462427400,3.381427490234375,0.44375917315483093,0.572053849697113,0.5856241583824158
1789454206472367400,3.391367431640625,0.3926745355129242,0.684511125087738,0.6462933421134949
1789454206482308400,3.401308349609375,0.38830217719078064,0.7146626710891724,0.7215167284011841
1789454206492248300,3.411248291015625,0.47423022985458374,0.6342329382896423,0.8019444942474365
1789454206502188500,3.4211884765625,0.5948280096054077,0.4874701201915741,0.8198755383491516
1789454206512128300,3.431128173828125,0.6862044930458069,0.4038519263267517,0.7674018144607544
1789454206522068500,3.441068359375,0.7363486289978027,0.4036042392253876,0.7190273404121399
1789454206532008400,3.451008544921875,0.7675318121910095,0.42987149953842163,0.7030973434448242
1789454206541949200,3.46094921875,0.7708436846733093,0.40760719776153564,0.7076992988586426
1789454206551889400,3.470889404296875,0.7610707879066467,0.44634971022605896,0.7156072854995728
1789454206561829400,3.480829345703125,0.7145357728004456,0.5239760279655457,0.7187554240226746
1789454206571769600,3.49076953125,0.6665728092193604,0.569546639919281,0.7556465268135071
1789454206581709300,3.500709228515625,0.6319061517715454,0.5524651408195496,0.8029599785804749
1789454206591649300,3.510649169921875,0.5644107460975647,0.39342886209487915,0.8205220103263855
1789454206601590300,3.52059033203125,0.5524249076843262,0.26299068331718445,0.8032529950141907
1789454206611530200,3.5305302734375,0.605406641960144,0.2997486889362335,0.7419298887252808
1789454206621470500,3.540470458984375,0.6053573489189148,0.3601933717727661,0.6571636199951172
1789454206631410400,3.550410400390625,0.559052586555481,0.3734200596809387,0.5706455111503601
1789454206641350700,3.5603505859375,0.5177536010742188,0.32655057311058044,0.49116694927215576
1789454206651290600,3.57029052734375,0.4880879819393158,0.28885889053344727,0.39787864685058594
1789454206661231900,3.58023193359375,0.46033838391304016,0.3026215732097626,0.24426034092903137
1789454206671171600,3.590171630859375,0.3973751962184906,0.38141894340515137,0.06835982203483582
1789454206681111800,3.60011181640625,0.3188692033290863,0.4613659679889679,-0.13832944631576538
1789454206691051800,3.6100517578125,0.2553502321243286,0.45976799726486206,-0.3336697816848755
1789454206700991700,3.61999169921875,0.21666249632835388,0.5307162404060364,-0.5271548628807068
1789454206710931700,3.629931640625,0.09338447451591492,0.6643638610839844,-0.7432845234870911
1789454206720873000,3.639873046875,-0.15960118174552917,0.7143980264663696,-0.9527818560600281
1789454206730812700,3.649812744140625,-0.4498511254787445,0.657784640789032,-1.1284295320510864
1789454206740752600,3.659752685546875,-0.6937378644943237,0.5362390279769897,-1.2937300205230713
1789454206750692900,3.66969287109375,-0.9052147269248962,0.41594937443733215,-1.420286774635315
1789454206760632800,3.6796328125,-1.1287846565246582,0.44077643752098083,-1.4637316465377808
1789454206770572500,3.689572509765625,-1.320029377937317,0.5274057388305664,-1.4538084268569946
1789454206780513800,3.699513671875,-1.4299737215042114,0.4093744456768036,-1.4245713949203491
1789454206790453800,3.709453857421875,-1.5045711994171143,-0.007814504206180573,-1.3832143545150757
1789454206800393700,3.719393798828125,-1.592527151107788,-0.3910931944847107,-1.3853321075439453
1789454206810333700,3.729333740234375,-1.6921864748001099,-0.5487365126609802,-1.4199808835983276
1789454206820274000,3.73927392578125,-1.8105533123016357,-0.47629109025001526,-1.5763436555862427
1789454206830214000,3.7492138671875,-1.962726354598999,-0.5015515089035034,-1.808137059211731
1789454206840154600,3.759154541015625,-2.120075225830078,-0.8494959473609924,-1.8860244750976562
1789454206850094800,3.7690947265625,-2.1645073890686035,-1.1457628011703491,-1.9724277257919312
1789454206860034800,3.779034912109375,-2.105748176574707,-1.1424442529678345,-2.0813708305358887
1789454206869974800,3.788974853515625,-2.0047202110290527,-0.9258080720901489,-2.1025402545928955
1789454206879914800,3.798914794921875,-1.949472427368164,-0.6097115874290466,-2.084552526473999
1789454206889854700,3.808854736328125,-1.9757496118545532,-0.33750665187835693,-2.0787360668182373
1789454206899795700,3.818795654296875,-2.0510306358337402,-0.2523840367794037,-2.060382604598999
1789454206909735700,3.828735595703125,-2.1122844219207764,-0.36094436049461365,-2.006578207015991
1789454206919676000,3.838676025390625,-2.1886112689971924,-0.5401570200920105,-2.0442261695861816
1789454206929615600,3.84861572265625,-2.2495391368865967,-0.7526722550392151,-2.1688334941864014
1789454206939555600,3.8585556640625,-2.2744758129119873,-0.9536601901054382,-2.28790020942688
1789454206949495800,3.868495849609375,-2.25813627243042,-1.048218011856079,-2.43208384513855
1789454206959436500,3.8784365234375,-2.1918935775756836,-1.0901745557785034,-2.62969708442688
1789454206969376800,3.888376708984375,-2.11344051361084,-1.1154018640518188,-2.823420286178589
1789454206979316700,3.898316650390625,-2.017113208770752,-1.2941206693649292,-2.9482779502868652
1789454206989257000,3.908257080078125,-1.9292948246002197,-1.675413727760315,-2.9360456466674805
1789454206999196700,3.91819677734375,-1.9341093301773071,-1.9746142625808716,-2.935620069503784
1789454207009138000,3.928137939453125,-1.9749339818954468,-2.1050336360931396,-3.1145520210266113
1789454207019078000,3.938077880859375,-1.8836853504180908,-2.0510611534118652,-3.388335943222046
1789454207029017600,3.948017578125,-1.7984282970428467,-1.9114638566970825,-3.5874459743499756
1789454207038957800,3.957957763671875,-1.7034482955932617,-1.9279065132141113,-3.8374032974243164
1789454207048897800,3.967897705078125,-1.3638510704040527,-1.575143814086914,-3.860903739929199
1789454207058837800,3.977837646484375,-1.0958571434020996,-1.3788952827453613,-3.8515625
1789454207068778800,3.98777880859375,-1.0033063888549805,-1.0573304891586304,-3.733848810195923
1789454207078718700,3.99771875,-0.9853932857513428,-0.9370449185371399,-3.703195571899414
1789454207088658700,4.00765869140625,-1.1428998708724976,-0.7323710322380066,-3.6259565353393555
1789454207098598700,4.0175986328125,-1.0709012746810913,-0.8878517150878906,-3.751307487487793
1789454207108539000,4.027538818359375,-0.7213898301124573,-0.8370535969734192,-3.7254531383514404
1789454207118479600,4.037479736328125,-0.611499011516571,-0.9558223485946655,-3.4448060989379883
1789454207128419800,4.047419921875,-0.5703241229057312,-0.9054512977600098,-3.1410727500915527
1789454207138359800,4.05735986328125,-0.7733861207962036,-0.647139847278595,-2.877246618270874
1789454207148299800,4.0672998046875,-0.4674813747406006,-0.8270318508148193,-2.590177536010742
1789454207158239700,4.07723974609375,-0.40326082706451416,-0.8259173035621643,-2.2414259910583496
1789454207168179700,4.0871796875,-0.35421839356422424,-0.8015313744544983,-1.9399970769882202
1789454207178121000,4.097120849609375,-0.26708269119262695,-0.8110638856887817,-1.674622893333435
1789454207188060700,4.107060791015625,-0.12972603738307953,-0.7522422075271606,-1.4437211751937866
1789454207198000600,4.117000732421875,0.04479996860027313,-0.5054734349250793,-1.271000623703003
1789454207207940900,4.12694091796875,0.273245632648468,-0.20312172174453735,-1.1058177947998047
1789454207217880800,4.136880859375,0.4652978777885437,0.01363428495824337,-0.9074589014053345
1789454207227821800,4.14682177734375,0.5671019554138184,0.20593181252479553,-0.6728147864341736
1789454207237761800,4.15676171875,0.630935788154602,0.30440962314605713,-0.4467163681983948
1789454207247701800,4.16670166015625,0.6809872984886169,0.29561135172843933,-0.27754366397857666
1789454207257641700,4.176641845703125,0.6986909508705139,0.3898851275444031,-0.18146534264087677
1789454207267581700,4.186581787109375,0.7147183418273926,0.5258129239082336,-0.2326294630765915
1789454207277522000,4.19652197265625,0.5477690696716309,0.7633061408996582,-0.4381919503211975
1789454207287462700,4.206462646484375,0.2806025445461273,0.8625962138175964,-0.6467064023017883
1789454207297403000,4.21640283203125,0.07611573487520218,1.033138632774353,-0.8273392915725708
1789454207307342800,4.2263427734375,0.013034364208579063,1.15110445022583,-0.9345440864562988
1789454207317282600,4.236282470703125,-0.09909670054912567,1.1930090188980103,-0.9134092330932617
1789454207327222800,4.246222900390625,-0.5288326144218445,1.3844819068908691,-0.5240305066108704
1789454207337163800,4.256163818359375,-0.4803316295146942,0.592539370059967,-0.2998586595058441
1789454207347103700,4.266103759765625,-0.3625323474407196,0.2968083620071411,-0.27514925599098206
1789454207357043700,4.276043701171875,-0.1631862223148346,0.25124886631965637,-0.21602334082126617
1789454207366983700,4.285983642578125,0.017555611208081245,0.3626105487346649,-0.06035322695970535
1789454207376924000,4.295923828125,0.11205362528562546,0.5556090474128723,0.06628168374300003
1789454207386864600,4.30586474609375,0.09052745252847672,0.7522476315498352,0.18063987791538239
1789454207396804900,4.315804931640625,-0.05421242117881775,0.9113898873329163,0.35020387172698975
1789454207406744800,4.325744873046875,-0.16753652691841125,0.9600479602813721,0.4196673035621643
1789454207416684800,4.335684814453125,-0.12957929074764252,1.2090140581130981,0.42176881432533264
1789454207426624800,4.345624755859375,-0.09039352834224701,1.2922933101654053,0.4167347550392151
1789454207436564700,4.355564697265625,0.09071473777294159,0.8081846833229065,0.21977931261062622
1789454207446505700,4.365505615234375,0.08651676028966904,0.6804582476615906,0.3805689811706543
1789454207456445700,4.37544580078125,0.12831588089466095,0.9623791575431824,0.4334295392036438
1789454207466386000,4.385385986328125,0.2549092173576355,0.7693771123886108,0.26159822940826416
1789454207476325600,4.39532568359375,0.3205348551273346,0.7883247137069702,0.13758917152881622
1789454207486265600,4.405265625,0.3690735399723053,0.8173947930335999,0.026998789981007576
1789454207496206800,4.415206787109375,0.3844982981681824,1.3392046689987183,0.18787449598312378
1789454207506146600,4.425146484375,0.4250890910625458,1.146336555480957,-0.07560805231332779
1789454207516086800,4.435086669921875,0.541290819644928,1.076829195022583,-0.18513081967830658
1789454207526026800,4.44502685546875,0.5679083466529846,1.1737892627716064,-0.14958693087100983
1789454207535967000,4.454967041015625,0.5261771082878113,1.1376805305480957,-0.1694253534078598
1789454207545907700,4.46490771484375,0.4758917987346649,1.0704394578933716,-0.19989141821861267
1789454207555847700,4.47484765625,0.3973037600517273,0.8701527714729309,-0.2363184094429016
1789454207565788000,4.484787841796875,0.3706933856010437,0.8939553499221802,-0.1589074730873108
1789454207575727600,4.4947275390625,0.45407721400260925,0.9569633603096008,-0.09859219938516617
1789454207585667800,4.504667724609375,0.6168914437294006,1.1236072778701782,0.015967439860105515
1789454207595608800,4.51460888671875,0.6693751811981201,1.0364974737167358,0.1407458484172821
1789454207605548800,4.524548828125,0.6670464873313904,1.07399320602417,0.27299222350120544
1789454207615488800,4.53448876953125,0.6103142499923706,1.1448663473129272,0.39732295274734497
1789454207625428700,4.5444287109375,0.5307736396789551,1.1091152429580688,0.5624982118606567
1789454207635368700,4.55436865234375,0.44177183508872986,0.9635778665542603,0.6813209652900696
1789454207645308400,4.564308349609375,0.34506669640541077,0.799732506275177,0.7665798664093018
1789454207655249400,4.57424951171875,0.3063589930534363,0.6432475447654724,0.8130051493644714
1789454207665189600,4.584189697265625,0.2621259391307831,0.49744531512260437,0.8112971186637878
1789454207675129300,4.59412939453125,0.2346346378326416,0.36324837803840637,0.8030328154563904
1789454207685069300,4.6040693359375,0.21211709082126617,0.2334129959344864,0.7739880681037903
1789454207695009500,4.614009521484375,0.15725171566009521,0.21302597224712372,0.8462923765182495
1789454207704950300,4.6239501953125,0.1390826255083084,0.25640130043029785,0.9028446674346924
1789454207714890500,4.633890380859375,0.13963523507118225,0.23976321518421173,0.9003713726997375
1789454207724830500,4.64383056640625,0.18002986907958984,0.2313975989818573,0.8928298354148865
1789454207734770200,4.653770263671875,0.2767241895198822,0.18947625160217285,0.9121015071868896
1789454207744710400,4.66371044921875,0.435925155878067,0.10459788143634796,0.9246208667755127
1789454207754651400,4.6736513671875,0.5971145629882812,0.04532124474644661,0.8958475589752197
1789454207764591400,4.68359130859375,0.7140941023826599,-0.04605408385396004,0.8541663885116577
1789454207774531300,4.69353125,0.7845283150672913,0.02559054270386696,0.8605191111564636
1789454207784471300,4.70347119140625,0.8344012498855591,0.1064300537109375,0.8673948049545288
1789454207794411500,4.71341162109375,0.8498236536979675,0.2045249193906784,0.8196616768836975
1789454207804352300,4.723352294921875,0.784578263759613,0.20606662333011627,0.7014472484588623
1789454207814292500,4.73329248046875,0.6752576231956482,0.3145108222961426,0.7870564460754395
1789454207824232400,4.743232421875,0.6224812865257263,0.21243707835674286,0.658711850643158
1789454207834172400,4.75317236328125,0.6059057712554932,-0.00573414983227849,0.5699412226676941
1789454207844112400,4.7631123046875,0.6258006691932678,-0.05303001403808594,0.69168621301651
1789454207854053400,4.773053466796875,0.6541374921798706,-0.023394890129566193,0.8625791072845459
1789454207863993300,4.782993408203125,0.6376321911811829,-0.011114709079265594,0.9299167394638062
1789454207873933300,4.792933349609375,0.5538867115974426,-0.07311442494392395,0.9355136752128601
1789454207883873500,4.80287353515625,0.45128464698791504,-0.13754472136497498,0.9916524887084961
1789454207893813200,4.812813232421875,0.40909406542778015,-0.16331693530082703,1.074051022529602
1789454207903754500,4.82275439453125,0.4317077696323395,-0.15556883811950684,1.138484239578247
1789454207913694500,4.832694580078125,0.4417710304260254,-0.14808055758476257,1.0748580694198608
1789454207923634200,4.84263427734375,0.40479642152786255,-0.10781800746917725,0.8945143818855286
1789454207933574400,4.852574462890625,0.3701617419719696,-0.00605409312993288,0.7223532199859619
1789454207943514400,4.862514404296875,0.37161609530448914,0.09856244176626205,0.5850104689598083
1789454207953454600,4.87245458984375,0.354369193315506,0.20816057920455933,0.4806699752807617
1789454207963395300,4.882395263671875,0.35229966044425964,0.3175131380558014,0.4407900869846344
1789454207973335600,4.89233544921875,0.3640734851360321,0.3953706622123718,0.4620354473590851
1789454207983275500,4.902275634765625,0.3878338932991028,0.37624049186706543,0.5086514353752136
1789454207993215200,4.91221533203125,0.39571043848991394,0.3416132628917694,0.5918325781822205
1789454208003155500,4.922155517578125,0.37044551968574524,0.3505265712738037,0.6992644667625427
1789454208013096400,4.932096435546875,0.3258407711982727,0.3786868453025818,0.8146544098854065
1789454208023036400,4.942036376953125,0.2763197124004364,0.3389621675014496,0.9062830209732056
1789454208032976400,4.951976318359375,0.23718826472759247,0.09246663004159927,0.936362624168396
1789454208042916400,4.961916259765625,0.24211278557777405,-0.004903431981801987,0.9209126234054565
1789454208052856300,4.971856201171875,0.29115039110183716,0.1136288046836853,0.8769997954368591
1789454208062797300,4.98179736328125,0.3257044553756714,0.1930786520242691,0.8045603632926941
1789454208072737500,4.991737548828125,0.31528401374816895,0.1355181485414505,0.683459460735321
1789454208082677200,5.00167724609375,0.2876197397708893,0.10864783823490143,0.5570752024650574
1789454208092617200,5.0116171875,0.28401967883110046,0.10288155823945999,0.4742887616157532
1789454208102557400,5.021557373046875,0.31959789991378784,0.20124541223049164,0.4424518942832947
1789454208112498200,5.031498291015625,0.3888414204120636,0.2623039484024048,0.40461796522140503
1789454208122438400,5.0414384765625,0.4314152002334595,0.22058580815792084,0.28702589869499207
1789454208132378400,5.05137841796875,0.44467639923095703,0.2750117778778076,0.2340194135904312
1789454208142318600,5.061318603515625,0.4945521950721741,0.3556138277053833,0.2353474199771881
1789454208152258300,5.07125830078125,0.5845819711685181,0.5385759472846985,0.27683520317077637
1789454208162199600,5.081199462890625,0.6617408394813538,0.7287824749946594,0.3227052688598633
1789454208172139500,5.091139404296875,0.6530541181564331,0.7393003702163696,0.28994011878967285
1789454208182079200,5.101079345703125,0.5545997619628906,0.7213447690010071,0.219766303896904
1789454208192019500,5.11101953125,0.5030540227890015,0.9397277235984802,0.190327987074852
1789454208201959400,5.12095947265625,0.5415257811546326,1.0069541931152344,0.20087303221225739
1789454208211900400,5.130900390625,0.5629038214683533,0.934589147567749,0.20247280597686768
1789454208221840400,5.14084033203125,0.4704839885234833,0.9156627058982849,0.20896248519420624
1789454208231780400,5.1507802734375,0.3677954375743866,0.8719357252120972,0.19619236886501312
1789454208241720300,5.16072021484375,0.33029136061668396,0.6772500276565552,0.12397754937410355
1789454208251660300,5.170660400390625,0.3485505282878876,0.4950999319553375,0.06243083253502846
1789454208261601500,5.1806015625,0.38780462741851807,0.480424702167511,0.0503544956445694
1789454208271541200,5.190541259765625,0.405857652425766,0.5947232842445374,0.10189518332481384
1789454208281481500,5.2004814453125,0.3376973867416382,0.8251428604125977,0.16252048313617706
1789454208291421400,5.21042138671875,0.24561807513237,0.9601792693138123,0.20457740128040314
1789454208301361400,5.220361328125,0.1516312211751938,0.8052075505256653,0.2014690786600113
1789454208311302400,5.230302490234375,0.10665229707956314,0.5768399238586426,0.19474592804908752
1789454208321242400,5.240242431640625,0.18831364810466766,0.3261174261569977,0.22023630142211914
1789454208331182600,5.2501826171875,0.3246123492717743,0.18804104626178741,0.23682273924350739
1789454208341122300,5.260122314453125,0.4017409682273865,0.12871821224689484,0.2249251753091812
1789454208351062300,5.270062255859375,0.3506154716014862,0.240705206990242,0.2043149769306183
1789454208361003500,5.28000341796875,0.21880879998207092,0.4313909113407135,0.23609985411167145
1789454208370943200,5.289943115234375,0.11483446508646011,0.4525611996650696,0.2652798593044281
1789454208380883500,5.299883544921875,0.11513199657201767,0.45093202590942383,0.25991159677505493
1789454208390823400,5.309823486328125,0.20920097827911377,0.3373790979385376,0.29168203473091125
1789454208400763400,5.319763427734375,0.31272196769714355,0.13158969581127167,0.25672200322151184
1789454208410704400,5.329704345703125,0.3879552185535431,0.0888555571436882,0.20407049357891083
1789454208420644400,5.339644287109375,0.3411456346511841,0.23410873115062714,0.23970338702201843
1789454208430584300,5.349584228515625,0.26195546984672546,0.325143039226532,0.2791496217250824
1789454208440524300,5.359524169921875,0.18704810738563538,0.33742067217826843,0.3105848431587219
1789454208450464500,5.369464599609375,0.19904884696006775,0.4067336916923523,0.3825666010379791
1789454208460405200,5.3794052734375,0.2536087930202484,0.3019384741783142,0.36062565445899963
1789454208470345500,5.389345458984375,0.31088700890541077,0.14132162928581238,0.2918681800365448
1789454208480285400,5.399285400390625,0.30295607447624207,0.07815463840961456,0.2274443656206131
1789454208490225400,5.409225341796875,0.2871859073638916,0.2799266576766968,0.23511213064193726
1789454208500165400,5.419165283203125,0.297920823097229,0.4756503403186798,0.2424592673778534
1789454208510106400,5.4291064453125,0.31099215149879456,0.3427852392196655,0.23010939359664917
1789454208520046600,5.439046630859375,0.3046780228614807,0.27778953313827515,0.2056656926870346
1789454208529986300,5.448986328125,0.2838675379753113,0.4230726957321167,0.21060265600681305
1789454208539926300,5.45892626953125,0.29082104563713074,0.41328558325767517,0.21853195130825043
1789454208549866500,5.468866455078125,0.31726783514022827,0.36346369981765747,0.14965541660785675
1789454208559807200,5.47880712890625,0.3466908633708954,0.2849709689617157,0.08162965625524521
1789454208569747500,5.48874755859375,0.3499670922756195,0.16772928833961487,0.09085298329591751
1789454208579687400,5.4986875,0.3554150462150574,0.15736863017082214,0.11844027042388916
1789454208589627400,5.50862744140625,0.3255479633808136,0.27513599395751953,0.11952044814825058
1789454208599567400,5.5185673828125,0.3170955181121826,0.42289304733276367,0.06751640141010284
1789454208609507300,5.52850732421875,0.292851984500885,0.48920443654060364,-0.01033951435238123
1789454208619448300,5.5384482421875,0.2524383068084717,0.4015580117702484,-0.08164717257022858
1789454208629388300,5.54838818359375,0.11834070831537247,0.3810298442840576,-0.10692963004112244
1789454208639328500,5.55832861328125,0.09216101467609406,0.533775806427002,-0.09499780833721161
1789454208649268700,5.568268798828125,0.1040075495839119,0.5816344022750854,-0.08329028636217117
1789454208659209500,5.57820947265625,0.09779872000217438,0.5194281935691833,-0.07614382356405258
1789454208669149700,5.588149658203125,0.0713023990392685,0.4155779480934143,-0.08088371902704239
1789454208679089700,5.598089599609375,0.05739530548453331,0.42677706480026245,-0.07131446897983551
1789454208689029400,5.608029296875,0.08893751353025436,0.4260918200016022,-0.04899691790342331
1789454208698969600,5.617969482421875,0.08115031570196152,0.2703409194946289,-0.04002457484602928
1789454208708910600,5.62791064453125,0.033189184963703156,0.144474059343338,-0.03478773683309555
1789454208718850600,5.6378505859375,-0.01185258012264967,0.2379627525806427,-0.021872421726584435
1789454208728790500,5.64779052734375,-0.03582848608493805,0.3319406509399414,-0.042935892939567566
1789454208738730800,5.657730712890625,-0.07664347440004349,0.33775410056114197,-0.11510077863931656
1789454208748670500,5.66767041015625,-0.07356512546539307,0.2694256603717804,-0.1747683733701706
1789454208758611500,5.677611572265625,-0.04685728996992111,0.085878886282444,-0.21710503101348877
1789454208768551700,5.6875517578125,-0.041148535907268524,0.16820783913135529,-0.24988135695457458
1789454208778491400,5.697491455078125,-0.08564641326665878,0.2170698344707489,-0.26656049489974976
1789454208788431600,5.707431640625,-0.1710744947195053,0.28388163447380066,-0.290147602558136
1789454208798371600,5.71737158203125,-0.1934199333190918,0.4019044041633606,-0.3074343204498291
1789454208808312600,5.7273125,-0.1909266859292984,0.4535505473613739,-0.3050718307495117
1789454208818252500,5.73725244140625,-0.19816775619983673,0.23007477819919586,-0.3415817618370056
1789454208828192500,5.747192626953125,-0.20439155399799347,-0.0706067606806755,-0.4248367249965668
1789454208838132700,5.7571328125,-0.257279634475708,-0.08529240638017654,-0.511172890663147
1789454208848072400,5.767072509765625,-0.3365888297557831,0.055871907621622086,-0.602238655090332
1789454208858013700,5.777013671875,-0.4282981753349304,0.15457162261009216,-0.6774024963378906
1789454208867953700,5.78695361328125,-0.46677231788635254,0.2071373611688614,-0.6899659633636475
1789454208877893400,5.796893310546875,-0.4319937229156494,0.18329013884067535,-0.6418411135673523
1789454208887833600,5.80683349609375,-0.3586380183696747,0.0999758169054985,-0.600826621055603
1789454208897773600,5.816773681640625,-0.3298344314098358,-0.03041044808924198,-0.5843920707702637
1789454208907714600,5.826714599609375,-0.3302767872810364,-0.13753743469715118,-0.5542592406272888
1789454208917654500,5.836654541015625,-0.3354361355304718,-0.18527305126190186,-0.5008856058120728
1789454208927594800,5.8465947265625,-0.3267512917518616,-0.16556859016418457,-0.4542509913444519
1789454208937534500,5.856534423828125,-0.3581092059612274,-0.16896139085292816,-0.4168890714645386
1789454208947474400,5.866474365234375,-0.3862431049346924,-0.21447162330150604,-0.39830154180526733
1789454208957415700,5.876415771484375,-0.3944116234779358,-0.2723991870880127,-0.36860260367393494
1789454208967355400,5.88635546875,-0.41445139050483704,-0.3060317039489746,-0.32794836163520813
1789454208977295600,5.896295654296875,-0.4328572154045105,-0.29389774799346924,-0.31500744819641113
1789454208987235600,5.906235595703125,-0.4624207019805908,-0.19448433816432953,-0.33720916509628296
1789454208997175600,5.916175537109375,-0.5023747682571411,-0.15383730828762054,-0.3793371021747589
1789454209007116500,5.926116455078125,-0.5017534494400024,-0.19506090879440308,-0.4163036346435547
1789454209017056500,5.936056396484375,-0.5100699663162231,-0.21790550649166107,-0.3970426619052887
1789454209026996700,5.945996826171875,-0.5209566950798035,-0.23312440514564514,-0.3451307415962219
1789454209036936400,5.9559365234375,-0.5200425982475281,-0.16555851697921753,-0.28045323491096497
1789454209046876700,5.965876708984375,-0.5438637733459473,-0.10180669277906418,-0.2077351063489914
1789454209056817400,5.9758173828125,-0.544385552406311,-0.06429398059844971,-0.1703403741121292
1789454209066757400,5.98575732421875,-0.575100302696228,-0.0683145523071289,-0.15382210910320282
1789454209076697600,5.995697509765625,-0.5945091843605042,-0.1261214166879654,-0.1467462182044983
1789454209086637600,6.005637451171875,-0.5974794030189514,-0.13189275562763214,-0.14173468947410583
1789454209096577500,6.01557763671875,-0.6054003834724426,-0.11101909726858139,-0.13857415318489075
1789454209106518500,6.0255185546875,-0.5667765736579895,-0.09234554320573807,-0.17435798048973083
1789454209116458800,6.035458740234375,-0.5253271460533142,-0.11229889839887619,-0.21139571070671082
1789454209126398500,6.0453984375,-0.44992929697036743,-0.09576306492090225,-0.23445948958396912
1789454209136338400,6.05533837890625,-0.4011114835739136,-0.0868043601512909,-0.22602060437202454
1789454209146278700,6.065278564453125,-0.35696160793304443,-0.062090758234262466,-0.21920929849147797
1789454209156219400,6.075219482421875,-0.318331778049469,-0.06117215007543564,-0.2210690677165985
1789454209166159600,6.08515966796875,-0.2976403534412384,-0.11408250778913498,-0.24576695263385773
1789454209176099600,6.095099609375,-0.3085470199584961,-0.16038314998149872,-0.2851709723472595
1789454209186039600,6.10503955078125,-0.2467329204082489,-0.11505880951881409,-0.3192242681980133
1789454209195979500,6.1149794921875,-0.1812659651041031,-0.09337688982486725,-0.3335384428501129
1789454209205920500,6.12492041015625,-0.18026994168758392,-0.05077803134918213,-0.3521438241004944
1789454209215860500,6.134860595703125,-0.2204388827085495,-0.01314648799598217,-0.39511826634407043
1789454209225800400,6.144800537109375,-0.25301891565322876,0.06373391300439835,-0.46808701753616333
1789454209235740700,6.15474072265625,-0.31494587659835815,0.08967700600624084,-0.5288214683532715
1789454209245680600,6.1646806640625,-0.34663480520248413,0.160068079829216,-0.5775613188743591
1789454209255621600,6.17462158203125,-0.29030168056488037,0.1803281158208847,-0.6038219928741455
1789454209265561600,6.1845615234375,-0.27322256565093994,0.19506631791591644,-0.5803254842758179
1789454209275501600,6.19450146484375,-0.2478024810552597,0.20626114308834076,-0.5210393667221069
1789454209285441500,6.204441650390625,-0.20941275358200073,0.11427103728055954,-0.4762846529483795
1789454209295381500,6.214381591796875,-0.19705887138843536,0.07395797222852707,-0.48225513100624084
1789454209305322800,6.22432275390625,-0.1815190613269806,0.08029443025588989,-0.49316075444221497
1789454209315262500,6.234262451171875,-0.1816764920949936,0.13065266609191895,-0.4911271035671234
1789454209325202400,6.244202392578125,-0.20030105113983154,0.2204453945159912,-0.45887088775634766
1789454209335142700,6.254142578125,-0.21936973929405212,0.34797558188438416,-0.41277986764907837
1789454209345083400,6.26408349609375,-0.2943326532840729,0.46207261085510254,-0.3875519931316376
1789454209355023600,6.274023681640625,-0.3273771107196808,0.5547740459442139,-0.4313429594039917
1789454209364963600,6.283963623046875,-0.38086777925491333,0.46150532364845276,-0.515446662902832
1789454209374903600,6.293903564453125,-0.4609166383743286,0.3679669499397278,-0.5625476837158203
1789454209384843500,6.303843505859375,-0.5050007700920105,0.3921135663986206,-0.558232843875885
1789454209394784500,6.313784423828125,-0.5216927528381348,0.4235670268535614,-0.5509594678878784
1789454209404724500,6.323724365234375,-0.5102097392082214,0.43407025933265686,-0.538374125957489
1789454209414664400,6.33366455078125,-0.46973469853401184,0.4294731318950653,-0.490309476852417
1789454209424604700,6.343604736328125,-0.4290842115879059,0.43587350845336914,-0.414507657289505
1789454209434544600,6.353544677734375,-0.4029216170310974,0.4662366211414337,-0.3897480070590973
1789454209444485600,6.363485595703125,-0.3738130033016205,0.5038920640945435,-0.39270302653312683
1789454209454425600,6.373425537109375,-0.3289121985435486,0.5607830286026001,-0.3958885967731476
1789454209464365600,6.383365478515625,-0.2641502320766449,0.5581353306770325,-0.3550375699996948
1789454209474305500,6.393305419921875,-0.21251070499420166,0.4159109890460968,-0.3087621033191681
1789454209484245500,6.40324560546875,-0.17398753762245178,0.25253695249557495,-0.28299814462661743
1789454209494186800,6.413186767578125,-0.13771039247512817,0.11760461330413818,-0.34050264954566956
1789454209504126500,6.42312646484375,-0.0962740033864975,-0.03386373445391655,-0.45231014490127563
1789454209514066400,6.43306640625,-0.087249755859375,-0.138814315199852,-0.4613278806209564
1789454209524006700,6.443006591796875,-0.15626025199890137,-0.09768152236938477,-0.35825714468955994
1789454209533946600,6.452946533203125,-0.20183619856834412,0.07339958101511002,-0.24613791704177856
1789454209543887600,6.4628876953125,-0.19021522998809814,0.24369648098945618,-0.2103804498910904
1789454209553827600,6.47282763671875,-0.13829734921455383,0.3816162943840027,-0.22836065292358398
1789454209563767600,6.482767578125,-0.01010076329112053,0.35623371601104736,-0.234860360622406
1789454209573707500,6.49270751953125,0.12030164897441864,0.2125745266675949,-0.2342103123664856
1789454209583647500,6.5026474609375,0.20321811735630035,0.015403131023049355,-0.22202369570732117
1789454209593588500,6.51258837890625,0.2069733738899231,-0.19938193261623383,-0.2406383752822876
1789454209603528400,6.522528564453125,0.1542675495147705,-0.3140147626399994,-0.2586333453655243
1789454209613468700,6.53246875,0.11053664237260818,-0.33741483092308044,-0.31334856152534485
1789454209623408600,6.54240869140625,0.08712133020162582,-0.3203066885471344,-0.37857869267463684
1789454209633349600,6.552349609375,0.10708049684762955,-0.3203503489494324,-0.42767196893692017
1789454209643289000,6.5622890625,0.13801977038383484,-0.3207261264324188,-0.4053586721420288
1789454209653229000,6.57222900390625,0.14049147069454193,-0.3289516866207123,-0.3855043351650238
1789454209663169000,6.5821689453125,0.09782096743583679,-0.3675273060798645,-0.41370323300361633
1789454209673109000,6.59210888671875,0.05869751423597336,-0.3519430160522461,-0.47251150012016296
1789454209683050000,6.602050048828125,0.03476608172059059,-0.3197070360183716,-0.5333277583122253
1789454209692990000,6.611989990234375,0.03490421548485756,-0.3469284474849701,-0.5698023438453674
1789454209702930000,6.621929931640625,0.007814544253051281,-0.44057825207710266,-0.5975567698478699
1789454209712870100,6.6318701171875,-0.06732755154371262,-0.5588275194168091,-0.6242753267288208
1789454209722810000,6.64181005859375,-0.09884552657604218,-0.6239361763000488,-0.6625305414199829
1789454209732751000,6.651751220703125,-0.06689050793647766,-0.6796116828918457,-0.7248303294181824
1789454209742691000,6.661691162109375,-0.018478497862815857,-0.7135773301124573,-0.7824475765228271
1789454209752631000,6.671631103515625,-0.026934973895549774,-0.8756086826324463,-0.8236289024353027
1789454209762571000,6.681571044921875,-0.078762486577034,-0.9407480359077454,-0.8261961340904236
1789454209772511000,6.691510986328125,-0.0812954232096672,-0.7191495895385742,-0.861575722694397
1789454209782452200,6.7014521484375,0.04095619171857834,-0.4566473662853241,-0.9102460741996765
1789454209792392000,6.711391845703125,0.10741445422172546,-0.3266720175743103,-0.911567211151123
1789454209802332000,6.721331787109375,0.07685600966215134,-0.37125492095947266,-0.8682942986488342
1789454209812272000,6.731272216796875,0.009947245940566063,-0.4648374915122986,-0.8502936959266663
1789454209822212000,6.741212158203125,-0.045153822749853134,-0.6240015625953674,-0.8750001192092896
1789454209832153000,6.751153076171875,-0.08708066493272781,-0.7368319630622864,-0.9146379232406616
1789454209842093000,6.761093017578125,-0.050574321299791336,-0.6597062945365906,-0.9312677383422852
1789454209852033000,6.771032958984375,0.03298131749033928,-0.590612530708313,-0.9666447043418884
1789454209861973000,6.780972900390625,0.08530258387327194,-0.6648401618003845,-0.972589373588562
1789454209871913000,6.790912841796875,0.0705299973487854,-0.7238588929176331,-0.9370976686477661
1789454209881854000,6.80085400390625,0.08219091594219208,-0.5739580988883972,-0.9296587109565735
1789454209891794000,6.8107939453125,0.13719476759433746,-0.4730290472507477,-0.9775170087814331
1789454209901734100,6.820734130859375,0.18090416491031647,-0.3506125807762146,-1.0348114967346191
1789454209911674000,6.830674072265625,0.2187730222940445,-0.2725752890110016,-1.0706617832183838
1789454209921613800,6.84061376953125,0.24204318225383759,-0.2936784625053406,-1.0830292701721191
1789454209931555000,6.85055517578125,0.22752827405929565,-0.24862249195575714,-1.1158100366592407
1789454209941495000,6.8604951171875,0.2256462275981903,-0.19051498174667358,-1.133648157119751
1789454209951435000,6.87043505859375,0.24447952210903168,-0.15119053423404694,-1.0989172458648682
1789454209961375000,6.880375,0.21932463347911835,-0.2528732120990753,-1.049161672592163
1789454209971316200,6.890316162109375,0.19150806963443756,-0.2732506990432739,-1.0371471643447876
1789454209981256000,6.900255859375,0.18375906348228455,-0.19141680002212524,-1.0378800630569458
1789454209991196000,6.91019580078125,0.22510506212711334,0.02584603801369667,-1.0636558532714844
1789454210001136000,6.92013623046875,0.2540019452571869,-0.04271065443754196,-1.0177721977233887
1789454210011076000,6.930076171875,0.24493370950222015,-0.02623414620757103,-0.9465645551681519
1789454210021017000,6.94001708984375,0.19337676465511322,0.19994039833545685,-0.8736781477928162
1789454210030957000,6.94995703125,0.14833417534828186,0.3833225667476654,-0.8960062861442566
1789454210040897000,6.95989697265625,0.13331981003284454,0.3151075839996338,-0.9478524327278137
1789454210050837000,6.9698369140625,0.15449798107147217,0.26495012640953064,-0.9482669234275818
1789454210060777000,6.97977685546875,0.17597050964832306,0.36270782351493835,-0.9247488379478455
1789454210070718000,6.989718017578125,0.11798780411481857,0.3854658007621765,-0.9278571605682373
1789454210080658000,6.999657958984375,0.07116197049617767,0.3523262143135071,-0.9304580092430115
1789454210090598100,7.00959814453125,0.08871635794639587,0.4900839328765869,-0.8254682421684265
1789454210100538000,7.0195380859375,0.15903206169605255,0.5763647556304932,-0.7662382125854492
1789454210110477800,7.029477783203125,0.15328291058540344,0.5927453637123108,-0.7236419320106506
1789454210120419000,7.039419189453125,0.13568714261054993,0.4924413561820984,-0.6151140928268433
1789454210130359000,7.049359130859375,0.13581635057926178,0.5405566096305847,-0.4820244610309601
1789454210140299000,7.059299072265625,0.10931816697120667,0.4913964867591858,-0.4234232008457184
1789454210150239000,7.069239013671875,0.04726288467645645,0.5465182662010193,-0.3693244755268097
1789454210160179000,7.079178955078125,0.027303826063871384,0.5825436115264893,-0.27577269077301025
1789454210170120000,7.089119873046875,0.027103982865810394,0.527510404586792,-0.19637902081012726
1789454210180060000,7.099059814453125,-0.07208145409822464,0.4431156814098358,-0.138790562748909
1789454210190000000,7.109000244140625,-0.20611070096492767,0.32214194536209106,-0.030886700376868248
1789454210199939800,7.11893994140625,-0.20928598940372467,0.3328377306461334,0.05780961364507675
1789454210209881000,7.128881103515625,-0.17609599232673645,0.3783724904060364,0.10285747051239014
1789454210219821000,7.138821044921875,-0.1932920217514038,0.4054137170314789,0.1932355761528015
1789454210229761000,7.148760986328125,-0.27336227893829346,0.3494144082069397,0.3558950126171112
1789454210239701000,7.158700927734375,-0.3492272198200226,0.2138536423444748,0.42368099093437195
1789454210249641000,7.168640869140625,-0.35991090536117554,0.177602618932724,0.4213772714138031
1789454210259582000,7.17858203125,-0.4009227752685547,0.28489309549331665,0.4987783133983612
1789454210269522000,7.18852197265625,-0.40274789929389954,0.20140178501605988,0.5262237191200256
1789454210279462100,7.198462158203125,-0.39076152443885803,0.2724567949771881,0.5633500814437866
1789454210289402000,7.208402099609375,-0.36080485582351685,0.21806269884109497,0.5786064863204956
1789454210299341800,7.218341796875,-0.421389639377594,0.13680832087993622,0.6285918354988098
1789454210309283000,7.228282958984375,-0.4515804648399353,-0.11905639618635178,0.6581323146820068
1789454210319223000,7.23822314453125,-0.39515766501426697,-0.1854601949453354,0.6524214744567871
1789454210329163000,7.2481630859375,-0.28261059522628784,-0.13781329989433289,0.6683735847473145
1789454210339103000,7.25810302734375,-0.14452143013477325,-0.050575871020555496,0.7311027646064758
1789454210349043200,7.268043212890625,-0.022204728797078133,0.03343106433749199,0.8218684196472168
1789454210358984000,7.27798388671875,0.05334408953785896,0.11967354267835617,0.8892503976821899
1789454210368924000,7.287923828125,0.08882273733615875,0.1869691163301468,0.9192447066307068
1789454210378864000,7.297864013671875,0.09027522802352905,0.1171673983335495,0.8546422719955444
1789454210388803800,7.307803955078125,0.13785237073898315,0.19460467994213104,0.8238643407821655
1789454210398744000,7.317744140625,0.24742573499679565,0.3549341857433319,0.7921586036682129
1789454210408685000,7.32768505859375,0.3136230707168579,0.37004557251930237,0.7596752643585205
1789454210418625000,7.337625,0.2968243658542633,0.3359411358833313,0.8347867727279663
1789454210428565000,7.34756494140625,0.32615187764167786,0.31362515687942505,0.8766470551490784
1789454210438505000,7.3575048828125,0.40998604893684387,0.3187226951122284,0.8556073307991028
1789454210448446000,7.367446044921875,0.4769088923931122,0.33150482177734375,0.8568848371505737
1789454210458386000,7.377385986328125,0.4983918070793152,0.3301774859428406,0.9049980044364929
1789454210468326100,7.387326171875,0.4767094850540161,0.29353994131088257,0.9235778450965881
1789454210478266000,7.39726611328125,0.4339662790298462,0.14248010516166687,0.9200438261032104
1789454210488205800,7.407205810546875,0.34918853640556335,0.08888287097215652,0.9496663212776184
1789454210498147000,7.41714697265625,0.35526615381240845,0.128944531083107,0.9933475255966187
1789454210508087000,7.427087158203125,0.44952479004859924,0.1991158127784729,0.9551633596420288
1789454210518027000,7.437027099609375,0.5303930044174194,0.24368222057819366,0.9632912874221802
1789454210527967000,7.446967041015625,0.5584487318992615,0.2472616732120514,1.0278757810592651
1789454210537907200,7.4569072265625,0.5955082178115845,0.2659243047237396,1.0267943143844604
1789454210547848000,7.466847900390625,0.6649066805839539,0.20574939250946045,0.9675505757331848
1789454210557788000,7.476787841796875,0.6746724843978882,0.318940669298172,1.0323219299316406
1789454210567728000,7.48672802734375,0.71181321144104,0.2973450720310211,0.9809561967849731
1789454210577667800,7.496667724609375,0.7184863090515137,0.22789835929870605,0.9000725150108337
1789454210587608000,7.506608154296875,0.699086606502533,0.19769234955310822,0.8396074771881104
1789454210597549000,7.516549072265625,0.6574212312698364,0.28883156180381775,0.8959562182426453
1789454210607489000,7.526489013671875,0.6861074566841125,0.3586621582508087,1.0161898136138916
1789454210617429000,7.536428955078125,0.7918536067008972,0.3316632807254791,1.0099990367889404
1789454210627369000,7.546368896484375,0.8656572103500366,0.28597649931907654,0.9535678029060364
1789454210637309200,7.55630908203125,0.860848605632782,0.33487266302108765,0.9750733375549316
1789454210647250700,7.566250732421875,0.8424403667449951,0.3641199469566345,1.0641738176345825
1789454210657191000,7.57619091796875,0.8586280941963196,0.3112657964229584,1.1144777536392212
1789454210667130600,7.586130615234375,0.8564529418945312,0.2214314192533493,1.0627676248550415
1789454210677070800,7.59607080078125,0.8438628911972046,0.13434897363185883,0.9394850730895996
1789454210687010800,7.6060107421875,0.8252434730529785,0.1429397165775299,0.893805205821991
1789454210696951800,7.615951904296875,0.8390114903450012,0.17199906706809998,0.9595008492469788
1789454210706891800,7.625891845703125,0.9016063213348389,0.12734219431877136,0.9837466478347778
1789454210716831700,7.635831787109375,0.98087078332901,0.01920507103204727,0.8885548710823059
1789454210726771700,7.645771728515625,1.0536611080169678,0.023144159466028214,0.8245355486869812
1789454210736712700,7.655712646484375,1.0540763139724731,0.038420580327510834,0.7963070869445801
1789454210746653000,7.66565283203125,1.0309549570083618,0.1554778814315796,0.8675349354743958
1789454210756592600,7.675592529296875,1.0617364645004272,0.19460371136665344,0.9417369961738586
1789454210766532600,7.68553271484375,1.1383806467056274,-0.07233504205942154,0.8314535021781921
1789454210776472800,7.695472900390625,1.1363953351974487,-0.08720692992210388,0.654622495174408
1789454210786413600,7.70541357421875,1.0765480995178223,0.10073951631784439,0.5718931555747986
1789454210796353800,7.715353759765625,1.0705938339233398,0.16574488580226898,0.550707995891571
1789454210806293800,7.725293701171875,1.0914802551269531,0.1360708773136139,0.5751909017562866
1789454210816234000,7.73523388671875,1.077528476715088,0.2041119784116745,0.6038736701011658
1789454210826173700,7.745173583984375,1.022964596748352,0.3273686170578003,0.5802357196807861
1789454210836114700,7.75511474609375,0.9415113925933838,0.3389491140842438,0.51957768201828
1789454210846055000,7.765054931640625,0.8216950297355652,0.35100236535072327,0.49570441246032715
1789454210855994600,7.77499462890625,0.7543016076087952,0.3467274606227875,0.5115557909011841
1789454210865934800,7.784934814453125,0.7540488243103027,0.2610568702220917,0.47296079993247986
1789454210875874800,7.794874755859375,0.7739673852920532,0.11909279227256775,0.42398419976234436
1789454210885815800,7.80481591796875,0.7669354677200317,-0.06475643068552017,0.4331936240196228
1789454210895755800,7.814755859375,0.7463242411613464,-0.19595174491405487,0.4606148600578308
1789454210905695700,7.82469580078125,0.7439590692520142,-0.2364765703678131,0.5212317109107971
1789454210915635700,7.8346357421875,0.7477681636810303,-0.1378922015428543,0.5890603065490723
1789454210925576700,7.84457666015625,0.7821390628814697,0.0267356988042593,0.5913845300674438
1789454210935517000,7.854516845703125,0.7397242188453674,0.07130742818117142,0.5178543925285339
1789454210945456600,7.86445654296875,0.6614192724227905,0.023127108812332153,0.4456866383552551
1789454210955396600,7.874396728515625,0.49797362089157104,0.0719364583492279,0.4782024919986725
1789454210965336800,7.8843369140625,0.4386368989944458,0.1901881843805313,0.5517279505729675
1789454210975277600,7.894277587890625,0.4444276690483093,0.12616205215454102,0.5813438892364502
1789454210985217800,7.9042177734375,0.594382643699646,0.03518065810203552,0.5127890706062317
1789454210995157800,7.91415771484375,0.7537813186645508,0.0031782472506165504,0.4460401237010956
1789454211005098000,7.924097900390625,0.770172119140625,0.034757278859615326,0.41071856021881104
1789454211015037700,7.93403759765625,0.6145838499069214,0.1053885743021965,0.40206462144851685
1789454211024979000,7.94397900390625,0.453925222158432,0.27120962738990784,0.4035893678665161
1789454211034919000,7.9539189453125,0.3455614745616913,0.44535133242607117,0.40061888098716736
1789454211044858600,7.963858642578125,0.28979113698005676,0.3555978834629059,0.3657711446285248
1789454211054798800,7.973798828125,0.34650740027427673,0.1491807997226715,0.2897394895553589
1789454211064738800,7.98373876953125,0.3857225775718689,0.07696149498224258,0.22191601991653442
1789454211074679800,7.9936796875,0.3006140887737274,0.05991514027118683,0.19023293256759644
1789454211084619800,8.003619873046874,0.19568181037902832,0.11799164861440659,0.20112253725528717
1789454211094559700,8.013559814453124,0.12509366869926453,0.18087847530841827,0.2645361125469208
1789454211104499700,8.023499755859374,0.13928307592868805,0.2698391377925873,0.30993977189064026
1789454211114439700,8.033439697265624,0.16853070259094238,0.2077890932559967,0.3034858703613281
1789454211124381000,8.043380859375,0.15688352286815643,0.16161778569221497,0.2426912486553192
1789454211134320600,8.053320556640625,0.14201907813549042,0.2012842446565628,0.17517930269241333
1789454211144260600,8.063260498046875,0.05462576821446419,0.19201254844665527,0.10186651349067688
1789454211154200800,8.073200927734375,-0.023867707699537277,0.20235200226306915,0.03461211174726486
1789454211164140800,8.083140869140625,-0.08227795362472534,0.24818553030490875,-0.00013225828297436237
1789454211174081800,8.093081787109375,-0.09422729164361954,0.20862561464309692,-0.013337542302906513
1789454211184021800,8.103021728515625,-0.07931429892778397,0.012659644708037376,-0.034598980098962784
1789454211193962000,8.1129619140625,-0.05723588913679123,-0.03637820482254028,-0.09449027478694916
1789454211203901700,8.122901611328125,-0.1099800318479538,-0.10492876172065735,-0.13709595799446106
1789454211213841700,8.132841552734375,-0.14797402918338776,-0.12227046489715576,-0.17406116425991058
1789454211223782700,8.14278271484375,-0.1709723025560379,0.021350983530282974,-0.23809894919395447
1789454211233722600,8.15272265625,-0.19765318930149078,0.002275293692946434,-0.3367461562156677
1789454211243662800,8.162662841796875,-0.258125901222229,-0.11767669022083282,-0.3810834586620331
1789454211253602800,8.172602783203125,-0.345916211605072,-0.21208228170871735,-0.34768369793891907
1789454211263543800,8.182543701171875,-0.3871610462665558,-0.18444809317588806,-0.3009294867515564
1789454211273483800,8.19248388671875,-0.3811319172382355,-0.14778941869735718,-0.27259451150894165
1789454211283423700,8.202423828125,-0.35707834362983704,-0.12929607927799225,-0.2447979897260666
1789454211293363700,8.21236376953125,-0.33164915442466736,0.0790608674287796,-0.2904357612133026
1789454211303303700,8.2223037109375,-0.3092043697834015,0.23810653388500214,-0.40165841579437256
1789454211313245000,8.232244873046875,-0.3007749319076538,0.12959976494312286,-0.5016814470291138
1789454211323184600,8.2421845703125,-0.3354569673538208,0.07647998631000519,-0.5320250391960144
1789454211333124900,8.252124755859375,-0.3527936041355133,0.039156317710876465,-0.5328269004821777
1789454211343064800,8.26206494140625,-0.3890976905822754,0.028115032240748405,-0.5497022271156311
1789454211353004800,8.2720048828125,-0.4769473969936371,0.08322195708751678,-0.577799379825592
1789454211362945800,8.28194580078125,-0.5789188742637634,0.0666702389717102,-0.6031366586685181
1789454211372885800,8.2918857421875,-0.5829071998596191,0.06760580837726593,-0.6306668519973755
1789454211382825700,8.30182568359375,-0.6400365233421326,0.2062976360321045,-0.6503028869628906
1789454211392765700,8.311765625,-0.6867625117301941,0.20076784491539001,-0.6274800896644592
1789454211402705700,8.32170556640625,-0.6939470171928406,0.1114932969212532,-0.5646700263023376
1789454211412646700,8.331646728515626,-0.6711647510528564,-0.012024112977087498,-0.4829506278038025
1789454211422586600,8.341586669921876,-0.6604956388473511,-0.26393821835517883,-0.42256319522857666
1789454211432526800,8.35152685546875,-0.5860440135002136,-0.4129042625427246,-0.37705937027931213
1789454211442466800,8.361466796875,-0.5961117744445801,-0.4099199175834656,-0.2705375850200653
1789454211452406500,8.371406494140626,-0.6849513649940491,-0.41758662462234497,-0.15609702467918396
1789454211462347800,8.38134765625,-0.7974479794502258,-0.4167623221874237,-0.10977665334939957
1789454211472287700,8.391287841796874,-0.8782991170883179,-0.4010683000087738,-0.10908956080675125
1789454211482227700,8.401227783203124,-0.8489043116569519,-0.3892994225025177,-0.11328916251659393
1789454211492167700,8.411167724609374,-0.7660595178604126,-0.4438183307647705,-0.13355742394924164
1789454211502108000,8.42110791015625,-0.6370056867599487,-0.5715674161911011,-0.1567147970199585
1789454211512048600,8.431048583984374,-0.6119285821914673,-0.642923891544342,-0.17160320281982422
1789454211521988900,8.44098876953125,-0.5819075107574463,-0.6049679517745972,-0.18290475010871887
1789454211531928800,8.4509287109375,-0.49571675062179565,-0.6057195067405701,-0.1930370181798935
1789454211541868800,8.460868896484374,-0.4310210049152374,-0.5705200433731079,-0.25386470556259155
1789454211551809800,8.470809814453125,-0.5156980752944946,-0.5949292778968811,-0.4005739986896515
1789454211561749800,8.480749755859375,-0.5124803781509399,-0.7231885194778442,-0.5288606286048889
1789454211571689700,8.490689697265625,-0.4458203613758087,-0.7450887560844421,-0.6046984195709229
1789454211581629700,8.500629638671874,-0.4248933792114258,-0.5478565692901611,-0.68193519115448
1789454211591569700,8.510569580078124,-0.3664420545101166,-0.4272521436214447,-0.773402750492096
1789454211601510700,8.5205107421875,-0.3578110337257385,-0.37163200974464417,-0.8033075332641602
1789454211611450600,8.53045068359375,-0.36425215005874634,-0.2508573830127716,-0.7279779314994812
1789454211621390800,8.540390869140625,-0.32140374183654785,-0.03537305071949959,-0.6223068833351135
1789454211631330800,8.550330810546875,-0.25682663917541504,0.0817309319972992,-0.5671741366386414
1789454211641270800,8.560270751953125,-0.2602694034576416,0.02169099822640419,-0.5777966976165771
1789454211651211500,8.57021142578125,-0.31615450978279114,-0.09123821556568146,-0.54642254114151
1789454211661151500,8.5801513671875,-0.373062402009964,-0.17237946391105652,-0.4599578380584717
1789454211671091200,8.59009130859375,-0.45174095034599304,-0.17756330966949463,-0.3731398582458496
1789454211681031400,8.600031494140625,-0.5197509527206421,-0.1617995947599411,-0.31122928857803345
1789454211690971400,8.609971435546875,-0.582592785358429,-0.23450416326522827,-0.292324036359787
1789454211700912400,8.619912353515625,-0.6075783967971802,-0.2756304442882538,-0.3071495592594147
1789454211710852400,8.629852294921875,-0.5763208866119385,-0.3348652720451355,-0.3036229908466339
1789454211720792600,8.63979248046875,-0.5326737761497498,-0.3695273995399475,-0.2864929437637329
1789454211730732500,8.649732666015625,-0.520098865032196,-0.32501694560050964,-0.2498246729373932
1789454211740672300,8.65967236328125,-0.5566436648368835,-0.377577006816864,-0.24786925315856934
1789454211750613500,8.669613525390625,-0.6008939743041992,-0.49453479051589966,-0.33073189854621887
1789454211760553500,8.679553466796875,-0.5902172923088074,-0.5699746608734131,-0.4454546570777893
1789454211770493400,8.689493408203125,-0.5223307013511658,-0.5375847816467285,-0.5170340538024902
1789454211780433400,8.699433349609375,-0.4602614939212799,-0.5181135535240173,-0.5493808388710022
1789454211790373400,8.709373291015625,-0.43488848209381104,-0.4239484965801239,-0.563587486743927
1789454211800314400,8.719314453125,-0.45875412225723267,-0.3776839077472687,-0.5781736969947815
1789454211810254300,8.72925439453125,-0.5011156797409058,-0.44028761982917786,-0.6551936268806458
1789454211820194600,8.739194580078125,-0.5708215832710266,-0.4507817029953003,-0.7140061855316162
1789454211830134300,8.74913427734375,-0.6296923756599426,-0.3002515733242035,-0.695862352848053
1789454211840075500,8.759075439453126,-0.6803876757621765,-0.16857902705669403,-0.6724449396133423
1789454211850015500,8.769015380859376,-0.7321110963821411,-0.13976150751113892,-0.6238720417022705
1789454211859955500,8.77895556640625,-0.7925096154212952,-0.07837625592947006,-0.56666499376297
1789454211869895400,8.7888955078125,-0.8823010325431824,-0.10331889241933823,-0.5646204948425293
1789454211879835400,8.79883544921875,-0.9501051902770996,-0.11064701527357101,-0.5838339924812317
1789454211889775600,8.808775634765626,-0.95345139503479,-0.13058529794216156,-0.5943518877029419
1789454211899716400,8.81871630859375,-0.9528625011444092,-0.24257685244083405,-0.6136544942855835
1789454211909656600,8.828656494140626,-0.994121789932251,-0.3336508274078369,-0.6087420582771301
1789454211919596500,8.838596435546876,-1.0230340957641602,-0.2945026457309723,-0.5486213564872742
1789454211929536300,8.848536376953126,-0.9772543907165527,-0.24896922707557678,-0.47560974955558777
1789454211939477500,8.8584775390625,-0.9128208160400391,-0.2800500690937042,-0.4225805103778839
1789454211949417500,8.86841748046875,-0.8439051508903503,-0.3731491267681122,-0.3961808681488037
1789454211959357400,8.878357421875,-0.8024692535400391,-0.5623630285263062,-0.38107967376708984
1789454211969297400,8.88829736328125,-0.78475022315979,-0.6607269048690796,-0.35348400473594666
1789454211979237400,8.8982373046875,-0.7750464081764221,-0.6823300123214722,-0.31930068135261536
1789454211989178400,8.908178466796874,-0.7338108420372009,-0.7644227147102356,-0.34820637106895447
1789454211999118300,8.918118408203124,-0.7168751955032349,-0.8582918643951416,-0.3684045672416687
1789454212009058600,8.92805859375,-0.7596601843833923,-0.9538138508796692,-0.3850589096546173
1789454212018998300,8.937998291015624,-0.7914177179336548,-0.9459782242774963,-0.36454781889915466
1789454212028938500,8.9479384765625,-0.7565295100212097,-0.894450843334198,-0.3293099105358124
1789454212038879500,8.95787939453125,-0.6855295300483704,-0.8580077886581421,-0.32520565390586853
1789454212048819500,8.9678193359375,-0.6178972125053406,-0.8858463168144226,-0.3470076322555542
1789454212058759400,8.977759521484375,-0.5805349946022034,-0.8289512395858765,-0.40303972363471985
1789454212068699400,8.987699462890625,-0.5045228004455566,-0.6332563161849976,-0.4359081983566284
1789454212078639600,8.9976396484375,-0.40300726890563965,-0.42304566502571106,-0.46145832538604736
1789454212088580400,9.007580322265625,-0.3228916525840759,-0.16945815086364746,-0.4908481538295746
1789454212098520600,9.0175205078125,-0.2914295792579651,0.03513536974787712,-0.5233981013298035
1789454212108460500,9.02746044921875,-0.2940240204334259,0.24065923690795898,-0.527769923210144
1789454212118400300,9.037400146484375,-0.27786985039711,0.36920568346977234,-0.5584608912467957
1789454212128340500,9.047340576171875,-0.26465922594070435,0.3570779263973236,-0.5959363579750061
1789454212138281500,9.057281494140625,-0.25540417432785034,0.24385716021060944,-0.6437968611717224
1789454212148221400,9.067221435546875,-0.21886001527309418,0.19270822405815125,-0.6820771098136902
1789454212158161400,9.077161376953125,-0.1313791126012802,0.15753880143165588,-0.7471480965614319
1789454212168101600,9.0871015625,-0.06399688124656677,0.14194652438163757,-0.8149673342704773
1789454212178041300,9.097041259765625,-0.0011595913674682379,0.20903341472148895,-0.8059448599815369
1789454212187982300,9.106982421875,-0.020012907683849335,0.2547074258327484,-0.7872861623764038
1789454212197922600,9.116922607421875,-0.07859791815280914,0.2635306119918823,-0.7657625675201416
1789454212207862300,9.1268623046875,-0.14749176800251007,0.3311575949192047,-0.7354158759117126
1789454212217802500,9.136802490234375,-0.23585811257362366,0.29434219002723694,-0.7331606149673462
1789454212227743500,9.146743408203125,-0.2911730408668518,0.29666072130203247,-0.7595072984695435
1789454212237683500,9.156683349609375,-0.2654258906841278,0.41977664828300476,-0.8301606774330139
1789454212247623400,9.16662353515625,-0.19896511733531952,0.4863346219062805,-0.8531746864318848
1789454212257563400,9.1765634765625,-0.18221624195575714,0.5667374730110168,-0.8092126846313477
1789454212267503600,9.186503662109375,-0.1293295919895172,0.7904488444328308,-0.7801456451416016
1789454212277444400,9.1964443359375,-0.005400512367486954,0.8908698558807373,-0.751983642578125
1789454212287384600,9.206384521484376,0.09669230133295059,0.8717344999313354,-0.6928084492683411
1789454212297324500,9.216324462890626,0.11710073798894882,0.716231107711792,-0.5899345278739929
1789454212307264300,9.22626416015625,0.08109986037015915,0.576582133769989,-0.45849788188934326
1789454212317204500,9.23620458984375,0.009073235094547272,0.4691455066204071,-0.368169903755188
1789454212327145200,9.246145263671876,-0.012951106764376163,0.3846023976802826,-0.32127511501312256
1789454212337085400,9.25608544921875,0.012005642056465149,0.35689008235931396,-0.31231650710105896
1789454212347025400,9.266025390625,0.07983635365962982,0.35439175367355347,-0.32293957471847534
1789454212356965600,9.275965576171876,0.15572787821292877,0.3859447240829468,-0.3149075210094452
1789454212366905300,9.2859052734375,0.1449788361787796,0.43316763639450073,-0.24781903624534607
1789454212376846300,9.295846435546874,0.1171550452709198,0.4263385534286499,-0.13538330793380737
1789454212386786600,9.30578662109375,0.026585198938846588,0.32196128368377686,-0.043347395956516266
1789454212396726300,9.315726318359374,-0.06243930011987686,0.3788784444332123,0.10242768377065659
1789454212406666500,9.32566650390625,-0.059388913214206696,0.2572750747203827,0.10663015395402908
1789454212416606500,9.3356064453125,-0.08682992309331894,0.290397047996521,0.15554173290729523
1789454212426547500,9.34554736328125,-0.09292057156562805,0.2137986719608307,0.17612557113170624
1789454212436487400,9.3554873046875,-0.014980131760239601,0.27728700637817383,0.25119829177856445
1789454212446427400,9.365427490234374,0.11487560719251633,0.33140403032302856,0.24840544164180756
1789454212456367600,9.37536767578125,0.23381492495536804,0.39148274064064026,0.3152768611907959
1789454212466307300,9.385307373046874,0.3076840937137604,0.4310400187969208,0.40080535411834717
1789454212476248600,9.39524853515625,0.3881521224975586,0.4137957990169525,0.4177677035331726
1789454212486188300,9.405188232421875,0.4100651443004608,0.3676797151565552,0.3876281678676605
1789454212496128300,9.415128173828125,0.40692946314811707,0.31639161705970764,0.3934302031993866
1789454212506068500,9.425068359375,0.4400610625743866,0.2695423662662506,0.4403021037578583
1789454212516009200,9.43500927734375,0.4715321362018585,0.23324225842952728,0.4922772943973541
1789454212525949400,9.444949462890625,0.4979184865951538,0.2184326946735382,0.5412259697914124
1789454212535889400,9.454889404296875,0.5501442551612854,0.18129166960716248,0.5536037087440491
1789454212545829600,9.46482958984375,0.6035428047180176,0.20208963751792908,0.5727878212928772
1789454212555769300,9.474769287109375,0.6461355686187744,0.24459896981716156,0.6168210506439209
1789454212565710600,9.484710693359375,0.6913911700248718,0.299470990896225,0.6536243557929993
1789454212575650600,9.494650634765625,0.7223453521728516,0.3803122043609619,0.687509298324585
1789454212585590300,9.50459033203125,0.7782278060913086,0.4268192648887634,0.7232180237770081
1789454212595530500,9.514530517578125,0.8181337714195251,0.44047310948371887,0.7171983122825623
1789454212605470500,9.524470458984375,0.7587500810623169,0.45520836114883423,0.8089867830276489
1789454212615411500,9.534411376953125,0.725856602191925,0.4340154826641083,0.9060686826705933
1789454212625351400,9.544351318359375,0.7884635329246521,0.2935265600681305,0.8815540075302124
1789454212635291400,9.55429150390625,0.872427761554718,0.26278719305992126,0.8644641041755676
1789454212645231400,9.5642314453125,0.9138506054878235,0.36892905831336975,0.926149308681488
1789454212655171300,9.57417138671875,0.9470472931861877,0.4700871706008911,0.9362232685089111
1789454212665112600,9.584112548828125,0.9299743175506592,0.4613344371318817,0.9609773755073547
1789454212675052300,9.59405224609375,0.8958008289337158,0.57848060131073,1.056933879852295
1789454212684992500,9.603992431640625,0.9181101322174072,0.39961233735084534,0.9864010810852051
1789454212694932500,9.613932373046875,0.9208695888519287,0.26888978481292725,0.931987464427948
1789454212704872700,9.623872802734375,0.9100795388221741,0.35112687945365906,1.0228239297866821
1789454212714813400,9.6338134765625,0.9803406596183777,0.35694751143455505,1.1017640829086304
1789454212724753700,9.643753662109376,1.082683801651001,0.25286558270454407,1.0893324613571167
1789454212734693600,9.653693603515626,1.1325465440750122,0.2097516804933548,1.100797176361084
1789454212744633300,9.66363330078125,1.1736828088760376,0.15982593595981598,1.0841196775436401
1789454212754573600,9.673573486328126,1.2346502542495728,0.11158159375190735,1.027652621269226
1789454212764514600,9.6835146484375,1.2373253107070923,0.07007702440023422,1.0258533954620361
1789454212774454500,9.69345458984375,1.2075122594833374,0.0839947909116745,1.0857499837875366
1789454212784394500,9.70339453125,1.2286863327026367,0.07975397258996964,1.0396841764450073
1789454212794334500,9.71333447265625,1.2286370992660522,0.031108682975172997,0.8654307126998901
1789454212804274400,9.7232744140625,1.1814460754394531,0.21632514894008636,0.7937592267990112
1789454212814215400,9.73321533203125,1.1495556831359863,0.26570555567741394,0.7066718935966492
1789454212824155600,9.74315576171875,1.1329208612442017,0.19215598702430725,0.546633243560791
1789454212834095400,9.753095458984374,1.0731303691864014,0.23984546959400177,0.49940067529678345
1789454212844035600,9.76303564453125,1.0080547332763672,0.2371029406785965,0.5554705858230591
1789454212853975600,9.7729755859375,0.9318113327026367,0.26382386684417725,0.5876103043556213
1789454212863916300,9.782916259765624,0.8131256699562073,0.32186558842658997,0.6679850220680237
1789454212873856500,9.7928564453125,0.7977631688117981,0.1010451465845108,0.6727903485298157
1789454212883796500,9.80279638671875,0.8674618005752563,-0.14061488211154938,0.6496371030807495
1789454212893736700,9.81273681640625,0.9519721269607544,-0.21183472871780396,0.7130991816520691
1789454212903676400,9.822676513671874,0.9684951901435852,-0.2837315499782562,0.7596077919006348
1789454212913617700,9.83261767578125,0.9735954999923706,-0.2779097259044647,0.7396537661552429
1789454212923557600,9.8425576171875,0.9579976201057434,-0.3129097819328308,0.7057967782020569
1789454212933497300,9.852497314453124,0.9243589043617249,-0.2745445966720581,0.7160110473632812
1789454212943437600,9.8624375,0.8361606001853943,-0.14320653676986694,0.774003803730011
1789454212953377500,9.87237744140625,0.8129194378852844,-0.24185921251773834,0.6989302635192871
1789454212963318500,9.882318603515625,0.8614286184310913,-0.35357722640037537,0.5375778675079346
1789454212973258500,9.892258544921875,0.8880446553230286,-0.11544650048017502,0.5603043437004089
1789454212983198500,9.902198486328125,0.9065147638320923,0.03440025821328163,0.6596218943595886
1789454212993138400,9.912138427734375,0.9222965240478516,-0.1272583305835724,0.6260395646095276
1789454213003078400,9.922078369140625,0.9221814870834351,-0.18354956805706024,0.5640789866447449
1789454213013019600,9.93201953125,0.8511993288993835,0.09736821055412292,0.6325414180755615
1789454213022959400,9.94195947265625,0.7460207343101501,0.2377479523420334,0.7401927709579468
1789454213032899600,9.951899658203125,0.6348470449447632,-0.0367557667195797,0.7194764018058777
1789454213042839600,9.961839599609375,0.581062912940979,-0.33903226256370544,0.6498571038246155
1789454213052779500,9.971779541015625,0.6076671481132507,-0.24819742143154144,0.6694867014884949
1789454213062720500,9.981720458984375,0.5951207280158997,-0.08236106485128403,0.7584882378578186
1789454213072660500,9.991660400390625,0.6491670608520508,-0.07289158552885056,0.756550669670105
1789454213082600700,10.0016005859375,0.6653944849967957,-0.18854708969593048,0.6691691279411316
1789454213092540400,10.01154052734375,0.5903619527816772,-0.3733067214488983,0.5999044179916382
1789454213102480400,10.02148046875,0.48429861664772034,-0.3008570075035095,0.5652225613594055
1789454213112421600,10.031421630859375,0.3977319598197937,-0.06796841323375702,0.6049388647079468
1789454213122361300,10.041361328125,0.37423914670944214,-0.10807082802057266,0.5888557434082031
1789454213132301600,10.051301513671875,0.4000244736671448,-0.15580704808235168,0.49423274397850037
1789454213142241500,10.061241455078125,0.4519587755203247,-0.13801154494285583,0.36199134588241577
1789454213152181500,10.071181396484375,0.47121870517730713,-0.16215035319328308,0.28788918256759644
1789454213162122500,10.08112255859375,0.4305112063884735,-0.03770828619599342,0.20856134593486786
1789454213172062500,10.0910625,0.3441767394542694,-0.006998067256063223,0.14439848065376282
1789454213182002400,10.10100244140625,0.20934198796749115,-0.026992015540599823,0.05950861796736717
1789454213191942400,10.1109423828125,0.07244407385587692,0.05889945849776268,-0.01890220306813717
1789454213201882600,10.120882568359375,-0.043028730899095535,0.10025888681411743,-0.029038991779088974
1789454213211823400,10.1308232421875,-0.18368545174598694,0.04619698226451874,-0.025393923744559288
1789454213221763600,10.140763671875,-0.32643142342567444,0.04364274442195892,-0.008151021786034107
1789454213231703600,10.15070361328125,-0.4106921851634979,-0.04435431584715843,-0.02862846478819847
1789454213241643500,10.1606435546875,-0.47693589329719543,-0.1860254406929016,-0.11203786730766296
1789454213251583500,10.17058349609375,-0.5676237344741821,-0.32391858100891113,-0.18622775375843048
1789454213261524500,10.1805244140625,-0.5999680757522583,-0.3279133141040802,-0.22982317209243774
1789454213271464700,10.190464599609374,-0.6034240126609802,-0.3009880781173706,-0.2630280554294586
1789454213281404400,10.200404296875,-0.606665849685669,-0.41479426622390747,-0.3191416561603546
1789454213291344400,10.210344482421876,-0.6302780508995056,-0.37193459272384644,-0.3926752209663391
1789454213301284600,10.22028466796875,-0.6433389782905579,-0.2787623107433319,-0.5382867455482483
1789454213311225300,10.230225341796874,-0.662467896938324,-0.12418373674154282,-0.6892622113227844
1789454213321165600,10.24016552734375,-0.7036738991737366,-0.04390513896942139,-0.7764759063720703
1789454213331105500,10.25010546875,-0.7751248478889465,-0.0007464657537639141,-0.7938724160194397
1789454213341045500,10.26004541015625,-0.8870282173156738,0.0757078304886818,-0.7717876434326172
1789454213350985500,10.2699853515625,-0.9896274209022522,0.18787065148353577,-0.7281266450881958
1789454213360926700,10.2799267578125,-1.0090975761413574,0.17727287113666534,-0.663027286529541
1789454213370866400,10.289866455078124,-1.0153656005859375,0.13723847270011902,-0.6029367446899414
1789454213380806400,10.299806396484374,-0.9922781586647034,0.08321092277765274,-0.5348831415176392
1789454213390746600,10.30974658203125,-0.9700590968132019,0.014350526966154575,-0.449108749628067
1789454213400686600,10.3196865234375,-0.974833071231842,0.10812495648860931,-0.338336706161499
1789454213410627600,10.329627685546875,-0.914363443851471,0.08861367404460907,-0.19176365435123444
1789454213420567600,10.339567626953125,-0.8068729043006897,-0.05227207764983177,-0.03924895077943802
1789454213430507500,10.349507568359375,-0.7280907034873962,-0.09411289542913437,0.06176028400659561
1789454213440447500,10.359447509765625,-0.5928112268447876,-0.17676010727882385,0.088331438601017
1789454213450387500,10.369387451171875,-0.5004984736442566,-0.2667866051197052,0.06320921331644058
1789454213460328700,10.37932861328125,-0.4328600764274597,-0.2454506754875183,-0.002293894300237298
1789454213470268400,10.389268310546875,-0.3380337059497833,-0.24797029793262482,-0.11777947843074799
1789454213480208400,10.39920849609375,-0.27542200684547424,-0.24169722199440002,-0.2569352388381958
1789454213490148600,10.409148681640625,-0.22965604066848755,-0.25697389245033264,-0.38121917843818665
1789454213500088600,10.419088623046875,-0.2536471486091614,-0.288924902677536,-0.4386260211467743
1789454213510029600,10.429029541015625,-0.36268022656440735,-0.34550073742866516,-0.40996265411376953
1789454213519969500,10.438969482421875,-0.4473423957824707,-0.3461119532585144,-0.3364618122577667
1789454213529909500,10.448909423828125,-0.5280132293701172,-0.29364535212516785,-0.31786230206489563
1789454213539849500,10.458849365234375,-0.5890887975692749,-0.12340278923511505,-0.40766462683677673
1789454213549789400,10.46878955078125,-0.4866761565208435,0.042180731892585754,-0.5422369241714478
1789454213559730400,10.47873046875,-0.3856600522994995,-0.040744513273239136,-0.6857821345329285
1789454213569670400,10.48867041015625,-0.3043849468231201,-0.1226721927523613,-0.8122258186340332
1789454213579610600,10.498610595703125,-0.23074321448802948,-0.1821565479040146,-0.8655380606651306
1789454213589550600,10.508550537109375,-0.22904491424560547,-0.2955114543437958,-0.8825797438621521
1789454213599490300,10.518490234375,-0.29134291410446167,-0.49143117666244507,-0.9103472232818604
1789454213609431600,10.528431640625,-0.31556805968284607,-0.6188622117042542,-0.9485762119293213
1789454213619371500,10.53837158203125,-0.2647078037261963,-0.5405098795890808,-0.9425193667411804
1789454213629311500,10.5483115234375,-0.26083821058273315,-0.38219982385635376,-0.8817465901374817
1789454213639251500,10.55825146484375,-0.30194756388664246,-0.3217940032482147,-0.8263033032417297
1789454213649191400,10.56819140625,-0.3332809805870056,-0.2830590307712555,-0.7214824557304382
1789454213659132200,10.578132080078126,-0.31527453660964966,-0.2715398073196411,-0.5497069358825684
1789454213669072400,10.588072265625,-0.29543718695640564,-0.2521608769893646,-0.4258125126361847
1789454213679012400,10.598012451171876,-0.34559303522109985,-0.3107357621192932,-0.40245234966278076
1789454213688952300,10.607952392578126,-0.41340354084968567,-0.3533439636230469,-0.421473890542984
1789454213698892300,10.617892333984376,-0.4104468822479248,-0.4275857210159302,-0.44845330715179443
1789454213708833300,10.627833251953126,-0.4570083022117615,-0.5068034529685974,-0.49216774106025696
1789454213718773200,10.637773193359376,-0.5077811479568481,-0.5260429382324219,-0.524861216545105
1789454213728713200,10.647713134765626,-0.5433948040008545,-0.5506561398506165,-0.542093813419342
1789454213738653400,10.6576533203125,-0.6217541098594666,-0.4810386896133423,-0.5162001252174377
1789454213748593400,10.667593505859376,-0.6417513489723206,-0.49455052614212036,-0.46762558817863464
1789454213758534100,10.6775341796875,-0.6654737591743469,-0.5031011700630188,-0.4419154226779938
1789454213768474400,10.687474365234374,-0.6182312369346619,-0.3594616651535034,-0.3959832191467285
1789454213778414300,10.697414306640624,-0.5029810667037964,-0.4777244031429291,-0.4144948422908783
1789454213788354300,10.707354248046874,-0.5118690729141235,-0.6158074140548706,-0.47440725564956665
1789454213798294300,10.717294189453124,-0.5896530747413635,-0.6727591156959534,-0.5078887939453125
1789454213808235500,10.727235595703124,-0.6989282965660095,-0.735306978225708,-0.5189970135688782
1789454213818175200,10.73717529296875,-0.8444583415985107,-0.5274832248687744,-0.4222120940685272
1789454213828115200,10.747115234375,-0.8424918055534363,-0.49964994192123413,-0.360922634601593
1789454213838055400,10.757055419921874,-0.8494881987571716,-0.6607117652893066,-0.4151102304458618
1789454213847995400,10.766995361328124,-0.8914476037025452,-0.7955542802810669,-0.4591434597969055
1789454213857935000,10.77693505859375,-0.8229936957359314,-0.9388294219970703,-0.535767674446106
1789454213867876400,10.78687646484375,-0.7442243099212646,-1.0513296127319336,-0.4464578330516815
1789454213877816300,10.79681640625,-0.6867905855178833,-1.1117095947265625,-0.44366469979286194
1789454213887756300,10.80675634765625,-0.6236943006515503,-1.0998185873031616,-0.5298996567726135
1789454213897696300,10.8166962890625,-0.5725046396255493,-1.0957393646240234,-0.6042953133583069
1789454213907636500,10.826636474609375,-0.5724363327026367,-0.9818543791770935,-0.6469403505325317
1789454213917577200,10.8365771484375,-0.5228152871131897,-0.7468003034591675,-0.6566265225410461
1789454213927517400,10.846517333984375,-0.4291383922100067,-0.6879972219467163,-0.7087459564208984
1789454213937457400,10.85645751953125,-0.3916919529438019,-0.5618432760238647,-0.7502880692481995
1789454213947397000,10.866397216796875,-0.3894992768764496,-0.3377263844013214,-0.7427822947502136
1789454213957337300,10.87633740234375,-0.39346736669540405,-0.2582419216632843,-0.7011323571205139
1789454213967278300,10.8862783203125,-0.4175824820995331,-0.18564356863498688,-0.6416174173355103
1789454213977218300,10.89621826171875,-0.39146777987480164,-0.06686047464609146,-0.63618004322052
1789454213987158300,10.906158203125,-0.2911093533039093,0.03397296369075775,-0.761914074420929
1789454213997098200,10.91609814453125,-0.177186518907547,0.08020251244306564,-0.9045713543891907
1789454214007038500,10.92603857421875,-0.07743369787931442,0.06098266318440437,-1.0158166885375977
1789454214016979200,10.935979248046875,-0.03849135711789131,-0.15379302203655243,-1.0856586694717407
1789454214026919400,10.94591943359375,-0.09253440052270889,-0.2860115170478821,-1.106924295425415
1789454214036859400,10.955859375,-0.14740777015686035,-0.2712882459163666,-1.0885716676712036
1789454214046799400,10.96579931640625,-0.16594427824020386,-0.2718521058559418,-1.0702077150344849
1789454214056739300,10.9757392578125,-0.21960137784481049,-0.19280999898910522,-1.048653483390808
1789454214066680300,10.985680419921875,-0.156239852309227,-0.060380518436431885,-1.0529931783676147
1789454214076620300,10.995620361328125,-0.12574826180934906,-0.07708226889371872,-1.0577479600906372
1789454214086560300,11.005560302734375,-0.1556757390499115,-0.029198314994573593,-1.0720356702804565
1789454214096500500,11.01550048828125,-0.1771770417690277,0.0886782556772232,-1.0769816637039185
1789454214106440200,11.025440185546875,-0.16087891161441803,0.28570878505706787,-1.0862075090408325
1789454214116381400,11.03538134765625,-0.10257086902856827,0.45510607957839966,-1.1367501020431519
1789454214126321400,11.0453212890625,-0.04969489201903343,0.7099135518074036,-1.2034019231796265
1789454214136261000,11.05526123046875,-0.009057185612618923,0.8900293111801147,-1.147721529006958
1789454214146201300,11.065201416015626,0.004903437104076147,0.9898073077201843,-0.9761894345283508
1789454214156141300,11.075141357421876,0.029509980231523514,0.9879529476165771,-0.8072915077209473
1789454214166082300,11.085082275390626,0.047730300575494766,0.8893024325370789,-0.6778244972229004
1789454214176022300,11.095022216796876,-0.010399315506219864,0.9616581201553345,-0.5690847039222717
1789454214185962200,11.104962158203126,-0.11645964533090591,0.9020569920539856,-0.3888818025588989
1789454214195902500,11.11490234375,-0.1398717612028122,0.6034050583839417,-0.3014446496963501
1789454214205842200,11.12484228515625,-0.2372409701347351,0.37070855498313904,-0.2832963168621063
1789454214215782400,11.134782470703126,-0.3452531695365906,0.4287923574447632,-0.20518764853477478
1789454214225723400,11.144723388671874,-0.3320258557796478,0.24951474368572235,-0.1304776668548584
1789454214235663400,11.154663330078124,-0.370011568069458,0.17671670019626617,-0.06116089969873428
1789454214245603300,11.164603271484374,-0.3861255645751953,0.17648419737815857,-0.004358437843620777
1789454214255543300,11.174543212890624,-0.3371497690677643,0.17586368322372437,0.04974394664168358
1789454214265484300,11.184484375,-0.3195713758468628,0.26246410608291626,0.11912016570568085
1789454214275424300,11.19442431640625,-0.24027574062347412,0.33965474367141724,0.18715274333953857
1789454214285364500,11.204364501953124,-0.21787776052951813,0.39495953917503357,0.32965609431266785
1789454214295304200,11.21430419921875,-0.2660154700279236,0.3405146896839142,0.3739500641822815
1789454214305244200,11.224244140625,-0.2789567708969116,0.4278077781200409,0.5355718731880188
1789454214315184400,11.234184326171874,-0.25971171259880066,0.4707951843738556,0.5713658332824707
1789454214325125000,11.244125,-0.1872420459985733,0.6233607530593872,0.6692604422569275
1789454214335065300,11.2540654296875,-0.09264150261878967,0.5931546688079834,0.7149357795715332
1789454214345005300,11.26400537109375,-0.08198531717061996,0.631990909576416,0.8059796690940857
1789454214354945500,11.273945556640625,-0.020613033324480057,0.6228136420249939,0.8050848245620728
1789454214364885200,11.28388525390625,0.11501872539520264,0.6065977811813354,0.7745262980461121
1789454214374826200,11.293826171875,0.14926698803901672,0.7085307836532593,0.8515244126319885
1789454214384766500,11.303766357421875,0.21800360083580017,0.7109344005584717,0.820271909236908
1789454214394706200,11.3137060546875,0.34868648648262024,0.6844119429588318,0.7585850954055786
1789454214404646400,11.323646484375,0.4385758936405182,0.6966376900672913,0.7867957353591919
1789454214414586400,11.33358642578125,0.4575421214103699,0.5923682451248169,0.8687947392463684
1789454214424527400,11.34352734375,0.36505740880966187,0.4875488877296448,0.9542160630226135
1789454214434467300,11.35346728515625,0.2822405695915222,0.31808793544769287,0.9762555956840515
1789454214444407300,11.3634072265625,0.30193063616752625,0.15983855724334717,0.9881859421730042
1789454214454347300,11.37334716796875,0.3388415277004242,0.06340815126895905,1.0252957344055176
1789454214464287200,11.383287353515625,0.330521821975708,0.051907412707805634,1.1128807067871094
1789454214474228500,11.393228515625,0.36439403891563416,0.131184920668602,1.2222490310668945
1789454214484168200,11.403168212890625,0.4493197798728943,0.15775232017040253,1.2792515754699707
1789454214494108200,11.413108154296875,0.5232959985733032,0.15489740669727325,1.331734538078308
1789454214504048400,11.42304833984375,0.6072434782981873,0.17273783683776855,1.3429237604141235
1789454214513988400,11.43298828125,0.6521584391593933,0.20914430916309357,1.3582209348678589
1789454214523928300,11.44292822265625,0.6372373104095459,0.19788020849227905,1.4083331823349
1789454214533869300,11.452869384765625,0.6406344175338745,0.11822852492332458,1.3618639707565308
1789454214543809500,11.4628095703125,0.6763687133789062,0.09301477670669556,1.3102933168411255
1789454214553749200,11.472749267578125,0.6988292932510376,0.18911173939704895,1.3111103773117065
1789454214563689200,11.482689208984375,0.7940853238105774,0.2946615219116211,1.265241265296936
1789454214573629400,11.49262939453125,0.8887662887573242,0.3494510054588318,1.2439825534820557
1789454214583570200,11.502570068359375,0.9560203552246094,0.32885685563087463,1.227142333984375
1789454214593510400,11.512510498046876,1.0292208194732666,0.22627456486225128,1.1551527976989746
1789454214603450400,11.522450439453126,1.108893871307373,0.16362619400024414,1.1018621921539307
1789454214613390000,11.53239013671875,1.1321073770523071,0.20934787392616272,1.1836282014846802
1789454214623330300,11.542330322265625,1.1346122026443481,0.15691465139389038,1.2654139995574951
1789454214633271300,11.552271240234376,1.150981068611145,0.016155149787664413,1.2688173055648804
1789454214643211300,11.562211181640626,1.198416829109192,-0.13794617354869843,1.2714512348175049
1789454214653151200,11.572151123046876,1.2452099323272705,-0.17386582493782043,1.2992074489593506
1789454214663091500,11.582091552734376,1.2946351766586304,-0.08575663715600967,1.3010073900222778
1789454214673031400,11.592031494140626,1.3497216701507568,-0.04026398807764053,1.2641124725341797
1789454214682972400,11.601972412109374,1.388543963432312,-0.1326681673526764,1.0550122261047363
1789454214692912400,11.611912353515624,1.3442190885543823,-0.08698005229234695,0.8175913691520691
1789454214702852600,11.6218525390625,1.2525054216384888,0.18666952848434448,0.6880012154579163
1789454214712792300,11.631792236328126,1.2602349519729614,0.14337213337421417,0.4191465973854065
1789454214722732300,11.641732177734376,1.3564174175262451,0.05989626422524452,0.25318440794944763
1789454214732673300,11.65167333984375,1.2975084781646729,0.33149927854537964,0.16465801000595093
1789454214742613200,11.66161328125,1.1786742210388184,0.42268019914627075,0.1526688039302826
1789454214752553500,11.671553466796874,1.1149522066116333,0.04501837491989136,0.15676447749137878
1789454214762493400,11.681493408203124,1.016299843788147,-0.1195412427186966,0.2909575402736664
1789454214772433400,11.691433349609374,0.8242487907409668,0.05899734050035477,0.5615326166152954
1789454214782373400,11.701373291015624,0.6534063816070557,0.07139230519533157,0.744891345500946
1789454214792314400,11.711314453125,0.5562577247619629,-0.004889954347163439,0.811765193939209
1789454214802254300,11.72125439453125,0.5053113698959351,-0.12792007625102997,0.862991213798523
1789454214812194300,11.7311943359375,0.5357449054718018,-0.18725503981113434,0.9866268634796143
1789454214822134500,11.741134521484375,0.6071518659591675,-0.17149408161640167,1.1025336980819702
1789454214832074500,11.751074462890625,0.678928017616272,-0.21000446379184723,1.1320881843566895
1789454214842015500,11.761015380859375,0.7873424291610718,-0.34466078877449036,1.0481975078582764
1789454214851955500,11.77095556640625,0.8388592004776001,-0.32509931921958923,0.9233058094978333
1789454214861895400,11.7808955078125,0.7684680223464966,-0.10388161242008209,0.8432286977767944
1789454214871835400,11.79083544921875,0.7048128843307495,-0.05730745568871498,0.7453484535217285
1789454214881775400,11.800775390625,0.7063260674476624,-0.03393011540174484,0.6247028112411499
1789454214891716600,11.810716552734375,0.6538325548171997,0.13676252961158752,0.5995638966560364
1789454214901656300,11.82065625,0.5507775545120239,0.3525305390357971,0.6157810091972351
1789454214911596300,11.83059619140625,0.5621263980865479,0.4988030791282654,0.5247421860694885
1789454214921536500,11.84053662109375,0.5714055299758911,0.42744192481040955,0.3671385943889618
1789454214931476500,11.8504765625,0.5173590779304504,0.30029383301734924,0.28041088581085205
1789454214941416400,11.86041650390625,0.39547207951545715,0.30940237641334534,0.2470705211162567
1789454214951357400,11.870357421875,0.32827359437942505,0.35288938879966736,0.228934645652771
1789454214961297200,11.880297119140625,0.354200541973114,0.3392904996871948,0.174017071723938
1789454214971237400,11.8902373046875,0.31014466285705566,0.32625138759613037,0.0901314839720726
1789454214981177300,11.90017724609375,0.2188444286584854,0.2903762757778168,0.030257241800427437
1789454214991117600,11.91011767578125,0.1061738058924675,0.2091139256954193,-0.013300090096890926
1789454215001058300,11.920058349609375,-0.06911922246217728,0.12207473069429398,-0.059924088418483734
1789454215010998500,11.92999853515625,-0.17464031279087067,0.17070353031158447,-0.08473675698041916
1789454215020938500,11.9399384765625,-0.22690527141094208,0.08928102254867554,-0.10695934295654297
1789454215030878200,11.949878173828125,-0.3026293218135834,-0.02250836417078972,-0.16463355720043182
1789454215040818400,11.959818359375,-0.370204359292984,0.021082790568470955,-0.25107550621032715
1789454215050759400,11.969759521484375,-0.41920945048332214,-0.04163385555148125,-0.3624933958053589
1789454215060699400,11.979699462890625,-0.4715082049369812,0.006911927834153175,-0.4396074116230011
1789454215070639400,11.989639404296875,-0.5048466920852661,0.06656407564878464,-0.49555855989456177
1789454215080579300,11.999579345703125,-0.544707179069519,0.17022636532783508,-0.576143205165863
1789454215090519600,12.00951953125,-0.5552223920822144,0.27734482288360596,-0.6766887307167053
1789454215100459300,12.019459228515625,-0.5603044629096985,0.3167375326156616,-0.768524706363678
1789454215110400500,12.029400390625,-0.6135184168815613,0.3557097017765045,-0.8487327098846436
1789454215120340200,12.03934033203125,-0.6691001653671265,0.33865857124328613,-0.9104092717170715
1789454215130280400,12.049280517578126,-0.7439072728157043,0.26577824354171753,-0.9199143648147583
1789454215140220400,12.059220458984376,-0.8587886095046997,0.26141104102134705,-0.8765512108802795
1789454215150160400,12.069160400390626,-0.9479600191116333,0.37213408946990967,-0.7683157920837402
1789454215160101400,12.079101318359376,-0.9668951630592346,0.3887478709220886,-0.6526479721069336
1789454215170041300,12.089041259765626,-0.9767826795578003,0.3833027780056,-0.5651455521583557
1789454215179981600,12.098981689453124,-0.9571237564086914,0.44522812962532043,-0.5286082625389099
1789454215189921300,12.10892138671875,-0.8242506980895996,0.5027704834938049,-0.5205458402633667
1789454215199861200,12.118861328125,-0.7146322727203369,0.34998148679733276,-0.5355234742164612
1789454215209802500,12.128802490234374,-0.6822647452354431,0.37161675095558167,-0.5487210750579834
1789454215219742200,12.1387421875,-0.5924500226974487,0.4238600432872772,-0.5598064661026001
1789454215229682400,12.148682373046874,-0.476839542388916,0.2064789980649948,-0.5794193148612976
1789454215239622400,12.158622314453124,-0.4383479952812195,-0.08618997782468796,-0.6138343214988708
1789454215249562600,12.168562744140624,-0.4097062349319458,-0.11054246127605438,-0.6266539692878723
1789454215259502300,12.17850244140625,-0.3055604100227356,-0.09453462809324265,-0.6631715893745422
1789454215269443300,12.188443359375,-0.21099849045276642,-0.24908451735973358,-0.7503469586372375
1789454215279383300,12.19838330078125,-0.14248007535934448,-0.16396492719650269,-0.7884507179260254
1789454215289323300,12.2083232421875,0.014264004305005074,-0.005120681598782539,-0.7314281463623047
1789454215299263500,12.218263427734374,0.14007508754730225,-0.025160085409879684,-0.6762517690658569
1789454215309203500,12.228203369140624,0.16757728159427643,-0.04897940158843994,-0.5983889102935791
1789454215319144400,12.23814453125,0.15277539193630219,-0.04906223714351654,-0.5627062320709229
1789454215329084400,12.24808447265625,0.12376558035612106,-0.10799399763345718,-0.5971331596374512
1789454215339024400,12.2580244140625,0.05526084452867508,-0.13808263838291168,-0.6831792593002319
1789454215348964400,12.26796435546875,-0.022940749302506447,-0.15797805786132812,-0.7777446508407593
1789454215358904300,12.277904296875,-0.07452601194381714,-0.2761040925979614,-0.8525633215904236
1789454215368844300,12.28784423828125,-0.14690914750099182,-0.4349946677684784,-0.9024360775947571
1789454215378785300,12.297785400390625,-0.19040268659591675,-0.5274026989936829,-0.8853371143341064
1789454215388725200,12.307725341796875,-0.24239718914031982,-0.6485339403152466,-0.8397117853164673
1789454215398665500,12.31766552734375,-0.3048906922340393,-0.7417150139808655,-0.7661721706390381
1789454215408605400,12.32760546875,-0.31231585144996643,-0.631100058555603,-0.6933720111846924
1789454215418545400,12.33754541015625,-0.29620352387428284,-0.48526716232299805,-0.6658918857574463
1789454215428486400,12.347486328125,-0.32783520221710205,-0.3910575807094574,-0.683255672454834
1789454215438426400,12.35742626953125,-0.3397422432899475,-0.37095338106155396,-0.7272493243217468
1789454215448366300,12.367366455078125,-0.3397667407989502,-0.41964632272720337,-0.7796704769134521
1789454215458306300,12.377306396484375,-0.3616672456264496,-0.4316096603870392,-0.81581711769104
1789454215468246500,12.38724658203125,-0.4048035144805908,-0.32749125361442566,-0.7946524620056152
1789454215478187300,12.397187255859375,-0.4797650873661041,-0.11144295334815979,-0.7061639428138733
1789454215488127500,12.40712744140625,-0.5320171117782593,0.023623516783118248,-0.6449099183082581
1789454215498067500,12.4170673828125,-0.5682592391967773,-0.08286335319280624,-0.6368513703346252
