time,seconds_elapsed,z,y,x
1789620426817645800,0.054645751953125,-0.5183949283063412,-0.5685965908020735,-0.7626254172131419
1789620426827616800,0.06461669921875,-0.7022048507809638,-0.6846405525177717,-0.5731766851339489
1789620426837587700,0.074587646484375,-0.8866577473342419,-0.9058113606154918,-0.6593373305656015
1789620426847559700,0.0845595703125,-1.8181372176915407,-1.1177677656441927,-1.084846762164682
1789620426857530600,0.094530517578125,-2.217480819159746,-1.4099708428204059,-1.2689447078004479
1789620426867501800,0.104501708984375,-1.2824106308341026,-1.7042624167084692,-1.3807931175224482
1789620426877472500,0.114472412109375,-0.5727800139665603,-2.220800318971276,-0.9787313431367277
1789620426887443700,0.124443603515625,0.08777414504289627,-3.190224612319469,-0.36672676856704056
1789620426897414700,0.13441455078125,0.6728741268783808,-3.9508874972879884,0.37581564556024966
1789620426907385600,0.144385498046875,0.9211223269939423,-4.290036450034379,1.5916329396113753
1789620426917357600,0.154357666015625,1.5053402652978896,-3.4468811598181723,2.2732664192676544
1789620426927328500,0.16432861328125,2.3204753296881915,-2.3099732248961926,2.4209970203623175
1789620426937299700,0.1742998046875,2.0397592766880988,-1.4336661911845205,3.1462083604604003
1789620426947270700,0.184270751953125,1.374852767688036,-1.075966851747036,3.2033740167498586
1789620426957241900,0.194241943359375,0.4644043949216604,-2.572312786467373,2.4355017849244174
1789620426967212800,0.204212890625,-0.01336041683256626,-2.3054823432177303,3.1897745304644105
1789620426977183700,0.214183837890625,0.2635661807566881,-0.625601211310923,4.307955845345557
1789620426987154700,0.22415478515625,2.015094791030884,-0.423449576459825,4.842513972945511
1789620426997127000,0.234126953125,3.4995535963416096,2.3763997537449,4.358979053357244
1789620427007097600,0.24409765625,0.7104957092642784,6.071375092160701,3.270599294760823
1789620427017068500,0.254068603515625,-3.9317958433270452,5.780851346373558,1.6462014190144836
1789620427027039700,0.264039794921875,-4.39611723614037,3.305179902015626,1.1944098374284804
1789620427037010700,0.2740107421875,-3.893925839138031,0.16652794828414916,2.058060072532296
1789620427046982000,0.28398193359375,-3.8746857166171074,-2.1139126003965734,2.161295113818347
1789620427056952800,0.293952880859375,-3.845358499845862,-3.2429946639984846,0.9953284038029611
1789620427066923500,0.303923583984375,-4.530702816718817,-3.753738200768828,-0.9166847829379141
1789620427076895700,0.313895751953125,-5.0854059067249295,-3.4024060582756994,-3.4927301800623534
1789620427086866700,0.32386669921875,2.9214766450107095,-3.511910973611474,-4.85183212864995
1789620427096837600,0.333837646484375,6.81806907300949,-6.957794939085841,-5.026611187928915
1789620427106808600,0.34380859375,-2.198810605481267,-9.386975558164716,-3.787718796303868
1789620427116779800,0.35377978515625,-1.107002041479945,-5.994188976627588,-3.685805943532288
1789620427126750700,0.363750732421875,-0.14872107343673704,-1.3310785078912972,-5.859579430651665
1789620427136721700,0.3737216796875,0.7917384067118167,2.9350261546745893,-8.101928149086236
1789620427146693600,0.383693603515625,1.5128192228764294,2.1543717442959545,-6.068845281422138
1789620427156664600,0.39366455078125,2.1099492497235537,-1.0562225790962576,-0.6646887745961546
1789620427166635800,0.4036357421875,1.974846951794624,-2.282409218405187,2.0866119210168717
1789620427176606700,0.413606689453125,1.4343062426537274,-2.3600395705744623,2.950451979604363
1789620427186578000,0.423577880859375,0.5445078592061996,-1.7703686275616286,2.5858210873380303
1789620427196548600,0.433548583984375,-0.3487432950437069,-0.8388333353638648,1.9066452299669383
1789620427206519600,0.44351953125,-1.3315584003627299,0.782256292617321,2.503326344002783
1789620427216490800,0.45349072265625,-2.167003846853971,0.6508481730312109,2.7985066834241152
1789620427226462700,0.463462646484375,-2.476483637523651,0.235106394469738,2.826744643653929
1789620427236433700,0.47343359375,-2.3288790008962152,0.6199854172557592,2.3883257538601756
1789620427246404600,0.483404541015625,-2.350239184311032,1.3142355096399783,2.226199839927256
1789620427256375800,0.493375732421875,-1.7510446261495352,2.047462982933223,2.748917892129719
1789620427266970600,0.503970703125,0.6432248385459184,2.628565419565141,3.8357249945819376
1789620427276941800,0.51394189453125,4.467992970305681,3.2191537696838375,5.018957458305358
1789620427286912800,0.523912841796875,6.60163581482768,3.9521652621388434,5.15021535576582
1789620427296883500,0.533883544921875,7.155173368185758,4.611778925427794,4.121984653183818
1789620427306854700,0.543854736328125,6.945341700226068,4.944622640550136,2.6064178851649165
1789620427316825600,0.55382568359375,6.4692012748032806,5.093322671198845,1.3112307748660443
1789620427326796800,0.563796875,6.05175853754282,5.219615639728308,0.3796989897996187
1789620427336768500,0.5737685546875,6.044795712792873,5.241522351109981,-0.10749883621037006
1789620427346739700,0.58373974609375,6.502169478425383,5.11045208517611,-0.20604893455058335
1789620427356710700,0.593710693359375,6.821039613252878,4.955093765681982,-0.27202655058801173
1789620427366681900,0.603681884765625,6.629246290808916,4.7657323465600605,-0.4870014266550541
1789620427376652800,0.61365283203125,5.974653086030483,4.422585848610103,-0.6895011442914605
1789620427386623700,0.623623779296875,5.057139012661576,4.015859443414211,-1.1226675203844905
1789620427396594700,0.6335947265625,4.464945273172855,3.3890801282346246,-1.2327791694417596
1789620427406566700,0.643566650390625,4.036439874628186,2.8283827662497756,-1.1923349308505653
1789620427416537900,0.653537841796875,3.379254315268993,2.4809943929463625,-1.3964593270793557
1789620427426508500,0.663508544921875,2.631273217219114,2.0268869356334207,-1.5638117434889076
1789620427436479700,0.673479736328125,2.0352450141340492,1.3687135342806578,-1.9285715228319167
1789620427446450700,0.68345068359375,1.3921557846665382,0.7154545007154345,-2.1524776011124254
1789620427456421600,0.693421630859375,0.5173685078680516,0.5456529375880956,-2.140435865662992
1789620427466392800,0.703392822265625,0.022972879308462143,0.6195183842658997,-1.3412494810327886
1789620427476364500,0.713364501953125,-0.06556289775669574,0.6654331632226705,-0.73890610345155
1789620427486335700,0.723335693359375,-0.38509529588520525,0.9033844257295132,-0.49046647241711616
1789620427496306700,0.733306640625,-1.056024133914709,0.6284986863180995,-0.6443284158736468
1789620427506278000,0.74327783203125,-1.6831103230863809,0.413384109519422,-0.9001483664177358
1789620427516248600,0.75324853515625,-1.6861451607376337,0.1436366097792983,-0.6773765528641641
1789620427526219500,0.763219482421875,-1.0487602803915739,-0.15666618722230194,-0.3643570437610149
1789620427536190700,0.773190673828125,-0.7067652905642986,-0.40377369287014003,-0.10008490669205784
1789620427546162700,0.78316259765625,-0.7211445290505886,-0.6812403886854648,-0.17982786710113285
1789620427556133600,0.793133544921875,-0.7300994044005871,-0.9266951586902141,-0.42012569273412226
1789620427566104600,0.8031044921875,-0.7812988457620144,-1.0286866296559571,-0.5446636342898011
1789620427576075800,0.81307568359375,-0.6389180812627077,-0.944015711325407,-0.34076281768381594
1789620427586046700,0.823046630859375,-0.22158874124884603,-0.9108511083483696,-0.1154630930878222
1789620427596017700,0.833017578125,-0.14327917464375495,-0.9479425293803214,-0.04907908820658922
1789620427605988900,0.84298876953125,-0.46016135052442547,-1.0185685557454824,-0.12641191873401403
1789620427615960600,0.852960693359375,-0.909494433042407,-1.027979942691326,-0.09921265390217304
1789620427625931800,0.862931884765625,-1.4791162752389908,-0.9003992724388837,-0.025717063450068234
1789620427635902700,0.87290283203125,-1.9032699083149431,-0.7378630241394043,0.06998743620067835
1789620427645873700,0.882873779296875,-2.1248878756582736,-0.6407593252152204,0.0647113954938948
1789620427655844600,0.8928447265625,-1.9615531704574822,-0.5058487504661083,0.21002368340045213
1789620427665815600,0.902815673828125,-1.5862556304872035,-0.4982236624151468,0.5758693582840263
1789620427675786800,0.912786865234375,-1.3540636621594428,-0.5286299065947533,0.5400326134882867
1789620427685758500,0.922758544921875,-1.5534288811624049,-0.5286410125106573,0.33519130116179585
1789620427695729700,0.932729736328125,-1.9482137964129447,-0.5382879617780447,0.24930121629983185
1789620427705700600,0.94270068359375,-1.8836510156095028,-0.5165782342731953,0.26571619839742777
1789620427715671800,0.952671875,-1.5702221950531006,-0.5860381394684314,0.2496073596395552
1789620427725642800,0.962642822265625,-1.4069342516034842,-0.5972995381951332,0.1817832389526069
1789620427735613700,0.97261376953125,-1.4032739755302668,-0.5141594826936722,0.25226678810715675
1789620427745584600,0.982584716796875,-1.5007956076055764,-0.44843817950487136,0.22193930825218558
1789620427755556600,0.992556640625,-1.7943354863435028,-0.48455286445915696,0.10572174353525042
1789620427765527800,1.00252783203125,-1.9947604435324668,-0.5201607689350843,0.2867310755059123
1789620427775498800,1.012498779296875,-1.892716365596652,-0.4432160609424114,0.4329473265148699
1789620427785469700,1.0224697265625,-1.7014163796275854,-0.5500397743701935,0.3768983992956578
1789620427795440600,1.032440673828125,-1.4038555748105048,-0.8662655321687459,0.32414310679435726
1789620427805410800,1.042410888671875,-1.1269950281947851,-1.19927349794209,0.24591040481775997
1789620427815382000,1.052382080078125,-1.3254489775717258,-1.4708458750218152,0.22359175163432954
1789620427825354000,1.06235400390625,-1.7399550768584011,-1.7369009499847887,0.41325317661613226
1789620427835325000,1.072324951171875,-1.8473054445087909,-2.038718243202567,0.5880066630624234
1789620427845295900,1.0822958984375,-1.891007808113098,-2.286412901088595,0.7273577044770121
1789620427855267000,1.09226708984375,-2.316794595348835,-2.4470284104585645,0.7308056529738008
1789620427865238000,1.102238037109375,-3.4983962430000304,-2.7132062350183723,0.4467002497963607
1789620427875209000,1.112208984375,-5.125488910788297,-3.313453517103195,0.0019644319407641888
1789620427885180000,1.122179931640625,-6.507896039378642,-4.089741256704926,-0.7809846652463078
1789620427895151900,1.13215185546875,-7.354137020650506,-4.786802899378538,-1.659293978691101
1789620427905123000,1.142123046875,-7.8587144360065455,-5.516884768122434,-0.8844660825088619
1789620427915094000,1.152093994140625,-7.197962708598375,-6.253818986979127,-2.4760195271432397
1789620427925065000,1.16206494140625,-6.613149142488837,-7.372372350043058,-3.6607732090845704
1789620427935036000,1.172035888671875,-6.047510232448578,-8.90156227748394,-2.9375451517581936
1789620427945006800,1.1820068359375,-5.154109440594911,-9.914548064661025,-2.8307459882497787
1789620427954978800,1.191978759765625,-4.15239908066988,-10.34475851355791,-2.5641455543637273
1789620427964949800,1.20194970703125,-3.213447082474828,-10.545644658517837,-1.6305758337289094
1789620427974921000,1.2119208984375,-2.769434902718663,-10.608610525518655,-0.8358955283463001
1789620427984892000,1.221891845703125,-2.7940450278401374,-10.478588307332991,-0.8837994352936744
1789620427994863000,1.231863037109375,-3.157711166727543,-10.549970120501518,-0.7663526210427284
1789620428004834000,1.241833984375,-3.0993852344870567,-11.04965450311899,-1.4548065943688153
1789620428014804700,1.2518046875,-2.6661761882960793,-11.655218011790513,-1.9342267721146345
1789620428024777000,1.26177685546875,-1.7409592854648828,-11.449465137577056,-1.5986667837709188
1789620428034748000,1.271747802734375,-0.5691764365166425,-10.93320839034319,-0.7457984933137893
1789620428044719000,1.281718994140625,0.5593588068574666,-10.407187789463997,-0.03961187942028045
1789620428054689800,1.291689697265625,0.26259353633224963,-8.756991893985868,1.8489076190084217
1789620428064661000,1.301660888671875,-0.09406944579482078,-8.522008249112963,2.801896910384297
1789620428074632000,1.3116318359375,0.8049415140908212,-8.50787743242979,3.7579075954079624
1789620428084603100,1.32160302734375,0.807426389709115,-7.991285169631242,5.202299763268232
1789620428094574800,1.331574951171875,-0.6693260059427469,-7.126341241455077,5.998462416163086
1789620428104546000,1.341546142578125,-0.8955196837037801,-4.826436406108737,4.540442120444775
1789620428114517000,1.35151708984375,2.5749136166155338,-3.8289196984812617,3.3450118539273737
1789620428124488000,1.361488037109375,6.297603768169879,-3.6726580004066225,3.773759829056263
1789620428134459100,1.371459228515625,8.083321648293733,-3.75202876650244,4.64821042124629
1789620428144429800,1.381429931640625,8.763038772934674,-2.9322423691749573,5.791840942421556
1789620428154402000,1.391402099609375,7.64811003010869,-2.029049228233844,7.246793082740902
1789620428164373000,1.401373046875,5.478211630856991,-0.971464859265089,8.074455620270967
1789620428174344000,1.411343994140625,3.120338006144762,0.44857261953949923,8.703765915232896
1789620428184315000,1.42131494140625,1.7197604300916194,1.6642983628496526,9.35388051329255
1789620428194285800,1.431285888671875,1.8496704200744627,2.7385160328418015,10.292863491147756
1789620428204257000,1.441257080078125,3.2052807271540162,4.1963355452910065,12.357590035831928
1789620428214228000,1.45122802734375,3.9987972494542596,5.7894216063201425,15.252904650104044
1789620428224200000,1.461199951171875,2.178939637710899,6.712930536189675,17.28847641197443
1789620428234171000,1.4711708984375,-0.5237010718904436,6.992179439246654,17.71632773052454
1789620428244142000,1.48114208984375,-5.9258384939789766,7.384861244738102,16.01665497969389
1789620428254113000,1.491113037109375,-12.30482758293748,9.53312765789628,13.111728487467765
1789620428264084000,1.501083984375,-22.84018816332817,11.964467500835656,10.994856745004654
1789620428274055000,1.511054931640625,-24.639921709322927,12.273144158428906,11.310323208868503
1789620428284027000,1.52102685546875,-7.4867749742925165,9.180352915379405,11.01278753849268
1789620428293998000,1.530998046875,4.338036218571663,8.869919184985756,12.255526668673753
1789620428303969000,1.540968994140625,5.423395168042183,8.616915314775705,13.20121995782256
1789620428313940000,1.55093994140625,0.6019769554216414,9.228896873795986,13.371824361765384
1789620428323911000,1.560910888671875,-6.440680698239803,8.51765063842535,10.640835217297077
1789620428333881900,1.5708818359375,-9.734610015183687,7.774114244824648,7.352192900845408
1789620428343853000,1.58085302734375,-8.288361405801773,4.341507694074512,4.956260471373796
1789620428353824800,1.59082470703125,-5.537340696173906,2.0027228007137774,7.02297731309235
1789620428363796000,1.6007958984375,-6.439423976176977,2.2307063575662673,8.806786144724487
1789620428373767000,1.610766845703125,-4.7866883330881596,1.219782617485523,8.600420691570639
1789620428383738000,1.620738037109375,-1.040607953596115,-2.201847635089606,5.565390148094296
1789620428393709000,1.630708984375,1.907796445828676,-6.418071391546726,-1.206928981131315
1789620428403679700,1.6406796875,2.798687300688028,-7.778643120425939,-4.0043712501943105
1789620428413652000,1.65065185546875,2.6168659216821193,-6.6571180480748415,-1.7572241915673017
1789620428423623000,1.660622802734375,2.539761639213562,-5.427974897047877,0.38358664488792416
1789620428433594000,1.670593994140625,1.61809804494977,-4.280342154493928,0.5613672240704297
1789620428443564800,1.680564697265625,1.45765146240592,-1.4260757360555232,3.7631373127549885
1789620428453536000,1.690535888671875,-2.3995383450090886,3.6721424520999193,8.545087511405349
1789620428463507000,1.7005068359375,-0.4358522541761398,5.483720165145397,3.900238091024756
1789620428473479000,1.71047900390625,4.515530966550111,-0.04030760659947991,-4.863765727549791
1789620428483449900,1.720449951171875,4.3810432933881875,-1.9332862763941288,-13.005276529961824
1789620428493420800,1.7304208984375,3.957762351493537,-1.180902778666839,-13.611454955661296
1789620428503392000,1.74039208984375,3.63543740003705,-3.608370821674168,-13.057190257072447
1789620428513363000,1.750363037109375,2.7125366651937366,-3.805561619247496,-10.789455752968788
1789620428523334100,1.760334228515625,3.165122027505934,-5.81312981416583,-10.154687192600965
1789620428533305900,1.770305908203125,3.9623125621438025,-8.200380924531817,-10.994793616640568
1789620428543277000,1.780277099609375,1.505475582115352,-7.399571907135844,-8.397434943982958
1789620428553248000,1.790248046875,-0.12496829579696059,-4.630540909042955,-4.071740905112028
1789620428563219000,1.800218994140625,0.49748555739894507,-2.4096288002602755,-3.0956250051707026
1789620428573190000,1.81018994140625,0.22838293143361804,-0.722566670808196,-3.6701954096853733
1789620428583160800,1.820160888671875,-0.08571925833970308,0.569609128845483,-3.22522987472713
1789620428593132000,1.830132080078125,-0.07715820461288093,1.816329583747685,-2.3293542171925306
1789620428603104000,1.84010400390625,0.22462957024946809,2.722678996762633,-1.5162363378435373
1789620428613075000,1.850074951171875,0.09661562314629554,2.7349466499224304,-1.8763176039814948
1789620428623046000,1.8600458984375,-1.2860171308934687,2.9038953956127167,-0.6255997500061988
1789620428633017000,1.87001708984375,-2.0275638119816777,3.0780519390791654,3.5816046875625847
1789620428642988000,1.879988037109375,-1.550575245296955,2.563351773637533,5.707755130502581
1789620428652959000,1.889958984375,-1.051499934488535,1.7169238914914429,4.533060778021812
1789620428662931000,1.899930908203125,-1.2292904505431652,0.735141636351496,2.3230174153864382
1789620428672902000,1.90990185546875,-1.8101403737187385,-0.24549480975419283,0.5157581500619649
1789620428682873000,1.919873046875,-1.8921195687472818,-0.7293452250324189,2.297720477044582
1789620428692844000,1.929843994140625,-0.9924047714412212,-0.18051570323482155,6.573318067359924
1789620428702815000,1.93981494140625,0.2658101602911949,-0.7146183421522379,8.408834289875626
1789620428712786000,1.949785888671875,-0.20750172717478124,-1.6338183227814733,7.265960140025615
1789620428722758100,1.959758056640625,-0.4878279040744528,-3.1658149782061575,5.900782963177561
1789620428732728800,1.969728759765625,0.741658909291029,-4.203662819439172,3.63017845659554
1789620428742699800,1.97969970703125,1.1710346609294413,-4.278889909859001,2.8189328008592125
1789620428752671000,1.9896708984375,0.29492285752892494,-3.672446403482556,2.564132110360265
1789620428762642000,1.999641845703125,-0.01922666025115177,-2.983715074519813,3.0003315705388784
1789620428772613000,2.009613037109375,0.8190800026237964,-2.800142760193348,3.532136015516519
1789620428782584800,2.019584716796875,1.1577256820231676,-3.2309336393266914,4.080948293918371
1789620428792556000,2.02955615234375,-0.8819465009033679,-3.243819132123887,1.1601911953538655
1789620428802527000,2.03952685546875,-1.9530349329590797,-2.7236171543955803,-1.1582318779796361
1789620428812498200,2.049498291015625,-0.6117232003450394,-2.637052385142445,0.24533903467059134
1789620428822469000,2.05946923828125,2.2742057459443807,-2.336476178026944,4.178607288637757
1789620428832439800,2.069439697265625,6.403800289610028,-2.2411899037882685,2.9940760172754524
1789620428842412000,2.079412109375,3.7401176716953515,0.3280092807032168,0.7575836236536503
1789620428852383000,2.089383056640625,-0.9056915336281061,2.45887959177196,1.1762076796531677
1789620428862354000,2.09935400390625,-7.114460249525308,2.4824381620138882,-3.396301311659813
1789620428872324900,2.109324951171875,-3.5964901220053433,-0.391389281462878,-14.32110193914175
1789620428882296000,2.119296142578125,-5.401978870525956,-0.8927411589011549,-12.952471991491317
1789620428892267000,2.12926708984375,-3.0471839226067066,0.6573033405199646,-4.875944825643301
1789620428902239000,2.139239013671875,-2.5558184555232524,1.650552453830838,-2.318454637515545
1789620428912210000,2.1492099609375,-2.8804081370413304,2.501577162247896,-1.9991390970081089
1789620428922180900,2.159180908203125,-2.6645611543148755,3.156865363553166,-2.0401941609740257
1789620428932152000,2.169152099609375,-1.6687947974860666,3.3347961648613214,-1.1863292606949805
1789620428942123000,2.179123046875,-0.45844227164685725,3.2376810677602887,-0.2711468451440334
1789620428952094000,2.189093994140625,-1.2517717469424008,3.146494776186347,-0.3259066093355417
1789620428962066000,2.19906591796875,-2.2617326333403587,2.884771008425951,-0.3464110527038574
1789620428972037000,2.209037109375,-2.8164643649190664,2.505009474784136,-1.0061363596737385
1789620428982008000,2.219008056640625,-2.9130308882266283,2.246014693596214,-2.694945186662674
1789620428991979000,2.22897900390625,-3.856910405951738,2.1391353044584394,-5.114617388162016
1789620429001950000,2.238949951171875,-5.142524216741323,1.8989323175020514,-6.495175089493394
1789620429011921000,2.2489208984375,-5.169573551708459,3.02744520291388,-5.620993961894512
1789620429021893000,2.25889306640625,-3.855629133969545,2.696711319552362,-4.206939649152756
1789620429031863800,2.26886376953125,-2.6107646821975705,-1.1407169718161225,-2.8994810863018032
1789620429041835000,2.2788349609375,-0.6434943031370639,-2.34950224833861,-3.5684307332128284
1789620429051806000,2.288805908203125,3.2551836989641187,-2.647016729795933,-5.6950148913949725
1789620429061777000,2.29877685546875,4.686814584928751,-4.563472867420315,-3.7700960458517074
1789620429071748900,2.308748779296875,0.36131869897842406,-5.853295820337534,0.04233399786055088
1789620429081719800,2.3187197265625,0.8512824825704097,-4.253101388607919,-4.25611196860075
1789620429091691000,2.32869091796875,-1.23452192145586,-2.1808847804293037,-1.9619541524738071
1789620429101662000,2.338661865234375,-1.6186942572772502,-3.581846679624915,6.349388900464773
1789620429111633200,2.348633056640625,3.2463013043284414,-3.5427331051155924,4.391662010297179
1789620429121603800,2.358603759765625,4.375160372829437,-0.8689294906809926,-0.0717255120396614
1789620429131576000,2.368576171875,1.6941840902864933,-0.10416793822199105,-0.9824877730607986
1789620429141547000,2.378547119140625,-1.1466763916771858,-2.2684786004692317,-3.6389690812945363
1789620429151518200,2.388518310546875,-1.460197055235505,-2.420164368930459,-5.635423469263315
1789620429161489000,2.398489013671875,1.0358090288817883,-2.0774182684749363,2.0220383265584707
1789620429171459800,2.4084599609375,-0.8241698731087148,-2.0724352193653583,2.5730524989187717
1789620429181431000,2.41843115234375,-2.9887141979813574,-1.189386894699931,0.24815876826643943
1789620429191403000,2.428403076171875,-0.9698663380272686,-0.26070143897533415,1.1667203048616648
1789620429201374000,2.4383740234375,0.294265781859681,-0.9232920722484588,2.922201452153921
1789620429211345000,2.448344970703125,1.264112173077464,-1.8295406552374363,5.881730472183227
1789620429221316000,2.458316162109375,1.809257161143422,-4.877589670240879,7.190200257903337
1789620429231287000,2.468287109375,2.263634083047509,-5.65643235502243,7.312344874581695
1789620429241258000,2.478258056640625,1.7311141832768917,-4.045363185796141,7.680791818004846
1789620429251230000,2.48822998046875,0.286149768486619,-3.0824440365582704,7.920858465230465
1789620429261201000,2.498200927734375,0.013583119672536849,-0.08901391597092151,4.65056019924283
1789620429271172000,2.508172119140625,-0.07104980473518371,-4.929539053186774,2.206721524736285
1789620429281143000,2.51814306640625,1.67440211597383,-6.843078426581621,2.732659708029032
1789620429291114000,2.528114013671875,-3.5306899083614347,-1.781086128669977,-0.18357319110929965
1789620429301085000,2.5380849609375,-0.9513251575559377,2.4405513233989478,-6.289989201512933
1789620429311057200,2.54805712890625,1.6852888361692429,3.3214316563755273,-3.1933740162611004
1789620429321028000,2.558028076171875,1.4367062895327805,2.818893053370714,1.5900322264164686
1789620429330998800,2.567998779296875,0.9773393042564391,2.289863333803415,0.7655413046598434
1789620429340970000,2.577969970703125,0.04119359565377235,1.5743623635977506,-0.5713958661317825
1789620429350941000,2.58794091796875,-0.9635667994916438,0.5230681808143853,-0.24486264933049678
1789620429360913200,2.5979130859375,-1.4729472312152385,-0.7066226672232151,1.2175251939475535
1789620429370883800,2.6078837890625,-0.9863777662366628,-0.7660393173098564,1.047258643656969
1789620429380855000,2.61785498046875,-0.29904081424176693,0.04187690174281597,0.5890156939744949
1789620429390826000,2.627825927734375,-0.2030126355946064,0.9088467827886343,1.220419161823392
1789620429400797000,2.637796875,-0.6717875006854533,1.2122516374588013,3.002891191893816
1789620429410768100,2.64776806640625,0.023000918092858046,0.48758302593529224,3.9305157403886315
1789620429420739800,2.65773974609375,2.791930227643251,0.14197919796109199,2.3918565583348275
1789620429430711000,2.6677109375,3.3536884968578815,7.51315795430541,2.026847772666812
1789620429440682000,2.677681884765625,2.077975317835808,12.862356251758337,0.25666180819571016
1789620429450653200,2.687653076171875,0.26981187021322545,11.918651506078243,-1.2973404889404774
1789620429460624000,2.697623779296875,0.05861578203253447,13.472585414153336,0.688808193591237
1789620429470594800,2.7075947265625,0.6603928309679031,13.665806139051913,1.5813994226276873
1789620429480567000,2.717567138671875,2.887810522252321,9.600654549202323,0.7727057894617319
1789620429490538000,2.7275380859375,5.08374469551444,7.2991013621270655,0.19384090262353418
1789620429500509000,2.737509033203125,4.634530270940065,8.370101531377435,0.2181973452448845
1789620429510480000,2.74747998046875,3.4710897184014318,9.287737769821286,0.11925707854330539
1789620429520451000,2.757451171875,1.3600374758720397,7.601946244826912,-1.6834370708227158
1789620429530422000,2.767422119140625,0.6437737776655703,3.2050679611861703,-3.8961511139720675
1789620429540394000,2.77739404296875,-0.5070809226095676,-1.6961965991526842,-4.121223605683445
1789620429550365000,2.787364990234375,2.869078933775425,-8.807557713618873,-2.742279184767604
1789620429560336000,2.7973359375,5.319094251090288,-11.80298865263462,0.5371364536553621
1789620429570307000,2.80730712890625,0.7278045714616775,-7.916248341086506,2.1756267137706278
1789620429580278000,2.817278076171875,-0.7315840900003909,-13.8771002807796,6.9722004810571665
1789620429590250000,2.82725,0.38055885803196576,-20.818310580289364,12.885707901251315
1789620429600221000,2.837220947265625,3.484814292371273,-15.461975270563363,1.263263447293639
1789620429610192100,2.847192138671875,3.73042220711112,-8.409725101235509,-8.082048559617995
1789620429620163000,2.8571630859375,0.5472948595762253,-6.419482427388429,-5.9146565902292725
1789620429630134000,2.867134033203125,-1.7057856807529925,-3.766094408994913,-1.5481705222427844
1789620429640105000,2.87710498046875,-0.8823264401316642,-2.604690915241837,-0.3034504473775625
1789620429650077200,2.8870771484375,-0.20596330209374428,-2.2857617437034845,0.10396715495288371
1789620429660048100,2.897048095703125,0.41087683940622954,-1.6384364841014145,-0.3046235828101635
1789620429670018800,2.907018798828125,0.7139326979756355,-1.194974923965335,-0.44306642333865165
1789620429679990000,2.916989990234375,0.3980196959206834,0.42498423868119717,1.3384370539605617
1789620429689961000,2.9269609375,0.5835095708388834,1.8782465262174606,2.42972948513329
1789620429699933000,2.936932861328125,0.6679986297965049,1.5428975502759217,2.0143489410996436
1789620429709904000,2.94690380859375,0.3846399533331394,0.7414923205524683,1.6473521964848041
1789620429719875000,2.956875,-0.12528401068262754,0.7207008769363165,1.6619798567742108
1789620429729846000,2.966845947265625,-0.38145661058928815,0.8223375431150197,0.7887193511515855
1789620429739817000,2.97681689453125,-0.6201122585058212,0.6463099450796842,-0.4339396985530853
1789620429749788200,2.9867880859375,-0.4365970081288367,1.201876958438754,-0.49959436624646186
1789620429759760000,2.996759765625,0.5097288067698479,1.4605249720156193,-0.9472761744260787
1789620429769731000,3.00673095703125,1.074645759211108,1.705428537878394,-0.6055658467590809
1789620429779702000,3.016701904296875,0.9814777192354202,1.8962433706790207,0.16940028885006903
1789620429789673200,3.026673095703125,0.3616613018710166,0.7295178051203489,0.5871867249816656
1789620429799644200,3.03664404296875,-0.12633388506174087,0.12635200524032114,2.111920257535577
1789620429809615000,3.046614990234375,0.04079612076878547,-0.3170148623496294,2.5515888551294803
1789620429819587300,3.05658740234375,0.699416754432395,-0.5014934778660536,1.8620681293547152
1789620429829558000,3.06655810546875,0.33572014734148975,-0.08950549888014793,1.5128589703649282
1789620429839529200,3.076529296875,0.030421003357321022,0.0743441701054573,1.609839919692278
1789620429849500200,3.086500244140625,0.08694514687284827,-0.17157704836726187,1.489773862853646
1789620429859471400,3.096471435546875,0.1386004422429949,-0.3019616701245308,1.038071713116765
1789620429869443000,3.106443115234375,0.22530966146811843,-0.5903372979670762,0.06035246963202953
1789620429879414300,3.116414306640625,0.9544913665018975,-0.43847500389516353,-1.0081973838567733
1789620429889385200,3.12638525390625,1.55573189740777,0.6467983131185173,-1.313460433614254
1789620429899356200,3.136356201171875,1.3139010169886052,1.7722236077785491,-0.8187100002676249
1789620429909327400,3.146327392578125,1.37144602798447,1.7170193146899342,-0.4439525585234165
1789620429919299000,3.156299072265625,1.637248297230154,0.5554489399373531,-0.6715525228857994
1789620429929270300,3.166270263671875,1.381463710260391,-0.023159049530327318,-1.0556786814779042
1789620429939241200,3.1762412109375,1.19061965136528,0.05618190594911575,-1.677656733855605
1789620429949212400,3.18621240234375,0.5608255184091627,0.689843381857872,-1.2348299644917249
1789620429959183000,3.19618310546875,0.49552960102558136,1.405108497481048,-0.43735447543263434
1789620429969154000,3.206154052734375,0.7455461259879171,1.3363488495096563,0.05357201571166515
1789620429979126300,3.216126220703125,0.8725881593190133,1.3341478323340414,0.6619272009283304
1789620429989097200,3.22609716796875,0.5071405438423157,1.0176146160215138,1.0960206287384033
1789620429999068200,3.236068115234375,0.08530044840574263,0.6189496444672345,1.5834803205549717
1789620430009039000,3.2460390625,0.24036826052069662,0.2314651153579354,1.7541490219056606
1789620430019010300,3.25601025390625,0.8987516513623297,-0.27530688743293286,1.5066513478964567
1789620430028982300,3.265982177734375,1.4875298833191395,-0.5120630949363112,0.7583060927093028
1789620430038953200,3.275953125,1.420949186822027,-0.6771025582283735,-0.17243337293565272
1789620430048924200,3.285924072265625,1.205850099853426,-0.6579191343307494,-0.6519903288036585
1789620430058895000,3.29589501953125,0.5648550661861896,-0.4146010840937495,-0.47569092808961866
1789620430068866300,3.3058662109375,0.8019817144371568,-0.8541367029577493,-1.4250152672171592
1789620430078837200,3.315837158203125,1.1281425907947122,-1.3021417517423628,-2.0543442668795584
1789620430088809200,3.325809326171875,0.6105765145279467,-1.103923072426021,-1.016366661787033
1789620430098780200,3.3357802734375,0.13349793147221206,-0.8443842474892735,0.05937281094491481
1789620430108751400,3.34575146484375,-0.36982802251800895,-1.1259820517599581,0.38744215127229686
1789620430118722300,3.355722412109375,-0.23560309194549917,-2.0751950394675136,0.15879589272737502
1789620430128693000,3.36569287109375,0.38963995357751846,-2.7951035969823597,0.04952303258180618
1789620430138665200,3.375665283203125,0.5491830114103854,-2.079554111459851,1.0658698206245898
1789620430148636200,3.38563623046875,0.2628397661782801,-1.8875944925382733,-0.2575707397341728
1789620430158607400,3.395607421875,-0.44905879562124607,-2.0915303804576397,-2.907266333350539
1789620430168578000,3.405578125,-0.9324630745671689,-1.178445229446888,-3.366640917411446
1789620430178549200,3.41554931640625,-0.4026141475714743,-0.292347161822021,-2.671066882947087
1789620430188520200,3.425520263671875,0.6777484549164772,-0.07746025629937649,-1.9369909761309623
1789620430198492400,3.435492431640625,0.9446835275843739,-0.0061129299223423,-0.9556547111928463
1789620430208463000,3.445463134765625,0.21642156774401664,-0.23715572821497916,-0.7137550033211708
1789620430218434000,3.45543408203125,-0.37734059010520576,-0.7259346859365702,-0.2529524322837591
1789620430228405200,3.4654052734375,0.12839140211343764,-1.2037205404788256,0.2924006455749273
1789620430238376200,3.475376220703125,-0.14366145195960997,-1.1865855735436082,0.9753431620031595
1789620430248348200,3.48534814453125,-0.13559724183902144,-0.862686504638195,1.1311994941473007
1789620430258319000,3.495319091796875,0.38784547137618064,-1.5230486482068895,0.2041279033601284
1789620430268290300,3.505290283203125,0.23669044879078863,-1.6876280927717684,-0.6491156501501798
1789620430278261200,3.51526123046875,0.32561259482502936,-0.3951426426470279,-0.9733183781772852
1789620430288232200,3.525232177734375,1.021228714865446,-0.1519450039193034,-2.5795652418136594
1789620430298204200,3.5352041015625,1.5608322892867028,-0.4333601450994611,-4.063157201161981
1789620430308175000,3.545175048828125,1.6283575731575488,0.12881284239590168,-3.554983222618699
1789620430318146300,3.555146240234375,1.392305422270298,0.21453063943088052,-3.2714100266218185
1789620430328117200,3.5651171875,0.9646094404123723,0.5903723692804574,-2.342078089687228
1789620430338088200,3.575088134765625,0.8290028462231158,1.877540716035664,-0.5409820231676101
1789620430348060200,3.58506005859375,0.13321144268102944,2.2638827971115707,1.0274006814986467
1789620430358031400,3.59503125,-2.6447300801634785,1.0276672234803437,1.4101537981718777
1789620430368002300,3.605002197265625,-1.533586701095104,-0.5215218281552195,0.23274024986028669
1789620430377973200,3.61497314453125,0.2355729160029441,-0.4023305083245039,0.03416004375517368
1789620430387944200,3.624944091796875,0.002610474759340286,0.5249015337213874,-0.6080880587130785
1789620430397915100,3.6349150390625,-0.4703273552298546,0.9239742092937231,-1.0773843173295259
1789620430407887000,3.64488720703125,-0.4484615603804588,0.9558438040241598,-0.5903256075292825
1789620430417858000,3.654858154296875,-0.792206024223566,0.3934595118656754,-0.30032033265829083
1789620430427829200,3.664829345703125,0.34379126212690025,-0.40625177342146634,-1.5042249975323676
1789620430437800200,3.67480029296875,0.9366296196620911,0.48093496622294185,-0.2130290026962757
1789620430447771400,3.684771484375,0.179484460490942,0.7409674198955297,1.1934130814760924
1789620430457743000,3.6947431640625,-0.32806645425055175,-0.0993622915059328,1.7995675417780874
1789620430467714300,3.70471435546875,-0.569947384356521,-0.4781134790614247,2.4844196912199257
1789620430477685200,3.714685302734375,-0.7411608966410159,-0.8320406064838171,1.8287515506863592
1789620430487656200,3.72465625,-1.4960896218717097,-0.6669666564002633,1.0479051248669624
1789620430497627100,3.734627197265625,-1.2319897726297377,-0.40036768381893634,-0.5899900919646024
1789620430507599000,3.74459912109375,-0.3779343182146549,0.08304331712871789,-2.126350933948159
1789620430517570300,3.7545703125,-0.0849065537173301,0.6023275954902172,-3.088714787390828
1789620430527541200,3.764541259765625,0.18929039971232414,1.122616082458198,-3.784835349822044
1789620430537512200,3.77451220703125,1.1847545587241648,1.5265326909303665,-3.9241251625686884
1789620430547483100,3.784483154296875,0.7009329311490059,1.598063849441707,-3.4150545274466273
1789620430557455400,3.794455322265625,-0.34621812394764273,1.5403154248282311,-2.533252403450012
1789620430567426300,3.80442626953125,-0.07395951816942542,0.47761020571440455,-3.3840491483300923
1789620430577397000,3.81439697265625,-0.9082254360198974,-0.6833245014831424,-3.472069961610436
1789620430587368200,3.8243681640625,-2.033576204138994,-1.2545461800917983,-2.6515117031276225
1789620430597339100,3.834339111328125,-1.829789077040553,-1.3598831620931624,-1.962868344709277
1789620430607311400,3.844311279296875,-1.5016881725311277,-0.9471426111742853,-1.0173106646388768
1789620430617282000,3.854281982421875,-1.4619476982951163,-0.43609541528224943,0.33836978506743903
1789620430627253200,3.864253173828125,-1.735421525081992,0.004148059590160846,2.022472041800618
1789620430637224200,3.87422412109375,-2.379389875471592,0.4070893932893872,3.849583424064517
1789620430647195100,3.884195068359375,-1.7991764966338872,0.7244210665032267,4.019470035126805
1789620430657167000,3.8941669921875,0.049396775853633876,0.5999281331330537,1.5522499005109072
1789620430667138000,3.904137939453125,0.035329672056436535,0.9491367076009511,0.5192582671374082
1789620430677109200,3.914109130859375,-1.038935051947832,1.9291940386444328,0.8007914817392826
1789620430687080200,3.924080078125,-0.1735112313002348,2.8831384387880563,0.6886100406706332
1789620430697051400,3.934051513671875,0.6396914767879992,3.1395605930089947,1.3172206629306078
1789620430707022000,3.94402197265625,0.27065993840992447,2.4246464827805756,1.323991764500737
1789620430716994300,3.953994384765625,0.09802545341160147,1.4521768303871154,0.4145546146035194
1789620430726965200,3.96396533203125,0.5308774663258343,1.253457508072257,0.24876667103171346
1789620430736936200,3.973936279296875,0.6716361095160246,1.54489603061676,0.6424678826987743
1789620430746907100,3.9839072265625,0.9224544523805379,1.9355355166256427,0.6072270579695701
1789620430756878000,3.993878173828125,0.8381377543151378,1.912570820623636,0.38041035293936726
1789620430766850300,4.003850341796875,1.1263608950097113,0.6615875937104225,0.5626391437023878
1789620430776821200,4.0138212890625,-0.017711597779393195,-1.2033552142977715,2.866443324574828
1789620430786792200,4.023792236328125,-0.5875468635309488,-2.336802195110917,4.100891596272588
1789620430796763100,4.03376318359375,0.42276005982570347,-2.4380694434553383,2.7359160794764756
1789620430806734800,4.04373486328125,-0.10704765837676823,-1.7638146758735178,1.4473726449757813
1789620430816706800,4.053706787109375,-1.2333330039322377,-0.43551556956768034,1.1064572670787571
1789620430826677800,4.063677734375,-0.6877425371211022,0.8556266492545604,0.7182873860538005
1789620430836649000,4.07364892578125,-0.13908172295391558,1.1168518198430537,1.2681366062879562
1789620430846620000,4.083619873046875,-0.6239888807434588,0.13373685479462147,2.7088141375392674
1789620430856590800,4.0935908203125,0.016636662024259567,-1.3030319785803555,2.137375016787648
1789620430866562800,4.103562744140625,0.9127017777163535,-2.0623019478857514,0.10459200885295868
1789620430876533800,4.11353369140625,0.11021277134418486,-2.0165029042631386,-0.9447872802197933
1789620430886505000,4.1235048828125,-1.074953802246973,-1.1703753202378748,-1.2282459099262952
1789620430896476000,4.133475830078125,-1.025807201762125,-0.0702355657428503,-1.2241045723378658
1789620430906446800,4.14344677734375,-0.26636889015249904,0.48851826095879075,-1.4140665877014398
1789620430916418800,4.153418701171875,-0.011019991186261176,1.0075327824681997,-1.1999720016002655
1789620430926390000,4.16339013671875,0.2014566383242607,1.720923044130206,-1.4106523953437804
1789620430936361000,4.17336083984375,0.8302221588850021,2.069580414456129,-1.8382576301783322
1789620430946331600,4.18333154296875,0.9235772458653897,2.18923730597198,-2.1515689618349074
1789620430956302800,4.193302734375,0.37401860607564447,2.172373264932632,-1.9496002823352812
1789620430966274800,4.20327490234375,-0.5081085120916367,1.6451251680850982,-0.8971674509108066
1789620430976245800,4.213245849609375,-1.032338795487955,0.6829916162669658,0.27383798392415043
1789620430986216700,4.223216796875,-0.6207466108866035,-0.534941573959589,1.6198223845243453
1789620430996188000,4.23318798828125,-0.32650793622955676,-0.9604811084359883,2.9949171442747113
1789620431006158800,4.243158935546875,-0.6173169286988676,-1.0919026720255613,4.32062155791223
1789620431016130800,4.253130859375,-1.2058154669314622,-1.1789438266187906,3.485011860769987
1789620431026101800,4.263101806640625,-1.3783879560768604,-0.5046645091176033,2.5632015515118836
1789620431036072700,4.27307275390625,-0.6730103204786777,0.5135135860055685,2.7755992705672976
1789620431046044000,4.2830439453125,0.44038054525554177,1.7262673277676104,2.398165303090215
1789620431056014800,4.293014892578125,0.7258937694042921,1.949720109322667,2.047401900395751
1789620431065986800,4.30298681640625,0.44639125691242515,1.2601327480524778,1.0508061070054768
1789620431075957800,4.312957763671875,0.6369429817974567,-0.2764683324277401,0.3587888882398605
1789620431085929000,4.322928955078125,0.9201070124715566,-2.0902052693337203,0.534167666977644
1789620431095900000,4.33289990234375,0.2956260373622179,-2.0135534068077803,-0.08370937982201576
1789620431105870800,4.342870849609375,-0.763740392717719,-1.089486258533597,1.4474042091578245
1789620431115842800,4.3528427734375,-1.36932494417727,-0.5546387925982474,2.7442952007651327
1789620431125813800,4.362813720703125,-0.5438929421782494,-0.5370908609479665,2.582065241935849
1789620431135785000,4.372784912109375,0.5425964726269245,-0.7421452315032482,1.9654057542324066
1789620431145755600,4.382755615234375,1.4140525591760873,-1.2897843744724988,0.7675836241424083
1789620431155726800,4.392726806640625,0.9677310064990073,-1.8680735072493553,0.5072837517052888
1789620431165698800,4.40269873046875,0.6678671123713255,-1.8061299690335988,0.4537684346169233
1789620431175670000,4.412669921875,0.38704007327742873,-1.7429443218022584,-0.10057342086136341
1789620431185640700,4.422640625,-1.164604920142889,-1.9286299750208853,0.2703618322461843
1789620431195611600,4.432611572265625,-2.128040786731243,-1.4277578439235687,0.8118938905119896
1789620431205582800,4.442582763671875,-1.3696739037454126,-1.0300731155782938,-0.4962175832897424
1789620431215554800,4.452554931640625,0.01611760658621788,-1.2123363931328057,-2.162942588764429
1789620431225525800,4.46252587890625,-0.43982064635045826,-0.5622662187367677,-1.069787870851159
1789620431235496700,4.47249658203125,-0.03578384556472301,0.3133925801992416,-0.4867383918046951
1789620431245468000,4.482468017578125,1.2608351972334086,-0.146205291223526,-1.9113176056921481
1789620431255438800,4.49243896484375,1.499080620381236,-0.937560836097598,-2.7240000162333247
1789620431265410800,4.502410888671875,0.24130408006608484,-0.46159109106659885,-0.9272434402227401
1789620431275381800,4.5123818359375,-0.7738632158685476,-0.37734628919363017,0.21925649890899657
1789620431285353000,4.52235302734375,-0.803330644828081,-1.047497128587961,0.47771805000305173
1789620431295324000,4.532323974609375,-0.1872737261276692,-1.4037696500927208,0.5417074148327112
1789620431305294800,4.542294921875,0.9191986654549836,-1.4346955342322587,0.4699316339105367
1789620431315266800,4.552266845703125,0.3148229052633047,-0.689257690924406,1.8695073394447563
1789620431325237800,4.56223779296875,-0.4580810371190309,0.7424404150575399,3.704810211470723
1789620431335209000,4.572208984375,0.27283077964298424,1.3760650660872458,3.6469466360449787
1789620431345180000,4.582179931640625,1.1435245765827595,0.6149865860551595,1.5084417384445667
1789620431355150800,4.59215087890625,0.14150215503387154,0.18088322137296198,0.49647126578986644
1789620431365122800,4.602122802734375,-1.2042629767924546,0.30861703636050225,0.38666298359334467
1789620431375094000,4.612093994140625,-2.360136893469095,0.40076866583526133,0.7911953858762979
1789620431385065000,4.62206494140625,-2.662926246589422,0.38859015226364135,1.9442735343545674
1789620431395035600,4.63203564453125,-1.1390677433043717,0.33906244350671766,2.4702590639203788
1789620431405006800,4.6420068359375,0.42691031137295066,0.4039630779623985,1.472270939388871
1789620431414978800,4.651978759765625,0.71664721763134,0.898214914137125,0.8669763107866049
1789620431424949800,4.66194970703125,0.3469885603308677,1.3030880926817654,0.8141612509220838
1789620431434920700,4.671920654296875,0.9351952760100364,0.9932131652146577,0.3171305976837873
1789620431444892000,4.681891845703125,1.270085986790061,0.3194891435086727,-0.1274269409954548
1789620431454862800,4.69186279296875,0.609890103166364,-0.07364858905673026,-0.07157645895779133
1789620431464834800,4.701834716796875,-0.08456800594534725,-0.7018570602566003,0.2840092493265867
1789620431474805800,4.7118056640625,-0.8320008589953184,-1.0184949059873818,1.5367986488789318
1789620431484776700,4.721776611328125,-0.44092999583184717,-0.9893588278740644,2.1731875039249657
1789620431494748000,4.731747802734375,0.19757132132351396,-0.5661532893031835,1.9015946685791014
1789620431504718800,4.74171875,0.230969714790117,0.3169125710189342,1.0306161364138127
1789620431514690800,4.75169091796875,-0.28122109817909074,1.1973194412648678,0.7133984449684619
1789620431524661800,4.761661865234375,-0.32820494940578937,1.3230758186995983,1.3086422196775673
1789620431534633000,4.771633056640625,0.6089905605107545,0.8848872305303811,0.7928063282042741
1789620431544604000,4.78160400390625,0.7442951030135154,0.7996464033573866,-0.609276976236701
1789620431554574800,4.791574951171875,-0.018195579620765054,1.1497890438050031,-1.0436790316045284
1789620431564546800,4.801546875,-1.0414438198983669,1.1255880840063095,-0.4223725948780775
1789620431574517800,4.811517822265625,-0.49490065547227857,0.7342389884233474,0.8972095364868641
1789620431584489000,4.821489013671875,1.1062041691005229,0.7305360422521829,2.2723913899987935
1789620431594459600,4.831459716796875,1.6033260077536104,0.6674123543411493,2.662580794152617
1789620431604430800,4.841430908203125,0.5758931775510311,0.5410603491008281,2.809735348924994
1789620431614402800,4.85140283203125,-0.04134089516997337,0.2806190223664045,2.385737783193588
1789620431624374000,4.8613740234375,0.029400282007455824,-0.06858370688259602,1.3469979615569114
1789620431634344700,4.8713447265625,-0.17863222757577896,-0.6178618492305279,0.3742664433568716
1789620431644315600,4.881315673828125,-0.11041152705298736,-1.1983318331778048,0.1979576902925968
1789620431654286800,4.891286865234375,0.06146015687929466,-1.7564228120565413,0.5223924735099077
1789620431664258800,4.9012587890625,0.24452771828770636,-2.2364541074380275,0.8194839072495699
1789620431674229800,4.911229736328125,-0.08848609270453453,-2.7335663014799354,0.7263707392662763
1789620431684200700,4.92120068359375,-0.5752127940714359,-2.578838388843834,0.658766691070795
1789620431694172000,4.931171875,-0.3072515932261944,-1.4245143319576978,-0.19354338098168372
1789620431704142800,4.941142822265625,0.2667395500957966,-0.0872410610795021,-1.8680372668921947
1789620431714114800,4.95111474609375,0.21957915499210356,0.8473346217274665,-2.2223779435515403
1789620431724085800,4.961085693359375,0.24162958569340406,1.4489914783492683,-1.9121984801799057
1789620431734056700,4.971056640625,0.6736064597409218,1.544400356054306,-2.02077166762352
1789620431744028000,4.98102783203125,0.33731589210033414,1.7289730795949696,-1.3638263467609881
1789620431753999600,4.99099951171875,-0.08078092515468598,2.116578312474489,0.012043489015102386
1789620431763970800,5.000970703125,-0.5562007081527263,1.6252078769549727,0.794414347922802
1789620431773941800,5.010941650390625,-1.038076900748536,0.7518745983570814,1.9404916777282952
1789620431783913000,5.020912841796875,-0.6138812551617622,-0.46465310898572204,2.88147138235867
1789620431793884000,5.0308837890625,0.26488899032566693,-1.9524965882986782,2.7649820149630306
1789620431803856000,5.04085595703125,0.44970662853810933,-2.9323014058858154,2.588279878666997
1789620431813826800,5.050826904296875,0.4899801502048969,-3.0809701646134258,1.8925620518177746
1789620431823798000,5.060798095703125,0.5392845715999603,-2.463572133502364,0.5152332494050264
1789620431833769000,5.07076904296875,1.0239432345211505,-0.9121054923236369,-0.9438561368495225
1789620431843739600,5.08073974609375,1.0786907968182116,-0.36186610372811556,-1.9405764334022997
1789620431853712000,5.0907119140625,0.9750094730693847,-1.2686346189379691,-2.2552035238325594
1789620431863682800,5.100682861328125,1.2994799851872025,-1.3605819580122829,-2.1963398314535616
1789620497692726300,70.92972631835937,-1.2910089478313922,0.9887444953680038,-0.603590089706704
1789620497702697200,70.939697265625,-0.38076924937963486,0.926948841190338,-0.6074975454740226
1789620497712668400,70.94966845703125,0.15056465547680853,0.8521814772367476,-0.5051837472187355
1789620497722639400,70.95963940429688,0.4114952270328998,0.6518266626745463,-0.33729700473677365
1789620497732610300,70.9696103515625,0.646332741433382,0.4388590347766876,-0.3131344772523269
1789620497742581200,70.97958129882812,0.650920653745532,0.20390695408582687,-0.4149701731344685
1789620497752552200,70.98955224609375,0.3846621651649475,0.10716448968946933,-0.5426875119112432
1789620497762523400,70.9995234375,0.0990963340461254,0.21634733346402643,-0.6723552175708115
1789620497772494300,71.00949438476563,0.04789104746580124,0.26247137125730513,-0.6986185167267919
1789620497782465300,71.01946533203125,-0.11824176402091979,0.1659153693437576,-0.5078937002971768
1789620497792435500,71.029435546875,-0.4618588020920753,-0.01710369501411915,-0.43528424502983687
1789620497802406400,71.03940649414062,-0.7358768187582493,-0.162522219774127,-0.7094407933838665
1789620497812377000,71.04937719726563,-0.9521820666462183,-0.25579203962385655,-1.1549155930384993
1789620497822348300,71.05934838867188,-1.188495498818159,-0.4067395569384098,-1.5131754889681934
1789620497832319200,71.0693193359375,-1.4950532645612955,-0.4341314217329025,-1.6890797528848052
1789620497842290400,71.07929052734374,-1.7838976789593695,-0.07908055097758769,-1.6159405746549367
1789620497852261400,71.08926147460937,-1.7380483664542437,0.3197323046147823,-1.2618312225334345
1789620497862232300,71.099232421875,-1.6431284413099287,0.48627954212129115,-0.8252918628759681
1789620497872203500,71.10920361328125,-1.577841437885165,0.4295131142824888,-0.4702344893146306
1789620497882174700,71.1191748046875,-1.4393290392518043,0.22943477857410907,-0.4082281880609691
1789620497892145700,71.12914575195313,-1.054019223833084,0.0530336710512638,-0.5811205568104982
1789620497902116900,71.13911694335937,-0.5931535244315862,-0.03912906433939933,-0.770793087708205
1789620497912087600,71.14908764648438,-0.25794249565601346,-0.09949790058434009,-0.7551902987763285
1789620497922058800,71.15905883789063,-0.2637181564480066,-0.061107671913504594,-0.5501575555309653
1789620497932028700,71.16902856445313,-0.4166957182854414,0.15039689769446848,-0.4203811287999153
1789620497941999600,71.17899951171874,-0.2534960376411676,0.42827568144202227,-0.3825761526711285
1789620497951970800,71.188970703125,-0.09595628245472908,0.6224450853675604,-0.11394596652314067
1789620497961941800,71.19894165039062,-0.09446984328925609,0.7246493223011493,0.2717483181685209
1789620497971912700,71.20891259765625,-0.08558277247846126,0.6978168449550867,0.5997761574417352
1789620497981883600,71.21888354492188,0.10103227054476738,0.5899591123044491,0.7310846160456538
1789620497991854600,71.2288544921875,0.3872913446247577,0.4920113637715578,0.635191169694066
1789620498001825800,71.23882568359375,0.6620183863431215,0.4920680623948574,0.473690986444056
1789620498011796700,71.24879663085937,0.8551204532980918,0.5162018021762371,0.40086087416335936
1789620498021767700,71.258767578125,0.9278595262944698,0.507503531935811,0.42898572940751906
1789620498031739000,71.26873876953125,0.9114140029281377,0.4492494958877563,0.42441184562072154
1789620498041709600,71.27870947265625,0.8181535354286432,0.3991968864738941,0.23736162605062125
1789620498051680800,71.2886806640625,0.6567816547334194,0.37220249656438825,-0.025924714851379392
1789620498061651700,71.29865161132813,0.4685580074697733,0.35776071423590183,-0.26657880657613275
1789620498071622700,71.30862255859375,0.30251053617894647,0.42081542856395243,-0.34814437930248676
1789620498081592800,71.3185927734375,0.14401567222476006,0.45839434085190295,-0.2632311035834253
1789620498091563800,71.32856372070313,0.02579845812320709,0.4803852233856916,-0.16344561822935938
1789620498101534700,71.33853466796874,0.050181204229593275,0.45118718595206736,-0.11023242589272558
1789620498111505700,71.34850561523437,0.21456804883182048,0.4492711231976747,-0.04454137171171605
1789620498121476600,71.3584765625,0.41855157528519626,0.3719184189260006,-0.041770372628420586
1789620498131447800,71.36844775390625,0.5132406142830849,0.24367957702577112,-0.08355418926030397
1789620498141418800,71.37841870117188,0.4541209013164043,0.19436171162724494,-0.08645875159539282
1789620498151389700,71.3883896484375,0.3466308329343796,0.16629706213772297,-0.22080555498190224
1789620498161360600,71.39836059570312,0.22164836248159409,0.2725590500295162,-0.30810433759801087
1789620498171331600,71.40833154296875,0.16092647501528262,0.3252759102165699,-0.2894066513907164
1789620498181302800,71.418302734375,0.16017185725569724,0.2954512653172016,-0.23862243976667522
1789620498191273700,71.42827368164062,0.18587270022332666,0.2001367878973484,-0.17047405556142328
1789620498201244700,71.43824462890625,0.1418611245393753,0.14675065014660357,-0.10774126666411757
1789620498211215600,71.44821557617188,0.02620411631464958,0.08366437163650989,-0.06311119375564157
1789620498221186600,71.4581865234375,-0.14272621693611146,0.022552608069777488,-0.0819482884336263
1789620498231157800,71.46815771484376,-0.35535073048472404,0.03204056738317013,-0.07780212853960693
1789620498241127700,71.47812768554688,-0.4680635019510984,0.07277882048487663,-0.04761588378623128
1789620498251098600,71.4880986328125,-0.44549569631218905,0.07018588138222694,-0.06286123758256434
1789620498261069800,71.49806982421875,-0.32592122238278387,0.013813421297073364,-0.09552585514821112
1789620498271040800,71.50804077148437,-0.28036767795383927,-0.08493395318090916,-0.11021496330127119
1789620498281011700,71.51801171875,-0.23063304844796656,-0.14414718964993953,-0.12178170165009795
1789620498290982700,71.52798266601563,-0.19482816009521484,-0.18533260199725626,-0.15404380282945931
1789620498300953600,71.53795361328125,-0.19755553923249244,-0.24765140326619148,-0.1498068228468299
1789620498310924800,71.5479248046875,-0.1514239026546478,-0.30189035845398904,-0.21289229763932524
1789620498320895700,71.55789575195313,-0.01108954929113388,-0.3067752078860998,-0.4084078554768115
1789620498330866700,71.56786669921875,0.1758984186977148,-0.3287327726721763,-0.5697217954397201
1789620498340837600,71.57783764648437,0.3370516882061958,-0.3750251527696848,-0.5500315179985016
1789620498350808600,71.58780859375,0.35681437329649923,-0.29912673895955083,-0.4481347395788878
1789620498360779800,71.59777978515625,0.3219505651861429,-0.14349661678671835,-0.4431991828728467
1789620498370750700,71.60775073242188,0.2891331682115793,0.02834989617168903,-0.42348757038265467
1789620498380720600,71.617720703125,0.22947394154071807,0.15298749870955944,-0.39974750609397885
1789620498390691800,71.62769189453125,0.20128011271357535,0.18583353725671767,-0.43801330466754734
1789620498400662800,71.63766284179688,0.18699030607640743,0.17777122683227062,-0.46220272015891967
1789620498410633700,71.6476337890625,0.16478607305288315,0.16044892063140867,-0.5074461026601493
1789620498420604700,71.65760473632812,0.16355156282186506,0.13452069864869118,-0.5974607931714505
1789620498430575600,71.66757568359375,0.25870120506882666,0.09842296482920646,-0.7027381539400667
1789620498440546800,71.677546875,0.4336825089216232,-0.0027671266257762906,-0.84390340516977
1789620498450517800,71.68751782226562,0.6110328799933195,-0.15215104788541792,-0.8801186278890818
1789620498460488700,71.69748876953125,0.6220207224756479,-0.18480536325275898,-0.7632276208899915
1789620498470459600,71.70745971679688,0.4776707037299871,-0.08371814765036105,-0.6205027191281318
1789620498480430600,71.7174306640625,0.3107102092474699,0.03611936112940311,-0.561413766625896
1789620498490401800,71.72740185546876,0.17738719595074653,0.03230126414597034,-0.5684227686051279
1789620498500372700,71.73737280273437,0.064161798787117,-0.01881634415090084,-0.5859052338037639
1789620498510343700,71.74734375,-0.024003975921869276,-0.06653086600601672,-0.6265366655301302
1789620498520314600,71.75731469726563,-0.003856675428152084,-0.13868833972215652,-0.7280795890107751
1789620498530285600,71.76728564453126,0.11334171701967716,-0.2934346647977829,-0.764162490587309
1789620498540255700,71.777255859375,0.23677403542101383,-0.42377310932576656,-0.7284207305986434
1789620498550226700,71.78722680664063,0.333437004840374,-0.5035147545605898,-0.7105547459751367
1789620498560197600,71.79719775390625,0.443546900331974,-0.5379033463746309,-0.6585336129672825
1789620498570168800,71.8071689453125,0.40222821699380873,-0.4919096569627523,-0.545038239755854
1789620498580139500,71.81713940429688,0.25209143154025077,-0.41796646887362,-0.49007363717462865
1789620498590110700,71.82711083984375,0.06213701496124267,-0.3688286362171173,-0.4757710075885057
1789620498600081700,71.83708154296875,-0.06842647049427032,-0.42005613462924957,-0.5386221987010911
1789620498610052600,71.84705249023438,-0.12190788531303405,-0.5083750540733337,-0.6209104231461883
1789620498620023800,71.85702392578125,-0.1825555384993553,-0.5524205320268869,-0.6610504180938005
1789620498629994800,71.86699487304688,-0.22922551973760127,-0.5918389347016811,-0.6700307201460003
1789620498639965700,71.87696557617187,-0.17430384298264978,-0.5968383504241704,-0.6278881532043218
1789620498649936600,71.8869365234375,-0.1613502533853054,-0.615019319280982,-0.5241967099202797
1789620498659907800,71.89690795898437,-0.23301497514843938,-0.6089227559715509,-0.4138516904985532
1789620498669878800,71.90687866210938,-0.34030513704419135,-0.5514426269054412,-0.40556138000451025
1789620498679849700,71.916849609375,-0.4070294797956943,-0.48534079996645446,-0.5112733693307265
1789620498689820700,71.92682055664062,-0.4211901070952415,-0.4223334319114685,-0.6268040112294256
1789620498699791600,71.93679150390625,-0.3959282400667667,-0.42888709133863445,-0.7161369300216436
1789620498709761500,71.94676147460937,-0.4073194026529789,-0.39482933891415595,-0.7485605784382671
1789620498719732700,71.95673266601563,-0.4157201512515545,-0.326698636496067,-0.6998701972883195
1789620498729703700,71.96670361328125,-0.33896541287302967,-0.2983241904050112,-0.6893343363571912
1789620498739675000,71.9766748046875,-0.22555238418281076,-0.2817646852701902,-0.6772659320965408
1789620498749645800,71.98664575195312,-0.14085107071399688,-0.24300386972129343,-0.6810379979811608
1789620498759616500,71.99661645507813,-0.1532066944181919,-0.11262918483614921,-0.6277181303996593
1789620498769587700,72.00658764648438,-0.22503858944177627,-0.0012409399718046187,-0.5487393958287313
1789620498779558700,72.01655859375,-0.2827975354492664,0.004548164823651313,-0.5723374578308313
1789620498789529900,72.02652978515626,-0.3350041080266237,-0.037435119903087614,-0.6798940155778079
1789620498799500800,72.03650073242187,-0.41892742286026474,-0.08898761248588562,-0.7577887908369302
1789620498809471500,72.04647143554688,-0.5331131894886494,-0.16279694506227968,-0.8365358720764517
1789620498819442700,72.05644262695313,-0.6128302848041057,-0.21672902625799179,-0.9022972150146961
1789620498829413600,72.06641357421876,-0.6096721130341292,-0.24912030677497385,-0.932129020307213
1789620498839384800,72.076384765625,-0.5043161340713501,-0.24167349790036677,-0.9067502489008009
1789620498849355800,72.08635571289062,-0.3354401613563299,-0.2109200477182865,-0.776889651017636
1789620498859326700,72.09632666015625,-0.20010639275908468,-0.1813221973121166,-0.539632800515741
1789620498869297400,72.10629736328124,-0.08643383634984493,-0.0970183587282896,-0.3735286306016147
1789620498879268400,72.11626831054687,0.0011135141998529433,0.041023499783873554,-0.2315926507277414
1789620498889238300,72.12623828125,0.06998948202729224,0.05275836124122142,-0.1927648343572393
1789620498899209500,72.13620947265625,0.209926945027709,-0.0379933383077383,-0.23267295677773653
1789620498909180400,72.14618041992188,0.24473113190531728,-0.06609948885142802,-0.29649105669371784
1789620498919151600,72.15615161132813,0.16255086134672164,-0.04322422469854355,-0.3996645770508796
1789620498929122600,72.16612255859376,0.022986323311924933,-0.0477881716132164,-0.5397081307742745
1789620498939093200,72.17609326171875,-0.12930968600213527,-0.05650514655411243,-0.6691185737371445
1789620498949064400,72.186064453125,-0.19330723413825035,-0.04220481852293014,-0.7277993838299065
1789620498959035400,72.19603540039063,-0.266615631455183,-0.007209492987394333,-0.7172809854902327
1789620498969006600,72.20600659179688,-0.346506914293766,0.0362070394128561,-0.6846016818121076
1789620498978977500,72.2159775390625,-0.3955190747439861,0.04633037402033806,-0.714930988297984
1789620498988948200,72.2259482421875,-0.35922260348200796,0.06603343787789344,-0.752109430026263
1789620498998919400,72.23591943359375,-0.18658055623173714,0.03850771757066249,-0.7852509443886577
1789620499008890400,72.24589038085938,0.06627192280888557,-0.031873394122719764,-0.7817598874025047
1789620499018861600,72.25586157226563,0.20513678814172742,-0.05087386266887187,-0.6980098833091557
1789620499028832500,72.26583251953124,0.18501520661115645,0.026796821510791775,-0.6054899319786579
1789620499038803500,72.27580346679687,0.07128010635972022,0.16917349435687065,-0.6504429532311856
1789620499048774400,72.2857744140625,-0.02861000841259956,0.31255086867809295,-0.7573994261931628
1789620499058745300,72.29574536132813,-0.007730301991105079,0.3130284230619669,-0.8108193200830369
1789620499068716500,72.30571655273438,0.012217092016339302,0.27738427822887896,-0.8297707618556917
1789620499078687500,72.3156875,0.0015694412738084791,0.31027123330831524,-0.8089929814387112
1789620499088658700,72.32565869140625,0.038103812944889064,0.3843132055968046,-0.7606091820199042
1789620499098628600,72.33562866210937,0.07857377049922942,0.41780046465694903,-0.6595437398578972
1789620499108599600,72.345599609375,0.10640168862342834,0.3437918101161718,-0.6164348121020943
1789620499118570500,72.35557055664063,0.18567454730272293,0.1589402696341276,-0.6859519273772835
1789620499128541400,72.36554150390624,0.36847558499574656,-0.029463410371541977,-0.8094310805950313
1789620499138512400,72.37551245117187,0.5258978512823581,-0.1332417647540569,-0.9559642155334352
1789620499148483600,72.38548364257812,0.5840624554812908,-0.19198270753622054,-1.0723054796952753
1789620499158454500,72.39545458984375,0.551883356410265,-0.22959376852810381,-1.0839498863901942
1789620499168425500,72.40542553710938,0.41152211503982544,-0.08419277942478656,-1.1293072506599127
1789620499178396400,72.415396484375,0.466348514726758,0.038915129327774044,-1.1358530190415679
1789620499188367400,72.42536743164062,0.478400187048316,0.09641279405057429,-0.9713828070048243
