time,seconds_elapsed,z,y,x
1789620426811413800,0.048413818359375,-0.6257877349853516,-0.26654353737831116,-0.2205086648464203
1789620426821384700,0.058384765625,-0.6259555220603943,-0.10073300451040268,-0.5043065547943115
1789620426831356700,0.068356689453125,-0.4868343770503998,0.11526906490325928,-0.8542302250862122
1789620426841327600,0.07832763671875,-0.29181426763534546,0.12973429262638092,-1.4565999507904053
1789620426851298800,0.088298828125,-0.031573373824357986,0.393198698759079,-1.921810507774353
1789620426861269800,0.098269775390625,0.2808378040790558,0.8408981561660767,-2.2908055782318115
1789620426871240700,0.10824072265625,0.6430037021636963,1.490011215209961,-2.6821134090423584
1789620426881211600,0.118211669921875,1.0996136665344238,2.218545913696289,-3.1114954948425293
1789620426891182600,0.1281826171875,1.5893135070800781,2.784323215484619,-3.5481295585632324
1789620426901153800,0.13815380859375,1.9875179529190063,3.152219772338867,-3.964881658554077
1789620426911125800,0.148125732421875,2.295079231262207,3.6915130615234375,-4.263818740844727
1789620426921096700,0.1580966796875,2.5022053718566895,4.226016998291016,-4.427883625030518
1789620426931067600,0.168067626953125,2.624915838241577,4.3829240798950195,-4.405190467834473
1789620426941038600,0.17803857421875,2.6852385997772217,4.183667182922363,-4.192451477050781
1789620426951009800,0.188009765625,2.7786338329315186,3.6215882301330566,-3.8190743923187256
1789620426960980700,0.197980712890625,2.763873815536499,2.9584734439849854,-3.3514585494995117
1789620426970951700,0.20795166015625,2.5743868350982666,2.493027687072754,-2.7180380821228027
1789620426980922600,0.217922607421875,1.8649022579193115,2.5335030555725098,-1.4766134023666382
1789620426990894800,0.227894775390625,0.47988057136535645,2.2249057292938232,0.06758517026901245
1789620427000865800,0.23786572265625,-0.8182958960533142,0.12395017594099045,0.9279702305793762
1789620427010836500,0.24783642578125,-1.3088605403900146,-2.4512269496917725,1.300765872001648
1789620427020807700,0.2578076171875,-1.3712557554244995,-4.2753424644470215,1.6666256189346313
1789620427030778600,0.267778564453125,-1.5351994037628174,-5.734334468841553,2.017418384552002
1789620427040749800,0.277749755859375,-1.8642686605453491,-7.054290771484375,2.2787036895751953
1789620427050720800,0.287720703125,-2.2756736278533936,-8.313170433044434,2.3903682231903076
1789620427060691700,0.297691650390625,-2.510061264038086,-9.68459415435791,2.252420663833618
1789620427070663700,0.30766357421875,-2.400113105773926,-10.96096420288086,1.9604519605636597
1789620427080634600,0.317634521484375,-2.390974760055542,-4.798583984375,0.07274904102087021
1789620427090605800,0.327605712890625,-2.090562105178833,-3.043992757797241,-0.24491281807422638
1789620427100576500,0.337576416015625,-1.2377121448516846,-1.2440632581710815,-0.8612521886825562
1789620427110547700,0.347547607421875,-0.41605180501937866,-0.039869651198387146,-1.3566701412200928
1789620427120518700,0.3575185546875,0.5586712956428528,0.30213695764541626,-1.8741008043289185
1789620427130489600,0.367489501953125,1.4204456806182861,-0.4486062824726105,-2.0799708366394043
1789620427140461600,0.377461669921875,1.7386486530303955,-0.8121964931488037,-1.8101484775543213
1789620427150432500,0.3874326171875,1.6938772201538086,-1.0653812885284424,-1.334380865097046
1789620427160403700,0.39740380859375,1.5158755779266357,-1.5126765966415405,-0.7759631276130676
1789620427170374700,0.407374755859375,1.2955594062805176,-2.0135278701782227,-0.2197169065475464
1789620427180345900,0.417345947265625,1.142730712890625,-2.649660348892212,0.22922439873218536
1789620427190316800,0.42731689453125,1.0276027917861938,-3.366682291030884,0.4804936349391937
1789620427200287700,0.437287841796875,0.8390001058578491,-3.8343944549560547,0.4802531599998474
1789620427210258700,0.4472587890625,0.6569677591323853,-3.8004977703094482,0.2188923954963684
1789620427220231000,0.45723095703125,0.5984610319137573,-3.2460296154022217,-0.2755306363105774
1789620427230201600,0.46720166015625,0.6371343731880188,-2.224513292312622,-0.9504259824752808
1789620427240172500,0.477172607421875,0.6765446662902832,-1.2029229402542114,-1.7236438989639282
1789620427250143700,0.487143798828125,0.6358035802841187,-0.4697275459766388,-2.3515994548797607
1789620427260114700,0.49711474609375,0.48259007930755615,0.03370816260576248,-2.6038200855255127
1789620427270709800,0.507709716796875,0.20360398292541504,0.45471370220184326,-2.4372355937957764
1789620427280680700,0.5176806640625,-0.12326174974441528,0.6055026650428772,-2.058257579803467
1789620427290652000,0.52765185546875,-0.38505634665489197,0.5273732542991638,-1.6714462041854858
1789620427300622600,0.53762255859375,-0.5417564511299133,0.4245978891849518,-1.3494583368301392
1789620427310593500,0.547593505859375,-0.6225618124008179,0.3794187009334564,-1.120376706123352
1789620427320564700,0.557564697265625,-0.6691256165504456,0.42170196771621704,-0.9843189716339111
1789620427330535700,0.56753564453125,-0.6985061168670654,0.609025776386261,-0.8716380000114441
1789620427340507600,0.577507568359375,-0.7190987467765808,0.9132874011993408,-0.7333192229270935
1789620427350478600,0.587478515625,-0.7574424147605896,1.1719107627868652,-0.5371015071868896
1789620427360449800,0.59744970703125,-0.8102166652679443,1.3405308723449707,-0.2724325954914093
1789620427370420700,0.607420654296875,-0.8617022633552551,1.3827531337738037,0.02172420360147953
1789620427380391700,0.6173916015625,-0.9027879238128662,1.3084120750427246,0.31705570220947266
1789620427390362600,0.627362548828125,-0.9174965620040894,1.2203072309494019,0.6203130483627319
1789620427400333600,0.63733349609375,-0.921644389629364,1.0831811428070068,0.933295726776123
1789620427410305800,0.647305908203125,-0.9173436760902405,0.885328471660614,1.2213413715362549
1789620427420276700,0.65727685546875,-0.8946029543876648,0.7252005934715271,1.4381365776062012
1789620427430247700,0.66724755859375,-0.813372790813446,0.712653398513794,1.553390383720398
1789620427440218600,0.677218505859375,-0.6745619177818298,0.7814505696296692,1.576903223991394
1789620427450189600,0.687189453125,-0.5514469146728516,0.7736696004867554,1.5616278648376465
1789620427460160800,0.697160888671875,-0.521307110786438,0.6670805811882019,1.56623375415802
1789620427470131700,0.707131591796875,-0.5733327865600586,0.5706174373626709,1.557277798652649
1789620427480103700,0.717103759765625,-0.671851634979248,0.5003001093864441,1.5124765634536743
1789620427490074600,0.72707470703125,-0.6943329572677612,0.40450140833854675,1.4145965576171875
1789620427500045800,0.7370458984375,-0.6885563135147095,0.3073892295360565,1.2608613967895508
1789620427510016800,0.747016845703125,-0.6898026466369629,0.27631041407585144,1.1143419742584229
1789620427519987500,0.756987548828125,-0.6871991753578186,0.33201974630355835,1.0209825038909912
1789620427529958700,0.766958740234375,-0.6800448298454285,0.39804431796073914,0.9336597919464111
1789620427539929600,0.7769296875,-0.6341024041175842,0.4779122471809387,0.8339475989341736
1789620427549901800,0.78690185546875,-0.5448840856552124,0.5679001808166504,0.730588972568512
1789620427559872500,0.79687255859375,-0.4511573314666748,0.6036438345909119,0.6414687037467957
1789620427569843700,0.80684375,-0.37857767939567566,0.5815390348434448,0.6094611883163452
1789620427579814700,0.816814697265625,-0.31968772411346436,0.5451266765594482,0.6308421492576599
1789620427589785900,0.826785888671875,-0.2650255262851715,0.5111487507820129,0.6665761470794678
1789620427599756800,0.8367568359375,-0.21016602218151093,0.507485568523407,0.68104088306427
1789620427609727700,0.846727783203125,-0.16623850166797638,0.49669790267944336,0.6756035089492798
1789620427619699700,0.85669970703125,-0.1449233591556549,0.4281228482723236,0.6682800650596619
1789620427629670700,0.866670654296875,-0.13200490176677704,0.3209436535835266,0.6574947834014893
1789620427639641900,0.876641845703125,-0.13045281171798706,0.2053171992301941,0.6420833468437195
1789620427649612500,0.886612548828125,-0.134322389960289,0.1171596422791481,0.6452692747116089
1789620427659583700,0.896583740234375,-0.15626737475395203,0.09203698486089706,0.6562718749046326
1789620427669554700,0.9065546875,-0.15194213390350342,0.10141343623399734,0.6663979887962341
1789620427679525600,0.916525634765625,-0.13331039249897003,0.0984373539686203,0.635689914226532
1789620427689497600,0.92649755859375,-0.11426718533039093,0.07877230644226074,0.5784833431243896
1789620427699468500,0.936468505859375,-0.09727861732244492,0.09006224572658539,0.5268518328666687
1789620427709439700,0.946439697265625,-0.06762617826461792,0.13320545852184296,0.4965154826641083
1789620427719410700,0.95641064453125,-0.04773236811161041,0.14271427690982819,0.48877421021461487
1789620427729382000,0.9663818359375,-0.05449333414435387,0.09542559087276459,0.49376577138900757
1789620427739352600,0.9763525390625,-0.06907068192958832,0.0021851237397640944,0.49737781286239624
1789620427749323500,0.986323486328125,-0.08445017039775848,-0.14860332012176514,0.48615631461143494
1789620427759295700,0.996295654296875,-0.11415107548236847,-0.2969704270362854,0.4553701877593994
1789620427769266700,1.0062666015625,-0.14698119461536407,-0.39232543110847473,0.41045358777046204
1789620427779237600,1.016237548828125,-0.15720932185649872,-0.44242429733276367,0.35259905457496643
1789620427789208600,1.02620849609375,-0.1315082311630249,-0.42139410972595215,0.3096372187137604
1789620427799179800,1.0361796875,-0.0752023458480835,-0.38060352206230164,0.2833004295825958
1789620427809150000,1.04614990234375,-0.021736454218626022,-0.44143146276474,0.25343865156173706
1789620427819121000,1.056120849609375,0.01420290395617485,-0.6034352779388428,0.22468237578868866
1789620427829092900,1.0660927734375,0.04524577409029007,-0.7800673246383667,0.22460967302322388
1789620427839063800,1.076063720703125,0.061766695231199265,-0.900941789150238,0.24469870328903198
1789620427849035000,1.086034912109375,0.08405495434999466,-0.9497314691543579,0.2290680706501007
1789620427859006000,1.096005859375,0.13849583268165588,-1.0253186225891113,0.12790736556053162
1789620427868977200,1.10597705078125,0.2669736444950104,-1.2399808168411255,-0.0610247366130352
1789620427878948000,1.115947998046875,0.4859294295310974,-1.6113495826721191,-0.26866447925567627
1789620427888918800,1.125918701171875,0.7446190118789673,-2.17096209526062,-0.4373491108417511
1789620427898891000,1.13589111328125,0.9354773759841919,-2.943047046661377,-0.5200626254081726
1789620427908862000,1.145862060546875,1.2754285335540771,-3.7127485275268555,-0.46398070454597473
1789620427918833000,1.1558330078125,1.6606582403182983,-4.489268779754639,-0.3069636821746826
1789620427928803800,1.165803955078125,2.0750207901000977,-5.235048770904541,-0.05993204191327095
1789620427938775000,1.175775146484375,2.504984140396118,-5.811660289764404,0.2286939024925232
1789620427948746000,1.18574609375,2.9214508533477783,-6.133849143981934,0.5355936288833618
1789620427958718000,1.195718017578125,3.261969566345215,-6.195462703704834,0.782213032245636
1789620427968689000,1.20568896484375,3.563189744949341,-6.093829154968262,0.9302759766578674
1789620427978659800,1.215659912109375,3.8231024742126465,-6.0176615715026855,0.9896625876426697
1789620427988631000,1.225631103515625,4.075619220733643,-6.006253719329834,1.034848690032959
1789620427998602000,1.23560205078125,4.38777494430542,-5.922839641571045,1.0801669359207153
1789620428008573000,1.245572998046875,4.743340015411377,-5.777519702911377,1.1613502502441406
1789620428018543900,1.2555439453125,5.036919593811035,-5.587387561798096,1.2915034294128418
1789620428028516000,1.26551611328125,5.354264259338379,-5.2963104248046875,1.47373366355896
1789620428038487000,1.275487060546875,5.3850202560424805,-4.850488185882568,1.5457521677017212
1789620428048458000,1.2854580078125,5.253640651702881,-4.51816463470459,1.2675589323043823
1789620428058429000,1.295428955078125,5.248671054840088,-3.883557081222534,0.9339133501052856
1789620428068399900,1.30539990234375,5.183856964111328,-3.0615200996398926,0.5990431904792786
1789620428078371000,1.31537109375,4.935413360595703,-2.1407599449157715,0.2160678505897522
1789620428088342000,1.325342041015625,4.736918926239014,-1.8518998622894287,-0.31707996129989624
1789620428098314000,1.33531396484375,4.653615951538086,-2.674663543701172,-0.5747551918029785
1789620428108285000,1.345284912109375,4.606914043426514,-2.991718292236328,-0.33163997530937195
1789620428118255900,1.355255859375,4.645167350769043,-2.686772346496582,0.1433558315038681
1789620428128227000,1.36522705078125,4.689418792724609,-2.133697986602783,0.673948347568512
1789620428138198000,1.375197998046875,4.605615139007568,-1.5081143379211426,1.2039477825164795
1789620428148169000,1.3851689453125,4.460073947906494,-0.9616280198097229,1.5775865316390991
1789620428158141000,1.395140869140625,4.238751411437988,-0.7209835052490234,1.740176796913147
1789620428168112000,1.405112060546875,3.893143653869629,-0.8634905815124512,1.8106821775436401
1789620428178082800,1.415082763671875,3.537137508392334,-1.2325559854507446,1.9480767250061035
1789620428188053800,1.4250537109375,3.1446642875671387,-1.6418055295944214,2.2310361862182617
1789620428198025000,1.43502490234375,2.6332755088806152,-1.7701109647750854,2.7577807903289795
1789620428207996000,1.444995849609375,2.0386264324188232,-1.579218864440918,3.284259557723999
1789620428217967000,1.454967041015625,1.257056474685669,-1.5048388242721558,3.5825681686401367
1789620428227938800,1.464938720703125,0.46910223364830017,-1.5355064868927002,3.5855836868286133
1789620428237910000,1.474909912109375,-0.09256535023450851,-1.066230058670044,3.091867208480835
1789620428247881000,1.484880859375,-0.25046682357788086,0.327222615480423,1.5844671726226807
1789620428257852000,1.494851806640625,-0.27369651198387146,2.296978712081909,-1.1527431011199951
1789620428267823000,1.504822998046875,-0.5314308404922485,2.1535403728485107,-2.8211629390716553
1789620428277793800,1.514793701171875,-1.111580491065979,0.8359630703926086,-1.8673174381256104
1789620428287766000,1.52476611328125,-1.4523175954818726,-0.14070971310138702,-0.2366495579481125
1789620428297737000,1.534737060546875,-2.05203914642334,-1.374349594116211,1.2083563804626465
1789620428307708000,1.5447080078125,-2.475764274597168,-1.6767600774765015,1.3729099035263062
1789620428317678800,1.554678955078125,-2.432459592819214,-1.2819913625717163,0.8156055808067322
1789620428327650000,1.564650146484375,-1.9432353973388672,-0.6241222023963928,0.018627479672431946
1789620428337621000,1.57462109375,-1.514527440071106,-0.3620000183582306,-0.14557184278964996
1789620428347592000,1.584592041015625,-1.4059154987335205,-0.5639286041259766,-0.14584694802761078
1789620428357564000,1.59456396484375,-1.4493769407272339,-1.0072085857391357,-0.25216272473335266
1789620428367534800,1.604534912109375,-1.498083472251892,-1.2667498588562012,-0.21221239864826202
1789620428377506000,1.614506103515625,-1.316284418106079,-1.2873635292053223,0.04528998211026192
1789620428387477000,1.62447705078125,-0.8617871999740601,-1.17648446559906,0.35534051060676575
1789620428397448000,1.634447998046875,-0.5845324397087097,-1.1582993268966675,0.6613049507141113
1789620428407419000,1.6444189453125,-0.7248695492744446,-1.2242945432662964,0.9368393421173096
1789620428417391000,1.65439111328125,-1.038791537284851,-1.2611228227615356,1.2023050785064697
1789620428427362000,1.664362060546875,-1.4274945259094238,-1.2870466709136963,1.339670181274414
1789620428437333000,1.6743330078125,-2.3562023639678955,-0.9834854006767273,1.2845704555511475
1789620428447304000,1.684303955078125,-3.0813839435577393,-0.8318106532096863,0.5666285157203674
1789620428457275000,1.69427490234375,-3.1067638397216797,-0.8004061579704285,0.7578171491622925
1789620428467246000,1.70424609375,-2.5438828468322754,-1.0404671430587769,1.147878646850586
1789620428477217800,1.7142177734375,-1.5713145732879639,-1.3102611303329468,1.447793960571289
1789620428487189000,1.72418896484375,-0.6549162864685059,-1.31846022605896,1.5915266275405884
1789620428497160000,1.734159912109375,-0.04290245845913887,-1.0649291276931763,1.6851963996887207
1789620428507131000,1.744130859375,0.2712746560573578,-0.7060447335243225,1.5520998239517212
1789620428517102000,1.75410205078125,0.5773586630821228,-0.41333991289138794,1.4907073974609375
1789620428527073000,1.764072998046875,0.7902933359146118,-0.11963053047657013,1.3199108839035034
1789620428537045000,1.774044921875,0.6930661201477051,0.5036575794219971,0.7481583952903748
1789620428547016000,1.784015869140625,0.5588095188140869,1.151784896850586,0.20919449627399445
1789620428556987100,1.793987060546875,0.5740907192230225,1.5435961484909058,-0.2142430543899536
1789620428566957800,1.803957763671875,0.7048109173774719,1.9348008632659912,-0.6368864178657532
1789620428576928800,1.8139287109375,0.8535388708114624,2.3502275943756104,-1.0041403770446777
1789620428586900000,1.82389990234375,0.9750072360038757,2.5826406478881836,-1.2474457025527954
1789620428596871000,1.833870849609375,1.0995409488677979,2.5486841201782227,-1.2981407642364502
1789620428606843000,1.8438427734375,1.3179233074188232,2.4000425338745117,-1.3288733959197998
1789620428616813800,1.853813720703125,1.3924449682235718,2.098135232925415,-1.3558040857315063
1789620428626785000,1.863784912109375,1.11380136013031,1.6370259523391724,-1.2463269233703613
1789620428636756000,1.873755859375,0.8248401284217834,1.4460008144378662,-1.1249333620071411
1789620428646727000,1.883726806640625,0.6336312890052795,1.262277603149414,-0.9849080443382263
1789620428656698000,1.893697998046875,0.6630061864852905,0.9558601975440979,-0.8978325724601746
1789620428666669800,1.903669921875,0.8360261917114258,0.7350846529006958,-0.906406581401825
1789620428676641000,1.91364111328125,0.8042863607406616,0.54378342628479,-0.9763060808181763
1789620428686612000,1.923612060546875,0.4202481508255005,0.5086392760276794,-0.9303249716758728
1789620428696583000,1.9335830078125,0.12490971386432648,0.606257975101471,-0.8714401125907898
1789620428706553900,1.943553955078125,-0.1411062628030777,0.679859459400177,-0.9105760455131531
1789620428716524800,1.95352490234375,-0.23684902489185333,0.9612064957618713,-1.0876197814941406
1789620428726497000,1.9634970703125,-0.16090525686740875,1.3609298467636108,-1.2256215810775757
1789620428736467700,1.9734677734375,-0.02142166905105114,1.53199303150177,-1.302912712097168
1789620428746439000,1.98343896484375,0.07241135090589523,1.5712021589279175,-1.4243371486663818
1789620428756409900,1.993409912109375,0.12227051705121994,1.6371815204620361,-1.534613013267517
1789620428766381000,2.003381103515625,-0.018386464565992355,1.6127357482910156,-1.5236135721206665
1789620428776352000,2.01335205078125,-0.0990152657032013,1.1210137605667114,-1.2823842763900757
1789620428786324000,2.023323974609375,-0.07354532182216644,0.2799650728702545,-1.0206692218780518
1789620428796295000,2.033294921875,-0.002175003755837679,-0.21820370852947235,-0.5607032775878906
1789620428806266000,2.04326611328125,-0.3036467134952545,-0.4936840236186981,-0.16560840606689453
1789620428816237000,2.053237060546875,-0.7292776107788086,-0.18492697179317474,0.4817788898944855
1789620428826208000,2.0632080078125,-1.022580862045288,0.242384672164917,0.9802142381668091
1789620428836179000,2.073178955078125,-1.3251279592514038,0.8773203492164612,1.1385455131530762
1789620428846151000,2.08315087890625,-1.3431085348129272,0.38747501373291016,0.3177182972431183
1789620428856122000,2.0931220703125,-0.710414469242096,-0.10904020071029663,0.1449420154094696
1789620428866092800,2.1030927734375,0.24206669628620148,-0.681951105594635,-0.14804832637310028
1789620428876064000,2.11306396484375,0.5586515665054321,-0.47130468487739563,-0.43049120903015137
1789620428886035000,2.123034912109375,0.44531115889549255,-0.18539755046367645,-0.5533870458602905
1789620428896006100,2.133006103515625,0.21378259360790253,-0.0781368762254715,-0.6352952122688293
1789620428905977900,2.142977783203125,0.021501563489437103,-0.00794500857591629,-0.7299996018409729
1789620428915949000,2.152948974609375,-0.08614101260900497,0.08875676989555359,-0.8457840085029602
1789620428925920000,2.162919921875,-0.2643975615501404,0.06214433163404465,-0.7876863479614258
1789620428935891000,2.172890869140625,-0.5021342039108276,-0.05896424874663353,-0.606705367565155
1789620428945862100,2.182862060546875,-0.7487599849700928,-0.2509523332118988,-0.4427467882633209
1789620428955832800,2.192832763671875,-0.9785846471786499,-0.45312967896461487,-0.3413360118865967
1789620428965805000,2.20280517578125,-1.0827089548110962,-0.53638756275177,-0.2891244888305664
1789620428975776000,2.21277587890625,-0.8572009801864624,-0.5052077770233154,-0.35595226287841797
1789620428985747200,2.222747314453125,-0.2987843155860901,-0.5067734718322754,-0.6333569884300232
1789620428995718000,2.2327177734375,0.4186105728149414,-0.6241674423217773,-1.1049524545669556
1789620429005688800,2.242688720703125,1.1314504146575928,-0.3907352685928345,-1.6911258697509766
1789620429015660000,2.252659912109375,1.6932716369628906,0.29511287808418274,-2.4426615238189697
1789620429025632000,2.262632080078125,2.1112446784973145,0.9247502088546753,-3.038780450820923
1789620429035603000,2.27260302734375,2.5823895931243896,1.0127726793289185,-3.20847749710083
1789620429045574000,2.282573974609375,3.106523036956787,0.5221470594406128,-2.6554665565490723
1789620429055545000,2.292545166015625,3.2584993839263916,-0.020067717880010605,-2.299806594848633
1789620429065516000,2.30251611328125,3.285613775253296,-0.24156895279884338,-2.1518399715423584
1789620429075488000,2.312488037109375,3.8501343727111816,-0.17635612189769745,-2.0123939514160156
1789620429085459000,2.322458984375,3.710883855819702,0.1752336025238037,-2.165207624435425
1789620429095430000,2.332429931640625,3.1712629795074463,0.9110159873962402,-2.085498571395874
1789620429105401000,2.342401123046875,2.9632928371429443,1.9594292640686035,-1.548155665397644
1789620429115372000,2.3523720703125,3.0734496116638184,2.4719653129577637,-1.033266544342041
1789620429125343000,2.362343017578125,3.3128244876861572,3.132190704345703,-0.6512621641159058
1789620429135315000,2.37231494140625,4.0131425857543945,4.221755504608154,-0.8400083780288696
1789620429145286100,2.3822861328125,4.393564701080322,4.532238483428955,-1.2768832445144653
1789620429155257000,2.392257080078125,3.833078622817993,4.4270782470703125,-1.3450851440429688
1789620429165227800,2.402227783203125,3.3985788822174072,3.3598837852478027,-1.4148906469345093
1789620429175199000,2.412198974609375,3.0470826625823975,1.7036691904067993,-1.3719642162322998
1789620429185170000,2.422169921875,2.616928815841675,0.6258133053779602,-1.1518683433532715
1789620429195142100,2.43214208984375,2.1898417472839355,0.09029047936201096,-1.0470411777496338
1789620429205112800,2.44211279296875,1.626387357711792,-0.4911588132381439,-0.8070877194404602
1789620429215084000,2.452083984375,1.1197010278701782,-0.5606105923652649,-0.587722897529602
1789620429225055000,2.462054931640625,0.6346869468688965,0.09466925263404846,-0.5112499594688416
1789620429235026000,2.47202587890625,-0.19419583678245544,0.16169461607933044,-0.34600239992141724
1789620429244997000,2.4819970703125,-1.5013536214828491,0.11407064646482468,-0.29912999272346497
1789620429254968800,2.49196875,-2.645401954650879,-0.4525701403617859,-0.6651961207389832
1789620429264940000,2.50193994140625,-2.8367714881896973,0.5773858428001404,-0.9751062989234924
1789620429274911000,2.511910888671875,-2.297152042388916,0.06184472516179085,-1.0677741765975952
1789620429284882200,2.521882080078125,-0.44046953320503235,-2.0001604557037354,-1.568020224571228
1789620429294852900,2.531852783203125,0.9647801518440247,-1.724779725074768,-1.5951999425888062
1789620429304823800,2.54182373046875,1.2216633558273315,-0.9557336568832397,-1.2897846698760986
1789620429314796000,2.551796142578125,0.9011995792388916,-0.35218867659568787,-0.832127571105957
1789620429324767200,2.561767333984375,0.5277080535888672,-0.006327138282358646,-0.32847508788108826
1789620429334738000,2.571738037109375,0.23001322150230408,0.012328837998211384,0.10801887512207031
1789620429344708900,2.581708984375,-0.014370417222380638,-0.2248794585466385,0.38674744963645935
1789620429354680000,2.59168017578125,-0.15551821887493134,-0.4970848858356476,0.4859328866004944
1789620429364652000,2.601652099609375,-0.13441666960716248,-0.6038363575935364,0.4964635670185089
1789620429374623000,2.611623046875,-0.09663493186235428,-0.7410011291503906,0.476398766040802
1789620429384594000,2.621593994140625,-0.1531730443239212,-0.9986150860786438,0.3836089074611664
1789620429394565000,2.631565185546875,-0.298232764005661,-1.3913018703460693,0.16585314273834229
1789620429404536000,2.6415361328125,-0.25620168447494507,-1.3155664205551147,-0.009045959450304508
1789620429414507000,2.651507080078125,-0.04050588235259056,-0.4980768859386444,-0.373251348733902
1789620429424479000,2.66147900390625,0.1143534705042839,0.320799857378006,-1.310016393661499
1789620429434450000,2.671449951171875,0.39126497507095337,-0.2864418923854828,-1.3247865438461304
1789620429444421000,2.681421142578125,0.15861494839191437,-0.7777900099754333,-1.212650179862976
1789620429454392000,2.69139208984375,-0.5358772873878479,-0.8054134249687195,-1.1134955883026123
1789620429464363000,2.701363037109375,-0.815770149230957,-0.628674328327179,-0.6629044413566589
1789620429474334000,2.711333984375,-0.6979529857635498,-0.2824287712574005,0.19975998997688293
1789620429484306200,2.72130615234375,-0.5932015776634216,-0.19794104993343353,1.299339771270752
1789620429494277000,2.731277099609375,-0.45278292894363403,-0.6409448385238647,2.199974298477173
1789620429504247800,2.741247802734375,-0.014712899923324585,-1.2729103565216064,2.61786150932312
1789620429514219000,2.751218994140625,0.7547544836997986,-1.5642411708831787,2.6347033977508545
1789620429524190000,2.76118994140625,1.7239149808883667,-1.388562560081482,2.1887428760528564
1789620429534161200,2.7711611328125,2.432451009750366,-0.9317756295204163,1.4733000993728638
1789620429544132900,2.7811328125,2.1831095218658447,0.3838009238243103,0.7879766225814819
1789620429554104000,2.79110400390625,1.32744300365448,0.7455596923828125,0.6607427597045898
1789620429564075000,2.801074951171875,0.7881265878677368,0.7178497314453125,0.10584067553281784
1789620429574046000,2.8110458984375,-0.8004564642906189,-0.9405720233917236,0.058392468839883804
1789620429584017200,2.82101708984375,-2.0833740234375,-1.6112571954727173,0.10801728069782257
1789620429593988900,2.83098876953125,-1.5261197090148926,-0.7286185026168823,0.23998649418354034
1789620429603960000,2.8409599609375,-0.8711471557617188,-0.029695844277739525,0.35246244072914124
1789620429613931000,2.850930908203125,-0.5995297431945801,-0.1539304405450821,0.35125255584716797
1789620429623902200,2.860902099609375,-0.5366021990776062,-0.277948260307312,0.3078153431415558
1789620429633873000,2.870872802734375,-0.45401808619499207,-0.2167874425649643,0.22445228695869446
1789620429643843800,2.88084375,-0.4530694782733917,-0.44296544790267944,0.09733720868825912
1789620429653816000,2.890816162109375,-0.39078614115715027,-0.631061851978302,0.02557460218667984
1789620429663787000,2.900787109375,-0.39016321301460266,-0.7118102312088013,-0.030523819848895073
1789620429673758000,2.910758056640625,-0.6802054047584534,-0.489361971616745,-0.15222787857055664
1789620429683729000,2.92072900390625,-0.9276890158653259,-0.13899996876716614,-0.16924814879894257
1789620429693700000,2.9307001953125,-1.016507863998413,0.16333407163619995,-0.21037320792675018
1789620429703671800,2.940671875,-0.9873733520507812,0.25697240233421326,-0.2439173310995102
1789620429713643000,2.95064306640625,-0.9675602316856384,0.18425852060317993,-0.21618875861167908
1789620429723614000,2.960614013671875,-0.8372541666030884,0.0017872473690658808,-0.23825784027576447
1789620429733585000,2.9705849609375,-0.7606954574584961,-0.33602115511894226,-0.2965070307254791
1789620429743556000,2.98055615234375,-0.797836422920227,-0.6281648874282837,-0.36272600293159485
1789620429753527000,2.990527099609375,-0.7926899194717407,-0.5823537111282349,-0.3642812967300415
1789620429763499000,3.0004990234375,-0.8959805965423584,-0.41948968172073364,-0.33138060569763184
1789620429773470000,3.010469970703125,-0.9751342535018921,-0.19332684576511383,-0.30882734060287476
1789620429783441200,3.020441162109375,-0.9368691444396973,0.022526614367961884,-0.30201098322868347
1789620429793412000,3.030412109375,-0.9545618891716003,0.07661088556051254,-0.345757395029068
1789620429803383000,3.040383056640625,-0.9236809611320496,-0.024764735251665115,-0.34431716799736023
1789620429813354200,3.050354248046875,-0.8030434846878052,-0.07571180164813995,-0.30044451355934143
1789620429823326200,3.060326171875,-0.6930139064788818,-0.18281269073486328,-0.2420661598443985
1789620429833297200,3.070297119140625,-0.687996506690979,-0.24002671241760254,-0.17575505375862122
1789620429843268000,3.08026806640625,-0.7737284302711487,-0.2871233820915222,-0.10939067602157593
1789620429853239300,3.0902392578125,-0.7712282538414001,-0.45617154240608215,-0.09524529427289963
1789620429863210200,3.100210205078125,-0.6251871585845947,-0.5724731087684631,-0.13256895542144775
1789620429873182200,3.11018212890625,-0.5215811729431152,-0.45388707518577576,-0.13382384181022644
1789620429883153200,3.120153076171875,-0.4516385495662689,-0.41727498173713684,-0.09196960180997849
1789620429893124000,3.1301240234375,-0.43965911865234375,-0.46312931180000305,-0.03255900740623474
1789620429903095300,3.14009521484375,-0.4421830177307129,-0.4699499309062958,0.027405790984630585
1789620429913066200,3.150066162109375,-0.4526287317276001,-0.3385159969329834,0.07395385205745697
1789620429923038200,3.1600380859375,-0.46597808599472046,-0.21401402354240417,0.08698177337646484
1789620429933009200,3.170009033203125,-0.44119229912757874,-0.21101556718349457,0.11313827335834503
1789620429942980400,3.17998046875,-0.44084715843200684,-0.30950990319252014,0.14784511923789978
1789620429952951300,3.189951416015625,-0.5009765625,-0.23162338137626648,0.16154175996780396
1789620429962922000,3.199921875,-0.6389365196228027,-0.025000691413879395,0.17551669478416443
1789620429972893200,3.20989306640625,-0.767047643661499,0.09520694613456726,0.2220732718706131
1789620429982865200,3.219865234375,-0.8314276933670044,-0.005016063805669546,0.28343650698661804
1789620429992836400,3.22983642578125,-0.8328878879547119,-0.3630000352859497,0.3230710029602051
1789620430002807000,3.23980712890625,-0.7519515156745911,-0.6659857630729675,0.3158538341522217
1789620430012778200,3.2497783203125,-0.7420746684074402,-0.5901889801025391,0.2574347257614136
1789620430022749200,3.259749267578125,-0.7856506109237671,-0.3132686913013458,0.217070534825325
1789620430032721400,3.269721435546875,-0.7997283339500427,-0.08006420731544495,0.23230940103530884
1789620430042692000,3.279692138671875,-0.8275195360183716,-0.0477299727499485,0.28106895089149475
1789620430052663000,3.2896630859375,-0.8676075339317322,-0.17769755423069,0.290237694978714
1789620430062634200,3.29963427734375,-0.8884172439575195,-0.09116026759147644,0.2600361108779907
1789620430072605200,3.309605224609375,-0.8479310274124146,0.0640341117978096,0.19975173473358154
1789620430082576400,3.319576416015625,-0.815100908279419,0.16749311983585358,0.2001940757036209
1789620430092548000,3.329548095703125,-0.7757021188735962,0.22154970467090607,0.21282517910003662
1789620430102519300,3.339519287109375,-0.7317695617675781,0.3533679246902466,0.16449306905269623
1789620430112490200,3.349490234375,-0.6800373792648315,0.30958953499794006,0.06791673600673676
1789620430122461400,3.35946142578125,-0.6689599752426147,0.12632118165493011,0.05844413489103317
1789620430132432100,3.36943212890625,-0.7101137638092041,-0.20362423360347748,0.07773686945438385
1789620430142404400,3.379404296875,-0.6605366468429565,-0.16974109411239624,0.009801764041185379
1789620430152375300,3.389375244140625,-0.5337185263633728,-0.04435654729604721,-0.14262905716896057
1789620430162346200,3.39934619140625,-0.46845802664756775,-0.07243931293487549,-0.2520551383495331
1789620430172317200,3.409317138671875,-0.4380287528038025,-0.01529000699520111,-0.29710277915000916
1789620430182288100,3.4192880859375,-0.38986122608184814,0.19056834280490875,-0.3367404639720917
1789620430192259300,3.42925927734375,-0.42176589369773865,0.7304307818412781,-0.3777025640010834
1789620430202231300,3.439231201171875,-0.388604998588562,0.8723464012145996,-0.4396263659000397
1789620430212202200,3.4492021484375,-0.3163582384586334,0.6778368353843689,-0.4073251485824585
1789620430222173200,3.459173095703125,-0.28685253858566284,0.391927033662796,-0.3698667287826538
1789620430232144100,3.46914404296875,-0.30321553349494934,0.2636878192424774,-0.370897114276886
1789620430242115300,3.479115234375,-0.36008015275001526,0.12764663994312286,-0.35293248295783997
1789620430252087000,3.489087158203125,-0.37596938014030457,-0.02785453386604786,-0.32035642862319946
1789620430262058200,3.499058349609375,-0.4173665940761566,-0.22251136600971222,-0.2859116494655609
1789620430272029200,3.509029296875,-0.4541773498058319,-0.26804742217063904,-0.2559761106967926
1789620430282000400,3.51900048828125,-0.39664214849472046,-0.09533104300498962,-0.24956855177879333
1789620430291971300,3.528971435546875,-0.30636632442474365,0.14110492169857025,-0.23958009481430054
1789620430301943300,3.538943359375,-0.24463877081871033,0.3836773633956909,-0.23048700392246246
1789620430311914200,3.548914306640625,-0.20564796030521393,0.6119416952133179,-0.23550759255886078
1789620430321885200,3.55888525390625,-0.23125159740447998,0.767267644405365,-0.2215057611465454
1789620430331856100,3.568856201171875,-0.3559056520462036,1.2551771402359009,-0.04572727531194687
1789620430341827000,3.5788271484375,-0.38489094376564026,0.9647828340530396,-0.03973116725683212
1789620430351799300,3.58879931640625,-0.16968943178653717,0.42831647396087646,-0.17427699267864227
1789620430361770200,3.598770263671875,-0.020290357992053032,0.31514355540275574,-0.16782601177692413
1789620430371741200,3.6087412109375,0.06858838349580765,0.20559976994991302,-0.06917241215705872
1789620430381712100,3.618712158203125,0.12191631644964218,0.21957816183567047,-0.00028628981090150774
1789620430391683000,3.62868310546875,0.19733943045139313,0.2515571415424347,0.059548016637563705
1789620430401654300,3.638654296875,0.2308313548564911,0.2174534946680069,0.10010156780481339
1789620430411626000,3.6486259765625,0.27128690481185913,0.33560118079185486,0.08749949187040329
1789620430421597200,3.65859716796875,0.36103275418281555,0.5536029934883118,0.15737098455429077
1789620430431568100,3.668568115234375,0.4298270046710968,0.5610353350639343,0.22398702800273895
1789620430441539300,3.678539306640625,0.5390549302101135,0.6519482135772705,0.1886223703622818
1789620430451510300,3.68851025390625,0.5160753130912781,0.5634327530860901,0.10963168740272522
1789620430461482200,3.698482177734375,0.47259417176246643,0.4184989929199219,0.10453226417303085
1789620430471453200,3.708453125,0.485213041305542,0.17162342369556427,0.11724299937486649
1789620430481424100,3.718424072265625,0.5377447009086609,-0.148671492934227,0.10893713682889938
1789620430491395300,3.728395263671875,0.6591374278068542,-0.3013012409210205,0.11606401950120926
1789620430501366000,3.738365966796875,0.8188567757606506,-0.43247151374816895,0.13687635958194733
1789620430511338200,3.748338134765625,0.9839836955070496,-0.40267422795295715,0.1340171843767166
1789620430521309200,3.75830908203125,1.0498732328414917,-0.09116373211145401,0.14243224263191223
1789620430531280400,3.7682802734375,1.1020243167877197,0.24227948486804962,0.1683914065361023
1789620430541251000,3.7782509765625,1.0735212564468384,0.4405060112476349,0.11121866852045059
1789620430551222000,3.788221923828125,1.0294678211212158,0.6699533462524414,0.0191997941583395
1789620430561194200,3.7981943359375,1.073304295539856,0.9410202503204346,-0.015121961012482643
1789620430571165200,3.808165283203125,1.12882661819458,1.0039371252059937,-0.05152417719364166
1789620430581136100,3.81813623046875,1.2034587860107422,0.9581579566001892,-0.058812983334064484
1789620430591107000,3.828107177734375,1.310909390449524,0.9435867071151733,-0.035952676087617874
1789620430601078300,3.838078369140625,1.3676022291183472,0.9177202582359314,-0.00800226628780365
1789620430611050200,3.84805029296875,1.362835168838501,0.8184964656829834,0.0028549085836857557
1789620430621021200,3.858021240234375,1.2562657594680786,0.6481958031654358,-0.019289009273052216
1789620430630992100,3.8679921875,1.075103521347046,0.4340971112251282,-0.08560651540756226
1789620430640963300,3.87796337890625,0.9782243371009827,0.39329561591148376,-0.07965408265590668
1789620430650934300,3.887934326171875,1.0388981103897095,0.5562403202056885,-0.03982517868280411
1789620430660906200,3.89790625,1.1003574132919312,0.5256432890892029,-0.07775525003671646
1789620430670877200,3.907877197265625,1.1481702327728271,0.4436568021774292,-0.0900673121213913
1789620430680848100,3.91784814453125,1.1955318450927734,0.4119065999984741,-0.010341321118175983
1789620430690819300,3.9278193359375,1.218549370765686,0.40401217341423035,0.07443401962518692
1789620430700790300,3.937790283203125,1.2699546813964844,0.4599481523036957,0.09797902405261993
1789620430710761200,3.94776123046875,1.3602254390716553,0.4206082224845886,0.11368901282548904
1789620430720733200,3.957733154296875,1.395661473274231,0.21227870881557465,0.11471673101186752
1789620430730704400,3.967704345703125,1.4064686298370361,0.23588097095489502,0.14020158350467682
1789620430740675300,3.97767529296875,1.3837896585464478,0.302347332239151,0.18794113397598267
1789620430750646000,3.98764599609375,1.3894585371017456,0.3484184443950653,0.23082388937473297
1789620430760617200,3.9976171875,1.3439247608184814,0.2899026572704315,0.22687122225761414
1789620430770589200,4.007589111328125,1.1864608526229858,0.1752501130104065,0.14639049768447876
1789620430780560100,4.01756005859375,1.0612164735794067,0.29749080538749695,0.10947828739881516
1789620430790531000,4.027531005859375,1.078831672668457,0.392566978931427,0.12763012945652008
1789620430800502300,4.037502197265625,1.120139718055725,0.1437356024980545,0.08266399055719376
1789620430810474000,4.047473876953125,1.1007542610168457,-0.08467067778110504,-0.020425645634531975
1789620430820445700,4.05744580078125,1.0429785251617432,-0.015899604186415672,-0.1120772659778595
1789620430830417000,4.0674169921875,0.9352409243583679,0.11127831786870956,-0.19120191037654877
1789620430840387800,4.077387939453125,0.7627607583999634,0.24428297579288483,-0.2121514081954956
1789620430850358800,4.08735888671875,0.6292487382888794,0.5023073554039001,-0.17714282870292664
1789620430860330000,4.097330078125,0.6631824970245361,0.5843023061752319,-0.15996091067790985
1789620430870301700,4.1073017578125,0.7456896305084229,0.34298425912857056,-0.1728000044822693
1789620430880273000,4.11727294921875,0.758752703666687,0.11254944652318954,-0.1949164867401123
1789620430890243800,4.127243896484375,0.7519251704216003,0.06646424531936646,-0.21371254324913025
1789620430900214800,4.13721484375,0.8022668957710266,-0.010235593654215336,-0.19656072556972504
1789620430910185700,4.147185791015625,0.8258614540100098,-0.12861523032188416,-0.17204447090625763
1789620430920158000,4.157157958984375,0.7990812063217163,-0.023734889924526215,-0.155562162399292
1789620430930129000,4.16712890625,0.7463146448135376,0.2426334172487259,-0.14782461524009705
1789620430940099800,4.177099853515625,0.7740973234176636,0.4256676733493805,-0.12603968381881714
1789620430950070800,4.18707080078125,0.7793325185775757,0.42105403542518616,-0.09240476787090302
1789620430960041700,4.197041748046875,0.7762073278427124,0.3451848328113556,-0.09591534733772278
1789620430970014000,4.207013916015625,0.7595178484916687,0.37064462900161743,-0.11880601197481155
1789620430979984600,4.216984619140625,0.6903648376464844,0.35226908326148987,-0.11650903522968292
1789620430989955800,4.226955810546875,0.5419902801513672,0.22924277186393738,-0.10620260238647461
1789620430999926800,4.2369267578125,0.3710547685623169,0.13779088854789734,-0.14274170994758606
1789620431009897700,4.246897705078125,0.30610400438308716,0.02335192821919918,-0.26724502444267273
1789620431019869700,4.25686962890625,0.3307616710662842,-0.24313755333423615,-0.380911648273468
1789620431029841000,4.2668408203125,0.2721737325191498,-0.4314608573913574,-0.37018710374832153
1789620431039811800,4.276811767578125,0.06084337830543518,-0.24406327307224274,-0.2904350161552429
1789620431049782800,4.28678271484375,-0.16748672723770142,0.03985527157783508,-0.2506311535835266
1789620431059754000,4.29675390625,-0.13443557918071747,0.3219759166240692,-0.24029436707496643
1789620431069725700,4.3067255859375,-0.15629079937934875,0.5217702388763428,-0.2127775102853775
1789620431079697000,4.31669677734375,-0.11711890250444412,0.5262494087219238,-0.20891939103603363
1789620431089667800,4.326667724609375,-0.04715419560670853,0.2938811480998993,-0.2353864163160324
1789620431099639000,4.33663916015625,-0.07699491828680038,-0.03960892930626869,-0.2730291485786438
1789620431109609700,4.346609619140625,-0.1284589022397995,-0.1913292109966278,-0.2961842715740204
1789620431119582000,4.35658203125,-0.20928531885147095,-0.17124685645103455,-0.30240246653556824
1789620431129553000,4.366552978515625,-0.29194316267967224,0.10200412571430206,-0.24080514907836914
1789620431139523800,4.37652392578125,-0.32326167821884155,0.3487848937511444,-0.158290833234787
1789620431149494800,4.386494873046875,-0.2933993935585022,0.40630224347114563,-0.07074660807847977
1789620431159465700,4.3964658203125,-0.24824948608875275,0.45220449566841125,0.04899816960096359
1789620431169438000,4.40643798828125,-0.1846843659877777,0.3261331021785736,0.10550352185964584
1789620431179409000,4.416408935546875,-0.1251789629459381,-0.12474406510591507,0.05254336819052696
1789620431189379800,4.4263798828125,-0.09513290971517563,-0.414795845746994,-0.015690280124545097
1789620431199350800,4.436350830078125,-0.06272942572832108,-0.3006117641925812,-0.025182317942380905
1789620431209321700,4.44632177734375,-0.03687146678566933,-0.1269686073064804,-0.02834748476743698
1789620431219294000,4.4562939453125,-0.05120166763663292,-0.2019304633140564,-0.0330282561480999
1789620431229264600,4.4662646484375,-0.12357999384403229,0.012461729347705841,0.014637266285717487
1789620431239235800,4.47623583984375,-0.13594850897789001,0.4999019503593445,0.03999854996800423
1789620431249206800,4.486206787109375,-0.10170931369066238,0.5794705748558044,0.011595402844250202
1789620431259178000,4.496177978515625,-0.12426682561635971,0.3439882695674896,0.012010323815047741
1789620431269149700,4.506149658203125,-0.15030108392238617,0.07665562629699707,0.05889953672885895
1789620431279121000,4.516120849609375,-0.17360827326774597,-0.144353449344635,0.07744339108467102
1789620431289091800,4.526091796875,-0.22696258127689362,-0.04591476172208786,0.09619364142417908
1789620431299062800,4.536062744140625,-0.30504751205444336,-0.025049693882465363,0.10608196258544922
1789620431309034000,4.546033935546875,-0.3891722559928894,-0.3817518949508667,0.14023460447788239
1789620431319005700,4.556005615234375,-0.5471088886260986,-0.5362807512283325,0.22604671120643616
1789620431328977000,4.565976806640625,-0.7181501388549805,-0.19224800169467926,0.24530109763145447
1789620431338947800,4.57594775390625,-0.7411502599716187,0.13396818935871124,0.18182839453220367
1789620431348919000,4.5859189453125,-0.7447564601898193,0.029141640290617943,0.08785342425107956
1789620431358889700,4.5958896484375,-0.7775189280509949,-0.3603920042514801,0.03488155081868172
1789620431368862000,4.605862060546875,-0.7807298898696899,-0.9974638223648071,0.009283779188990593
1789620431378833000,4.6158330078125,-0.7145732641220093,-1.4800323247909546,0.02250264585018158
1789620431388803800,4.625803955078125,-0.6858039498329163,-1.2964664697647095,0.015006113797426224
1789620431398774800,4.63577490234375,-0.6974155902862549,-0.7433260679244995,-0.052268531173467636
1789620431408745700,4.645745849609375,-0.7078498601913452,-0.4092935025691986,-0.1630810648202896
1789620431418718000,4.655718017578125,-0.711683988571167,-0.17641177773475647,-0.25223225355148315
1789620431428688600,4.665688720703125,-0.7320518493652344,0.148278146982193,-0.2751668691635132
1789620431438659800,4.675659912109375,-0.7642238736152649,0.20066092908382416,-0.25161439180374146
1789620431448630800,4.685630859375,-0.7742376327514648,0.015150989405810833,-0.1949242204427719
1789620431458601700,4.695601806640625,-0.7727393507957458,-0.2876030206680298,-0.14481285214424133
1789620431468573700,4.70557373046875,-0.7891532182693481,-0.5746310353279114,-0.14318113029003143
1789620431478544600,4.715544677734375,-0.8531715869903564,-0.5421879291534424,-0.18968231976032257
1789620431488515800,4.725515869140625,-0.892499566078186,-0.297977089881897,-0.25672125816345215
1789620431498486800,4.73548681640625,-0.9049607515335083,-0.1076231300830841,-0.24350480735301971
1789620431508458000,4.7454580078125,-0.9455670714378357,-0.27103203535079956,-0.18911506235599518
1789620431518429700,4.7554296875,-1.047599196434021,-0.4593481421470642,-0.12497788667678833
1789620431528401000,4.76540087890625,-1.06233811378479,-0.4412940442562103,-0.10728543996810913
1789620431538371800,4.775371826171875,-1.0353795289993286,-0.32718291878700256,-0.13324594497680664
1789620431548343000,4.785343017578125,-0.9552806615829468,-0.4352790415287018,-0.1928943544626236
1789620431558313700,4.795313720703125,-0.8256055116653442,-0.5663302540779114,-0.28148093819618225
1789620431568286000,4.805285888671875,-0.8023803234100342,-0.4433681070804596,-0.3163135051727295
1789620431578257000,4.8152568359375,-0.8378898501396179,-0.15772491693496704,-0.26560983061790466
1789620431588227800,4.825227783203125,-0.841913104057312,0.020308466628193855,-0.23476403951644897
1789620431598198800,4.83519873046875,-0.8405434489250183,0.07081371545791626,-0.29023900628089905
1789620431608169700,4.845169677734375,-0.8901562690734863,0.1299169808626175,-0.3402015268802643
1789620431618142000,4.855141845703125,-0.8687106370925903,0.03400377184152603,-0.3438420593738556
1789620431628113000,4.86511279296875,-0.8347113728523254,-0.031928904354572296,-0.34082815051078796
1789620431638083800,4.875083740234375,-0.8781265020370483,0.052737779915332794,-0.3283778727054596
1789620431648054800,4.8850546875,-0.9705483317375183,0.12403886020183563,-0.22802305221557617
1789620431658025700,4.895025634765625,-1.030336856842041,0.011156247928738594,-0.07174902409315109
1789620431667998000,4.904998046875,-1.0199576616287231,-0.32231491804122925,0.04094130918383598
1789620431677968600,4.91496875,-0.9931439161300659,-0.740230143070221,0.09646528959274292
1789620431687939800,4.92493994140625,-0.974307119846344,-0.8455643057823181,0.11001944541931152
1789620431697910800,4.934910888671875,-0.9369815587997437,-0.7517541646957397,0.07646974176168442
1789620431707882000,4.944882080078125,-0.9230396151542664,-0.6506946682929993,0.006627808790653944
1789620431717853700,4.954853759765625,-0.9671381115913391,-0.3957262933254242,-0.04950470104813576
1789620431727825000,4.964824951171875,-1.0074002742767334,-0.06997722387313843,-0.09196853637695312
1789620431737795800,4.9747958984375,-1.0768635272979736,0.13347522914409637,-0.12151604145765305
1789620431747766800,4.984766845703125,-1.138758897781372,0.28386208415031433,-0.14273957908153534
1789620431757738800,4.99473876953125,-1.1142597198486328,0.19702571630477905,-0.17667756974697113
1789620431767709700,5.004709716796875,-1.0974375009536743,-0.10038652271032333,-0.18333280086517334
1789620431777681000,5.014680908203125,-1.0905485153198242,-0.24997681379318237,-0.16784386336803436
1789620431787651800,5.02465185546875,-1.0192948579788208,-0.2651536464691162,-0.14254489541053772
1789620431797623000,5.034623046875,-0.9844502806663513,-0.2747836410999298,-0.0908966138958931
1789620431807594800,5.0445947265625,-0.9937188625335693,-0.42271795868873596,-0.02960076928138733
1789620431817566000,5.05456591796875,-1.0207592248916626,-0.6673111915588379,0.014676148071885109
1789620431827537000,5.064536865234375,-1.01950204372406,-0.8391433954238892,0.052611012011766434
1789620431837507800,5.0745078125,-0.9435569047927856,-0.8742569088935852,0.04637761786580086
1789620431847478800,5.084478759765625,-0.881811797618866,-0.699203610420227,0.013837252743542194
1789620431857450800,5.09445068359375,-0.8688480257987976,-0.47582778334617615,0.0109855392947793
1789620431867422000,5.104421875,-0.9873917102813721,-0.31315526366233826,0.04289180785417557
1789620497692726300,70.92972631835937,0.514656126499176,-0.3173089921474457,-0.45230647921562195
1789620497702697200,70.939697265625,0.44545549154281616,-0.46207815408706665,-0.2365044206380844
1789620497712668400,70.94966845703125,0.38697460293769836,-0.551104724407196,-0.04692836105823517
1789620497722639400,70.95963940429688,0.34610652923583984,-0.5310527086257935,0.1061629205942154
1789620497732610300,70.9696103515625,0.3345327079296112,-0.4043562710285187,0.21436502039432526
1789620497742581200,70.97958129882812,0.33920416235923767,-0.2601351737976074,0.2617109715938568
1789620497752552200,70.98955224609375,0.35841700434684753,-0.1652992069721222,0.25386476516723633
1789620497762523400,70.9995234375,0.397575318813324,-0.004430967383086681,0.23491211235523224
1789620497772494300,71.00949438476563,0.43058520555496216,0.19086742401123047,0.2251439094543457
1789620497782465300,71.01946533203125,0.44958606362342834,0.307761549949646,0.23257651925086975
1789620497792435500,71.029435546875,0.48248088359832764,0.3351588249206543,0.2581958770751953
1789620497802406400,71.03940649414062,0.5487909317016602,0.3172307014465332,0.31212300062179565
1789620497812377000,71.04937719726563,0.6431794762611389,0.25200560688972473,0.38291168212890625
1789620497822348300,71.05934838867188,0.7402879595756531,0.09463569521903992,0.43842023611068726
1789620497832319200,71.0693193359375,0.7919665575027466,-0.14979881048202515,0.4481889605522156
1789620497842290400,71.07929052734374,0.7884733080863953,-0.32555919885635376,0.43188056349754333
1789620497852261400,71.08926147460937,0.738806962966919,-0.38690218329429626,0.3915874660015106
1789620497862232300,71.099232421875,0.6642554998397827,-0.4066295325756073,0.3083040416240692
1789620497872203500,71.10920361328125,0.6155747771263123,-0.41047435998916626,0.1933383047580719
1789620497882174700,71.1191748046875,0.602749764919281,-0.353044331073761,0.08145970851182938
1789620497892145700,71.12914575195313,0.6153457164764404,-0.22856499254703522,0.005033907014876604
1789620497902116900,71.13911694335937,0.6374558210372925,-0.09357655793428421,-0.027890753000974655
1789620497912087600,71.14908764648438,0.6201831102371216,-0.04126754403114319,-0.05380650609731674
1789620497922058800,71.15905883789063,0.5774838328361511,-0.07111119478940964,-0.09688979387283325
1789620497932028700,71.16902856445313,0.5160250067710876,-0.05253005400300026,-0.13502518832683563
1789620497941999600,71.17899951171874,0.41912776231765747,0.046496130526065826,-0.1729414165019989
1789620497951970800,71.188970703125,0.3000847101211548,0.15786100924015045,-0.23445884883403778
1789620497961941800,71.19894165039062,0.18843914568424225,0.2128845751285553,-0.30769869685173035
1789620497971912700,71.20891259765625,0.08430316299200058,0.2398269772529602,-0.3669132888317108
1789620497981883600,71.21888354492188,-0.001443166984245181,0.27108344435691833,-0.38877758383750916
1789620497991854600,71.2288544921875,-0.0629001334309578,0.30599188804626465,-0.3828882575035095
1789620498001825800,71.23882568359375,-0.10723670572042465,0.3280913233757019,-0.3524928092956543
1789620498011796700,71.24879663085937,-0.14816470444202423,0.34988024830818176,-0.30062028765678406
1789620498021767700,71.258767578125,-0.18875792622566223,0.34717899560928345,-0.23143988847732544
1789620498031739000,71.26873876953125,-0.21643802523612976,0.31544557213783264,-0.1587744653224945
1789620498041709600,71.27870947265625,-0.22558732330799103,0.2604829967021942,-0.09506712853908539
1789620498051680800,71.2886806640625,-0.21300920844078064,0.18785405158996582,-0.06228095293045044
1789620498061651700,71.29865161132813,-0.18343506753444672,0.14029265940189362,-0.058759454637765884
1789620498071622700,71.30862255859375,-0.1598498523235321,0.10913607478141785,-0.07724844664335251
1789620498081592800,71.3185927734375,-0.14428554475307465,0.0713263750076294,-0.10533148050308228
1789620498091563800,71.32856372070313,-0.13988599181175232,0.030041787773370743,-0.1286168247461319
1789620498101534700,71.33853466796874,-0.1500914990901947,0.01618962176144123,-0.1394021064043045
1789620498111505700,71.34850561523437,-0.16584250330924988,0.030341127887368202,-0.12462315708398819
1789620498121476600,71.3584765625,-0.16371409595012665,0.051126834005117416,-0.08535803854465485
1789620498131447800,71.36844775390625,-0.1692476123571396,0.05880499258637428,-0.03435850515961647
1789620498141418800,71.37841870117188,-0.13486434519290924,0.034507375210523605,0.03519740328192711
1789620498151389700,71.3883896484375,-0.09675423800945282,-0.01173601858317852,0.09606794267892838
1789620498161360600,71.39836059570312,-0.07759545743465424,-0.07427156716585159,0.15759149193763733
1789620498171331600,71.40833154296875,-0.08182402700185776,-0.12414911389350891,0.21300388872623444
1789620498181302800,71.418302734375,-0.09061592072248459,-0.14383120834827423,0.26999473571777344
1789620498191273700,71.42827368164062,-0.10841009765863419,-0.13866972923278809,0.3175095319747925
1789620498201244700,71.43824462890625,-0.11531780660152435,-0.12033386528491974,0.343771755695343
1789620498211215600,71.44821557617188,-0.10546144098043442,-0.09508656710386276,0.3500794470310211
1789620498221186600,71.4581865234375,-0.092835932970047,-0.09734652936458588,0.3354632258415222
1789620498231157800,71.46815771484376,-0.08934186398983002,-0.1429196000099182,0.31670525670051575
1789620498241127700,71.47812768554688,-0.09767542779445648,-0.19288370013237,0.31159329414367676
1789620498251098600,71.4880986328125,-0.1064353659749031,-0.22471965849399567,0.3138503432273865
1789620498261069800,71.49806982421875,-0.11524776369333267,-0.23249848186969757,0.3162687420845032
1789620498271040800,71.50804077148437,-0.11704353243112564,-0.21167656779289246,0.30868592858314514
1789620498281011700,71.51801171875,-0.11458756774663925,-0.160232812166214,0.2837984263896942
1789620498290982700,71.52798266601563,-0.11683260649442673,-0.10576477646827698,0.24242275953292847
1789620498300953600,71.53795361328125,-0.1254202425479889,-0.07558637112379074,0.20125775039196014
1789620498310924800,71.5479248046875,-0.12307053059339523,-0.07885859906673431,0.16294550895690918
1789620498320895700,71.55789575195313,-0.09911033511161804,-0.05727927014231682,0.13406112790107727
1789620498330866700,71.56786669921875,-0.0756196603178978,-0.0002697782183531672,0.1234646812081337
1789620498340837600,71.57783764648437,-0.07408727705478668,0.04806765913963318,0.1178257018327713
1789620498350808600,71.58780859375,-0.08048765361309052,0.06381546705961227,0.1232505589723587
1789620498360779800,71.59777978515625,-0.10018438845872879,0.06911701709032059,0.12714970111846924
1789620498370750700,71.60775073242188,-0.13229332864284515,0.07673259824514389,0.12654036283493042
1789620498380720600,71.617720703125,-0.15834249556064606,0.09229264408349991,0.11492099612951279
1789620498390691800,71.62769189453125,-0.17929118871688843,0.12260554730892181,0.09735717624425888
1789620498400662800,71.63766284179688,-0.20410466194152832,0.14226047694683075,0.08010388910770416
1789620498410633700,71.6476337890625,-0.22089429199695587,0.13878265023231506,0.0658077746629715
1789620498420604700,71.65760473632812,-0.22858257591724396,0.13622574508190155,0.0522267185151577
1789620498430575600,71.66757568359375,-0.21299855411052704,0.1559126377105713,0.04307103902101517
1789620498440546800,71.677546875,-0.1825069636106491,0.21390829980373383,0.04025128111243248
1789620498450517800,71.68751782226562,-0.1655716598033905,0.27339425683021545,0.053882937878370285
1789620498460488700,71.69748876953125,-0.16790884733200073,0.29537224769592285,0.07116685062646866
1789620498470459600,71.70745971679688,-0.18323266506195068,0.2909839153289795,0.08860044181346893
1789620498480430600,71.7174306640625,-0.2070639729499817,0.27289676666259766,0.1026209145784378
1789620498490401800,71.72740185546876,-0.2276800274848938,0.2560461461544037,0.11283440887928009
1789620498500372700,71.73737280273437,-0.2430640459060669,0.23302127420902252,0.10506889224052429
1789620498510343700,71.74734375,-0.24741218984127045,0.2170574814081192,0.08468985557556152
1789620498520314600,71.75731469726563,-0.23605966567993164,0.2387092411518097,0.06569192558526993
1789620498530285600,71.76728564453126,-0.22240857779979706,0.2786630690097809,0.05453221872448921
1789620498540255700,71.777255859375,-0.2085137963294983,0.31857240200042725,0.04765833169221878
1789620498550226700,71.78722680664063,-0.1820259988307953,0.37843891978263855,0.06065376102924347
1789620498560197600,71.79719775390625,-0.16501851379871368,0.43243396282196045,0.08997835963964462
1789620498570168800,71.8071689453125,-0.1669362634420395,0.4400128126144409,0.12869353592395782
1789620498580139500,71.81713940429688,-0.1767694503068924,0.40863144397735596,0.16448640823364258
1789620498590110700,71.82711083984375,-0.1850297749042511,0.35486114025115967,0.1937822550535202
1789620498600081700,71.83708154296875,-0.1792144924402237,0.30696606636047363,0.2129167914390564
1789620498610052600,71.84705249023438,-0.16651281714439392,0.26932787895202637,0.2133096158504486
1789620498620023800,71.85702392578125,-0.1446879357099533,0.2485794574022293,0.1962779015302658
1789620498629994800,71.86699487304688,-0.12129580229520798,0.27113935351371765,0.1638571172952652
1789620498639965700,71.87696557617187,-0.09632600098848343,0.3266124725341797,0.1284083127975464
1789620498649936600,71.8869365234375,-0.08323017507791519,0.378028005361557,0.09006305038928986
1789620498659907800,71.89690795898437,-0.08043598383665085,0.4025631546974182,0.05704091489315033
1789620498669878800,71.90687866210938,-0.08167355507612228,0.40468037128448486,0.030345922335982323
1789620498679849700,71.916849609375,-0.07361935824155807,0.39983367919921875,0.00458836043253541
1789620498689820700,71.92682055664062,-0.06107480451464653,0.3998083770275116,-0.02401026152074337
1789620498699791600,71.93679150390625,-0.03785337135195732,0.3977753221988678,-0.05164774879813194
1789620498709761500,71.94676147460937,-0.02256656251847744,0.39209720492362976,-0.07814353704452515
1789620498719732700,71.95673266601563,-0.009148224256932735,0.38825559616088867,-0.09513157606124878
1789620498729703700,71.96670361328125,0.002639192622154951,0.3965175151824951,-0.09377069771289825
1789620498739675000,71.9766748046875,0.009279784746468067,0.41386109590530396,-0.08479318767786026
1789620498749645800,71.98664575195312,0.00752103328704834,0.42527779936790466,-0.07218924164772034
1789620498759616500,71.99661645507813,-0.016683904454112053,0.4319721758365631,-0.05829313397407532
1789620498769587700,72.00658764648438,-0.04036100581288338,0.4447636008262634,-0.053402505815029144
1789620498779558700,72.01655859375,-0.05313539132475853,0.4568394422531128,-0.05889154598116875
1789620498789529900,72.02652978515626,-0.05465072765946388,0.45872071385383606,-0.07362175732851028
1789620498799500800,72.03650073242187,-0.04589318856596947,0.44405093789100647,-0.10070078074932098
1789620498809471500,72.04647143554688,-0.019360115751624107,0.4142264723777771,-0.13468670845031738
1789620498819442700,72.05644262695313,0.01570812240242958,0.36409538984298706,-0.16469360888004303
1789620498829413600,72.06641357421876,0.0516381599009037,0.3093637228012085,-0.18774433434009552
1789620498839384800,72.076384765625,0.08145517855882645,0.27940207719802856,-0.20039620995521545
1789620498849355800,72.08635571289062,0.09475180506706238,0.26390939950942993,-0.20295152068138123
1789620498859326700,72.09632666015625,0.08951842784881592,0.2571801245212555,-0.20189210772514343
1789620498869297400,72.10629736328124,0.06117813661694527,0.2703436017036438,-0.20796199142932892
1789620498879268400,72.11626831054687,0.03768026828765869,0.30838313698768616,-0.21973901987075806
1789620498889238300,72.12623828125,0.02472159080207348,0.36521151661872864,-0.22067324817180634
1789620498899209500,72.13620947265625,0.01284575741738081,0.41482409834861755,-0.2007506787776947
1789620498909180400,72.14618041992188,0.010214021429419518,0.43220946192741394,-0.17033497989177704
1789620498919151600,72.15615161132813,0.023335682228207588,0.4221653640270233,-0.14422215521335602
1789620498929122600,72.16612255859376,0.044202882796525955,0.3869785964488983,-0.1253904104232788
1789620498939093200,72.17609326171875,0.06713908910751343,0.3486783504486084,-0.10897042602300644
1789620498949064400,72.186064453125,0.08051321655511856,0.31491613388061523,-0.10150345414876938
1789620498959035400,72.19603540039063,0.08212709426879883,0.2915021479129791,-0.10230453312397003
1789620498969006600,72.20600659179688,0.08326400071382523,0.27608057856559753,-0.12248490005731583
1789620498978977500,72.2159775390625,0.0857524573802948,0.2604512870311737,-0.15793849527835846
1789620498988948200,72.2259482421875,0.08694581687450409,0.26499518752098083,-0.19766220450401306
1789620498998919400,72.23591943359375,0.09796038269996643,0.32094606757164,-0.2269793599843979
1789620499008890400,72.24589038085938,0.09765332192182541,0.38764917850494385,-0.23419785499572754
1789620499018861600,72.25586157226563,0.06819423288106918,0.413748174905777,-0.2163323014974594
1789620499028832500,72.26583251953124,0.03909813240170479,0.38457828760147095,-0.19364270567893982
1789620499038803500,72.27580346679687,0.016332633793354034,0.30974695086479187,-0.17234620451927185
1789620499048774400,72.2857744140625,0.005655222572386265,0.23878487944602966,-0.1469079554080963
1789620499058745300,72.29574536132813,0.0030032468494027853,0.17783844470977783,-0.12007873505353928
1789620499068716500,72.30571655273438,-0.003832022426649928,0.10339722782373428,-0.0985231101512909
1789620499078687500,72.3156875,-0.01513074990361929,0.05227518826723099,-0.0904926136136055
1789620499088658700,72.32565869140625,-0.03440431132912636,0.04477013275027275,-0.10581910610198975
1789620499098628600,72.33562866210937,-0.050928160548210144,0.06325513869524002,-0.14618463814258575
1789620499108599600,72.345599609375,-0.0477166548371315,0.08625392615795135,-0.19473379850387573
1789620499118570500,72.35557055664063,-0.033363815397024155,0.11696203798055649,-0.2307133674621582
1789620499128541400,72.36554150390624,0.0005954828229732811,0.162006214261055,-0.25173529982566833
1789620499138512400,72.37551245117187,0.04815581068396568,0.21018652617931366,-0.2577114403247833
1789620499148483600,72.38548364257812,0.09702268987894058,0.21006321907043457,-0.2326180636882782
1789620499158454500,72.39545458984375,0.1423286497592926,0.12880511581897736,-0.21032607555389404
1789620499168425500,72.40542553710938,0.1904839277267456,0.08194945752620697,-0.17727598547935486
1789620499178396400,72.415396484375,0.22343787550926208,0.03514653444290161,-0.1311790645122528
1789620499188367400,72.42536743164062,0.24116308987140656,-0.028429510071873665,-0.07708759605884552
