time,seconds_elapsed,z,y,x
1789022118626398500,0.0613984375,0.3164043426513672,0.0502927303314209,0.11191308498382568
1789022118636323300,0.0713232421875,0.3367795944213867,0.10635817050933838,0.2649519443511963
1789022118646248200,0.081248291015625,0.05336284637451172,0.16646146774291992,0.33330976963043213
1789022118656173000,0.091173095703125,-0.3675050735473633,0.2494577169418335,0.3353988528251648
1789022118666098000,0.101097900390625,-0.9324159622192383,0.31266188621520996,0.4036746025085449
1789022118676022800,0.111022705078125,-1.290999412536621,0.4005773067474365,0.3149930238723755
1789022118685947600,0.12094775390625,-1.4047088623046875,0.4760453701019287,0.027458250522613525
1789022118695872500,0.13087255859375,-1.4828815460205078,0.4829202890396118,-0.05270785093307495
1789022118705797600,0.140797607421875,-1.4662342071533203,0.49078369140625,0.06177401542663574
1789022118715722200,0.15072216796875,-1.2047109603881836,0.4530966281890869,0.09489703178405762
1789022118725647000,0.160647216796875,-0.8140392303466797,0.367431640625,0.1289622187614441
1789022118735572200,0.170572265625,-0.5196342468261719,0.28783583641052246,0.14534789323806763
1789022118745497000,0.1804970703125,-0.4099082946777344,0.2054286003112793,0.1431788206100464
1789022118755422000,0.190421875,-0.5070466995239258,0.04222249984741211,0.14667099714279175
1789022118765346800,0.200346923828125,-0.7817840576171875,0.0064144134521484375,0.1986255645751953
1789022118775271700,0.210271728515625,-1.035334587097168,-0.10416293144226074,0.1312808394432068
1789022118785196500,0.220196533203125,-1.0994911193847656,-0.0741727352142334,0.053523123264312744
1789022118795121400,0.230121337890625,-1.043741226196289,0.07061052322387695,0.09315729141235352
1789022118805046300,0.24004638671875,-1.2721519470214844,0.19041204452514648,0.3559083938598633
1789022118814971100,0.24997119140625,-1.5200538635253906,0.37853479385375977,0.44103455543518066
1789022118824896000,0.25989599609375,-1.4487133026123047,0.43464088439941406,0.26464879512786865
1789022118834820900,0.26982080078125,-1.1156082153320312,0.2476792335510254,0.04316037893295288
1789022118844746000,0.27974609375,-0.905695915222168,-0.1027216911315918,-0.16496926546096802
1789022118854670600,0.289670654296875,-0.8091278076171875,-0.35928940773010254,-0.3867838382720947
1789022118864595500,0.299595458984375,-0.5477151870727539,-0.4949275255203247,-0.6148321628570557
1789022118874520300,0.309520263671875,-0.32213401794433594,-0.6256997585296631,-0.8628287315368652
1789022118884445400,0.319445556640625,0.054477691650390625,-0.4555494785308838,-0.8287660479545593
1789022118894370300,0.329370361328125,0.09334182739257812,-0.17483282089233398,-0.5598119497299194
1789022118904295200,0.339295166015625,0.11699104309082031,-0.1009746789932251,-0.33843719959259033
1789022118914220000,0.349219970703125,0.42920780181884766,-0.09773778915405273,-0.146498441696167
1789022118924145000,0.359144775390625,-1.2184028625488281,-1.8972718715667725,0.3571203947067261
1789022118934069800,0.36906982421875,2.091409683227539,-0.024419188499450684,-0.8457800149917603
1789022118943994600,0.37899462890625,1.1183710098266602,-0.08858537673950195,-0.09528657793998718
1789022118953919500,0.38891943359375,1.2119255065917969,-0.4867081642150879,-0.2155822366476059
1789022118963844400,0.39884423828125,1.318075180053711,-1.0768156051635742,-0.18513812124729156
1789022118973769200,0.408769287109375,2.0404434204101562,-1.4210171699523926,-0.232778400182724
1789022118983694000,0.418694091796875,2.226290702819824,-1.333957314491272,-0.3281744718551636
1789022118993619200,0.428619140625,1.8446941375732422,-0.8507057428359985,-0.2933138608932495
1789022119003544000,0.4385439453125,1.1959190368652344,-0.0690619945526123,-0.12403315305709839
1789022119013469000,0.448468994140625,0.6640396118164062,1.3278751373291016,0.5004017353057861
1789022119023393800,0.458393798828125,0.5765895843505859,1.8826322555541992,1.1702417135238647
1789022119033318700,0.468318603515625,0.22235488891601562,0.5158107280731201,1.0412784814834595
1789022119043243500,0.478243408203125,-0.16687679290771484,-0.6913177967071533,0.044030219316482544
1789022119053168400,0.48816845703125,-0.2210407257080078,-0.5823502540588379,-0.210222065448761
1789022119063093200,0.49809326171875,-0.9516010284423828,0.11918139457702637,0.1625036895275116
1789022119073018400,0.508018310546875,-1.5340862274169922,0.6460428237915039,0.4879644215106964
1789022119082943200,0.517943115234375,-1.56689453125,0.5245428085327148,0.4265679717063904
1789022119092868000,0.5278681640625,-1.0380020141601562,-0.10023951530456543,-0.02528780698776245
1789022119102793000,0.53779296875,-0.2512331008911133,-0.7311346530914307,-0.7075613737106323
1789022119112717800,0.5477177734375,1.0060958862304688,-0.8662948608398438,-1.064868688583374
1789022119122642700,0.557642578125,1.9828681945800781,-0.5609455108642578,-1.2437855005264282
1789022119132567600,0.567567626953125,2.1728458404541016,-0.3417537212371826,-1.2171045541763306
1789022119142492400,0.577492431640625,1.9211750030517578,-0.45703601837158203,-1.0275040864944458
1789022119152417300,0.587417236328125,1.1252784729003906,-0.5110442638397217,-0.35569387674331665
1789022119162342100,0.597342041015625,0.28922367095947266,-0.4741551876068115,0.521891176700592
1789022119172267000,0.60726708984375,-0.6387414932250977,-0.9021317958831787,0.9162389039993286
1789022119182192000,0.617192138671875,-0.6090373992919922,-0.8677496910095215,0.718411922454834
1789022119192117000,0.627116943359375,-0.6678066253662109,-0.4006187915802002,0.5731578469276428
1789022119202041900,0.637041748046875,-1.082625389099121,-0.0888214111328125,0.540621280670166
1789022119211966700,0.646966796875,-1.5174293518066406,0.12399482727050781,0.3986267149448395
1789022119221891600,0.6568916015625,-1.5112323760986328,0.3283553123474121,0.15116053819656372
1789022119231816400,0.66681640625,-1.3822011947631836,0.4616372585296631,-0.22337061166763306
1789022119241741300,0.6767412109375,-1.5697698593139648,0.5085115432739258,-0.6718367338180542
1789022119251666200,0.686666259765625,-1.6816778182983398,0.6315481662750244,-1.7536540031433105
1789022119261591300,0.69659130859375,-2.027740478515625,0.8824946880340576,-3.4346466064453125
1789022119271516200,0.70651611328125,-2.492682456970215,0.8498098850250244,-3.4004814624786377
1789022119281441000,0.71644091796875,-2.723573684692383,0.09991097450256348,-0.5599274635314941
1789022119291366000,0.726365966796875,-2.467893600463867,0.2891201972961426,0.8513752222061157
1789022119301290800,0.736290771484375,-2.4599685668945312,0.716705322265625,1.1883156299591064
1789022119311215600,0.746215576171875,-2.7230758666992188,0.9813172817230225,1.0917705297470093
1789022119321140700,0.756140625,-3.0972061157226562,0.9925534725189209,1.3052679300308228
1789022119331065600,0.766065673828125,-3.056828498840332,0.8709568977355957,1.3659223318099976
1789022119340990500,0.775990478515625,-1.9481816291809082,0.8628079891204834,1.0335042476654053
1789022119350915300,0.785915283203125,-0.2795429229736328,0.814112663269043,0.6630855202674866
1789022119360840200,0.795840087890625,1.6289596557617188,0.6545865535736084,0.45417076349258423
1789022119370765000,0.80576513671875,1.730733871459961,0.26338768005371094,1.2008742094039917
1789022119380690000,0.81568994140625,1.1131315231323242,0.02434229850769043,1.8906710147857666
1789022119390615000,0.825614990234375,0.9100170135498047,0.03647756576538086,1.8896558284759521
1789022119400540000,0.835539794921875,0.7757453918457031,0.19759368896484375,1.1183927059173584
1789022119410464800,0.84546484375,-0.09672260284423828,0.07958102226257324,0.9103239178657532
1789022119420389600,0.8553896484375,-0.7063636779785156,-0.2201831340789795,0.8546962738037109
1789022119430314500,0.865314453125,-0.6379575729370117,-0.23625516891479492,0.569907546043396
1789022119440239400,0.8752392578125,-0.24367046356201172,-0.3982424736022949,0.1341649293899536
1789022119450164200,0.885164306640625,0.07745742797851562,-0.5417304039001465,0.11355757713317871
1789022119460089000,0.895089111328125,0.3723783493041992,-0.5144743919372559,0.426855206489563
1789022119470014200,0.90501416015625,0.12418174743652344,-0.5155296325683594,0.511013388633728
1789022119479939000,0.91493896484375,-0.607365608215332,-0.375471830368042,0.6242094039916992
1789022119489864000,0.924864013671875,-1.4827098846435547,-0.3715348243713379,0.6960301399230957
1789022119499788800,0.934788818359375,-1.8516430854797363,-0.15079689025878906,0.8515887260437012
1789022119509713700,0.944713623046875,-1.0874700546264648,0.18776655197143555,0.9279072284698486
1789022119519638800,0.954638671875,-0.09081363677978516,-0.11963605880737305,0.9003100395202637
1789022119529563600,0.964563720703125,0.9407291412353516,-0.3366584777832031,0.9584834575653076
1789022119539488500,0.974488525390625,1.3013372421264648,-0.3775753974914551,0.8446831703186035
1789022119549413400,0.984413330078125,1.1957674026489258,-0.13367414474487305,1.3406226634979248
1789022119559338200,0.994338134765625,0.6699247360229492,0.1709127426147461,1.630753517150879
1789022119569263400,1.004263427734375,-0.11659812927246094,0.3864893913269043,1.7600977420806885
1789022119579188200,1.014188232421875,-0.39569568634033203,0.4352293014526367,1.7442841529846191
1789022119589113000,1.024113037109375,-0.38390445709228516,0.48508787155151367,1.9588901996612549
1789022119599038000,1.034037841796875,-0.29132556915283203,0.4710884094238281,2.128253698348999
1789022119608962800,1.043962890625,0.33555030822753906,0.39785146713256836,2.220155715942383
1789022119618887700,1.0538876953125,0.8752536773681641,0.17386913299560547,2.4878323078155518
1789022119628812800,1.063812744140625,0.707148551940918,-0.24146699905395508,2.2358436584472656
1789022119638737700,1.073737548828125,-0.05665111541748047,-0.7955424785614014,1.607431411743164
1789022119648662500,1.08366259765625,-1.5512433052062988,-1.830519199371338,0.6708893775939941
1789022119658587400,1.09358740234375,-3.076486587524414,-1.6672260761260986,1.045198678970337
1789022119668512300,1.10351220703125,-4.240163326263428,-0.5694758892059326,1.590135097503662
1789022119678437000,1.11343701171875,-4.451222896575928,-0.5803165435791016,1.898928165435791
1789022119688362200,1.1233623046875,-3.2601747512817383,-0.7752475738525391,1.9363336563110352
1789022119698287000,1.133287109375,-2.022406578063965,-1.4418597221374512,1.8197407722473145
1789022119708212000,1.1432119140625,-1.4213652610778809,-2.144878387451172,1.4453682899475098
1789022119718136800,1.15313671875,-1.6956477165222168,-2.713747262954712,1.047957420349121
1789022119728061700,1.163061767578125,-2.300537586212158,-3.3504533767700195,0.4440269470214844
1789022119737986800,1.17298681640625,-2.960519552230835,-3.6313421726226807,0.02601337432861328
1789022119747911700,1.18291162109375,-3.17545747756958,-2.947235345840454,-0.12964105606079102
1789022119757836500,1.19283642578125,-3.350893020629883,-2.7253942489624023,0.7078819274902344
1789022119767761400,1.202761474609375,-3.429401159286499,-2.3063113689422607,1.4162421226501465
1789022119777686300,1.212686279296875,-3.2144899368286133,-2.6888375282287598,1.2626218795776367
1789022119787611400,1.222611328125,-2.929786443710327,-3.812328815460205,0.3190326690673828
1789022119797536300,1.232536376953125,-2.5785152912139893,-4.613954544067383,-0.9042139053344727
1789022119807461000,1.242461181640625,-2.2896788120269775,-5.229427814483643,-1.6272382736206055
1789022119817386000,1.252385986328125,-2.3375942707061768,-5.3987603187561035,-1.6043281555175781
1789022119827310800,1.262310791015625,-2.3620078563690186,-5.806560516357422,-1.4001712799072266
1789022119837236000,1.272236083984375,-2.260809898376465,-6.036494255065918,-1.59521484375
1789022119847160800,1.282160888671875,-2.079273223876953,-6.537999153137207,-2.300281524658203
1789022119857085700,1.292085693359375,-1.6403065919876099,-6.045098304748535,-1.8601255416870117
1789022119867010800,1.3020107421875,1.7127869129180908,-4.33710241317749,-0.2572154998779297
1789022119876935700,1.311935791015625,4.907745361328125,-2.2127716541290283,1.435379981994629
1789022119886860500,1.321860595703125,7.150313377380371,-2.2323131561279297,2.3621206283569336
1789022119896785400,1.331785400390625,8.311116218566895,-3.6267995834350586,1.1530733108520508
1789022119906710500,1.34171044921875,9.039281845092773,-4.958028793334961,-0.32730579376220703
1789022119916635400,1.351635498046875,9.76036262512207,-5.388437747955322,-1.4755678176879883
1789022119926560300,1.361560302734375,9.739990234375,-5.161223411560059,-2.324275016784668
1789022119936485000,1.371485107421875,9.419264793395996,-5.427355766296387,-2.300286293029785
1789022119946410200,1.38141015625,9.276374816894531,-5.628720283508301,-0.9253816604614258
1789022119956335000,1.391335205078125,9.150476455688477,-4.953419208526611,0.7422370910644531
1789022119966260000,1.401260009765625,8.3289213180542,-4.47960090637207,2.2122154235839844
1789022119976184800,1.411184814453125,7.877374649047852,-4.267160415649414,3.6701107025146484
1789022119986109700,1.421109619140625,7.24796724319458,-4.026534080505371,4.927172660827637
1789022119996034800,1.431034912109375,6.501364707946777,-3.7517337799072266,5.909570693969727
1789022120005959700,1.440959716796875,5.698995590209961,-3.3319244384765625,6.829943656921387
1789022120015884500,1.450884521484375,4.773019790649414,-2.9838242530822754,7.847841262817383
1789022120025809400,1.460809326171875,3.6355364322662354,-2.5935468673706055,8.44052791595459
1789022120035734300,1.470734375,2.3130109310150146,-2.208432197570801,9.273566246032715
1789022120045659400,1.480659423828125,1.1989340782165527,-1.792710304260254,10.312690734863281
1789022120055584300,1.490584228515625,-0.21492785215377808,-1.1100168228149414,11.219819068908691
1789022120065509000,1.500509033203125,-1.945972204208374,-0.5393280982971191,11.904980659484863
1789022120075434200,1.510434326171875,-3.049431324005127,-0.005843639373779297,12.312796592712402
1789022120085359000,1.520359130859375,-3.5466132164001465,0.5593905448913574,12.391902923583984
1789022120095284000,1.530283935546875,-3.502753734588623,0.9932420253753662,12.147289276123047
1789022120105209000,1.540208984375,-3.0120115280151367,1.4330542087554932,12.039374351501465
1789022120115134000,1.550134033203125,-2.355555534362793,1.597663402557373,12.194562911987305
1789022120125058800,1.560058837890625,-2.1371264457702637,1.9415268898010254,11.826045036315918
1789022120134983700,1.569983642578125,-2.5965752601623535,2.6786627769470215,11.282370567321777
1789022120144908500,1.579908447265625,-2.9928953647613525,3.071140766143799,10.788102149963379
1789022120154833700,1.589833740234375,-2.692040205001831,3.3274073600769043,9.89756965637207
1789022120164758500,1.599758544921875,-1.6666030883789062,3.3008744716644287,8.428519248962402
1789022120174683400,1.609683349609375,-0.482599139213562,3.0145654678344727,6.732577323913574
1789022120184608300,1.619608154296875,0.2449168562889099,2.897164821624756,5.141909599304199
1789022120194533400,1.629533447265625,0.6716513633728027,2.836909532546997,3.3149328231811523
1789022120204458200,1.639458251953125,-0.9015730619430542,2.927800178527832,1.7614564895629883
1789022120214383400,1.64938330078125,-4.355976104736328,3.5433661937713623,-0.03209972381591797
1789022120224308000,1.659307861328125,-6.7236456871032715,4.228303909301758,-1.91485595703125
1789022120234233000,1.669233154296875,-5.704296112060547,4.339387893676758,-2.225100040435791
1789022120286198000,1.721197998046875,4.342240810394287,8.716170310974121,-4.635265350341797
1789022120296123000,1.731122802734375,12.948283195495605,10.214534759521484,-5.0722856521606445
1789022120306048000,1.741048095703125,-4.869412422180176,10.169124603271484,-6.32759952545166
1789022120315972900,1.750972900390625,-10.69327449798584,12.872346878051758,-7.360539436340332
1789022120325897700,1.760897705078125,-8.977775573730469,13.861145973205566,-4.528656005859375
1789022120335822800,1.77082275390625,-4.574698448181152,14.034356117248535,-2.4347009658813477
1789022120345747700,1.780747802734375,2.3750810623168945,11.514756202697754,-2.729759693145752
1789022120355672600,1.790672607421875,4.158547878265381,7.051624774932861,-2.7063608169555664
1789022120365597700,1.80059765625,-6.811765193939209,7.638376235961914,-5.055636882781982
1789022120375522600,1.8105224609375,-5.61674165725708,7.091671466827393,-3.1393685340881348
1789022120385447400,1.820447509765625,-4.471228122711182,1.9539334774017334,-2.946462631225586
1789022120395372500,1.83037255859375,-1.2317458391189575,-0.43990087509155273,-1.5404624938964844
1789022120405297400,1.84029736328125,-4.545553684234619,-8.292886734008789,0.989471435546875
1789022120415222300,1.85022216796875,-8.758268356323242,-8.304520606994629,5.832984924316406
1789022120425147100,1.860147216796875,-6.555088520050049,3.6472902297973633,1.8200435638427734
1789022120435072300,1.870072265625,14.212867736816406,2.9528069496154785,-11.267948150634766
1789022120444997000,1.8799970703125,23.347122192382812,-19.859201431274414,-2.029050827026367
1789022120454922000,1.889921875,4.220816612243652,-9.295635223388672,4.198427200317383
1789022120464847000,1.89984716796875,-3.4058003425598145,-14.764230728149414,1.7958011627197266
1789022120474772000,1.90977197265625,-1.0416806936264038,-11.761038780212402,4.098363876342773
1789022120484696800,1.91969677734375,0.7564858198165894,-11.950312614440918,4.581294059753418
1789022120494622000,1.9296220703125,-1.1136728525161743,-9.498367309570312,4.515423774719238
1789022120504546800,1.939546875,-0.5936933755874634,-8.004095077514648,3.709609031677246
1789022120514471700,1.9494716796875,0.392547607421875,-6.737094879150391,1.3297767639160156
1789022120524396800,1.959396728515625,-0.7114100456237793,-8.138946533203125,-5.933341979980469
1789022120534321700,1.96932177734375,-0.9739184379577637,-6.893503665924072,-6.853983402252197
1789022120544246500,1.97924658203125,-1.1165542602539062,-6.665801525115967,-7.931025505065918
1789022120554171600,1.989171630859375,-0.19958019256591797,-6.527663230895996,-10.391805648803711
1789022120564096500,1.999096435546875,1.2482264041900635,-6.919675350189209,-10.084627151489258
1789022120574021400,2.009021484375,2.1106741428375244,-7.359326362609863,-11.092360496520996
1789022120583946500,2.018946533203125,1.158585786819458,-6.97394323348999,-8.855117797851562
1789022120593871400,2.028871337890625,3.6724939346313477,-5.598543643951416,-5.709209442138672
1789022120603796200,2.038796142578125,4.258210182189941,1.5610928535461426,12.788843154907227
1789022120613721300,2.048721435546875,0.7915321588516235,15.890790939331055,34.26104736328125
1789022120623646200,2.058646240234375,-4.612619400024414,3.418201446533203,14.57339859008789
1789022120633571000,2.068571044921875,-2.494298219680786,2.9675872325897217,6.5415358543396
1789022120643496200,2.07849609375,-0.35598862171173096,5.210464954376221,8.695964813232422
1789022120653421000,2.088421142578125,0.44303596019744873,5.773593425750732,6.729539394378662
1789022120663346000,2.098345947265625,-1.1448619365692139,6.216578960418701,4.5642781257629395
1789022120673270800,2.108270751953125,-1.8772435188293457,7.801017761230469,2.881748676300049
1789022120683196000,2.11819580078125,-3.52156138420105,7.266790390014648,-0.5225210189819336
1789022120693120800,2.128120849609375,-5.2010579109191895,7.831076145172119,-1.0929756164550781
1789022120703045600,2.138045654296875,-4.508213996887207,8.248096466064453,0.2449350357055664
1789022120712970800,2.147970703125,-4.099283695220947,7.628957271575928,-0.3049354553222656
1789022120722895600,2.1578955078125,-3.6684024333953857,8.552139282226562,2.1698451042175293
1789022120732820500,2.167820556640625,-5.4821343421936035,7.044125080108643,0.6496806144714355
1789022120742745600,2.17774560546875,-4.338015556335449,6.227541923522949,2.8002853393554688
1789022120752670500,2.18767041015625,-1.1257892847061157,5.13957405090332,3.9252896308898926
1789022120762595300,2.19759521484375,7.736276149749756,1.5715179443359375,1.8678679466247559
1789022120772520400,2.2075205078125,11.019886016845703,-0.7421259880065918,0.13991594314575195
1789022120782444800,2.21744482421875,3.4206135272979736,-0.8649530410766602,0.3331632614135742
1789022120792370000,2.227369873046875,-0.6070108413696289,-7.1676177978515625,-4.239472389221191
1789022120802295000,2.237294921875,-3.0908572673797607,-5.603707790374756,-4.76282262802124
1789022120812220000,2.247219970703125,1.0899989604949951,-5.98211669921875,-4.763864994049072
1789022120822145000,2.25714501953125,3.7818984985351562,-8.685823440551758,-6.634152889251709
1789022120832070000,2.26706982421875,0.45386314392089844,-6.2046709060668945,-4.706938743591309
1789022120841995000,2.2769951171875,0.8097532987594604,-3.7387490272521973,-2.6266491413116455
1789022120851920000,2.286919921875,0.7190295457839966,-2.540961742401123,-1.8498597145080566
1789022120861845000,2.296844970703125,-0.027947664260864258,-3.0019497871398926,-2.4082274436950684
1789022120871769900,2.306769775390625,-1.1140003204345703,-4.288856029510498,-3.5312564373016357
1789022120881695000,2.316695068359375,-1.8434233665466309,-5.775221824645996,-4.235891819000244
1789022120891619800,2.326619873046875,-1.3252389430999756,-6.8665289878845215,-4.012005805969238
1789022120901544700,2.336544677734375,0.9247146844863892,-7.7025556564331055,-3.1413495540618896
1789022120911469800,2.3464697265625,2.777984619140625,-8.3081636428833,-1.6395049095153809
1789022120921394700,2.356394775390625,2.4230356216430664,-6.523882865905762,0.03074026107788086
1789022120931319600,2.366319580078125,3.569826364517212,-5.685189723968506,-1.5799980163574219
1789022120941244700,2.37624462890625,2.9197585582733154,-2.742311954498291,-1.468907356262207
1789022120951169500,2.38616943359375,2.098015546798706,0.04467344284057617,1.9615745544433594
1789022120961094400,2.396094482421875,0.8069050312042236,1.3069467544555664,3.808845043182373
1789022120971019500,2.40601953125,-1.5514246225357056,3.5564184188842773,6.047699451446533
1789022120980944400,2.4159443359375,-3.7175400257110596,5.176229000091553,5.268290042877197
1789022120990869000,2.425868896484375,-5.931657791137695,7.95072078704834,5.87730073928833
1789022121000793600,2.435793701171875,-5.191626071929932,8.21815299987793,4.237095832824707
1789022121010718200,2.44571826171875,-4.7652692794799805,11.284785270690918,5.094210624694824
1789022121020642800,2.455642822265625,-4.871039390563965,11.718737602233887,5.050165176391602
1789022121030567400,2.4655673828125,-2.175372362136841,11.442865371704102,1.2716946601867676
1789022121040491800,2.47549169921875,-4.588879108428955,12.472238540649414,2.1041955947875977
1789022121050416400,2.48541650390625,-4.7670183181762695,12.321622848510742,4.152673721313477
1789022121060341000,2.495341064453125,-6.582535266876221,13.143311500549316,5.440091609954834
1789022121070265600,2.505265625,-6.773986339569092,11.874673843383789,6.039311408996582
1789022121080190200,2.515190185546875,-1.0773589611053467,8.058785438537598,0.2587699890136719
1789022121090115600,2.525115478515625,0.9896498918533325,5.588467597961426,9.16804027557373
1789022121100041000,2.535041015625,7.305903911590576,3.047555923461914,8.346392631530762
1789022121109966300,2.54496630859375,3.473017930984497,-4.803675651550293,1.6585173606872559
1789022121119891700,2.5548916015625,2.243870973587036,-6.557363033294678,0.9224963188171387
1789022121129817000,2.564817138671875,0.9419295787811279,-8.277238845825195,-1.79144287109375
1789022121139742500,2.574742431640625,2.1684327125549316,-10.964616775512695,-6.008327484130859
1789022121149667800,2.584667724609375,5.1067399978637695,-10.80562973022461,-6.342687129974365
1789022121159593200,2.59459326171875,3.2341322898864746,-5.683598518371582,-1.6003766059875488
1789022121169518600,2.6045185546875,1.8019886016845703,-3.8181777000427246,-0.25838136672973633
1789022121179444000,2.61444384765625,-1.217456579208374,0.6135530471801758,2.9751758575439453
1789022121189368800,2.624368896484375,-1.65708589553833,-6.303448677062988,0.35776662826538086
1789022121199293700,2.634293701171875,-2.4545884132385254,-14.292484283447266,-11.373174667358398
1789022121209218800,2.64421875,0.26241183280944824,-12.307615280151367,-14.094427108764648
1789022121219143700,2.654143798828125,-0.7457985877990723,-5.98466682434082,-4.819329261779785
1789022121229068500,2.664068603515625,-0.47434163093566895,-4.553072452545166,-1.5102243423461914
1789022121238993700,2.67399365234375,-0.7062456607818604,-5.262139797210693,-1.7954974174499512
1789022121248918500,2.68391845703125,-1.0278229713439941,-4.783584117889404,-2.5772705078125
1789022121258843400,2.693843505859375,-0.42755961418151855,-2.98008394241333,-0.7894535064697266
1789022121268768500,2.7037685546875,-0.5645554065704346,-1.794377326965332,0.7623648643493652
1789022121278693400,2.713693359375,-1.2032742500305176,-1.3309698104858398,2.58949613571167
1789022121288618200,2.7236181640625,0.20128917694091797,0.5950717926025391,3.931446075439453
1789022121298543400,2.73354345703125,-0.5667209625244141,1.4436101913452148,4.676953315734863
1789022121308468500,2.743468505859375,-0.16108036041259766,1.744518756866455,4.578989028930664
1789022121318393300,2.753393310546875,-0.013239145278930664,3.8709073066711426,2.291757106781006
1789022121328318500,2.763318359375,-0.16288018226623535,3.3221380710601807,1.1993279457092285
1789022121338243300,2.773243408203125,-1.7618913650512695,1.7031464576721191,-0.2641277313232422
1789022121348168400,2.78316845703125,-2.5980288982391357,0.9055390357971191,-0.9709048271179199
1789022121358093300,2.79309326171875,-3.26486873626709,-0.9086284637451172,-0.3618502616882324
1789022121368018400,2.803018310546875,-0.3843693733215332,0.3809084892272949,-0.5844850540161133
1789022121377943300,2.812943359375,-1.4006900787353516,-0.43930625915527344,-2.135848045349121
1789022121387868400,2.822868408203125,-0.5337636470794678,0.15010356903076172,-2.0871267318725586
1789022121397793300,2.832793212890625,-0.6071996688842773,-0.974553108215332,-2.1701292991638184
1789022121407718400,2.842718505859375,-0.6857976913452148,-2.3947019577026367,-1.7411737442016602
1789022121417643300,2.852643310546875,-0.9771358966827393,-1.8009653091430664,-2.570664405822754
1789022121427568400,2.862568359375,-0.12483859062194824,-2.4304308891296387,-3.0463194847106934
1789022121437493200,2.8724931640625,0.9553892612457275,-0.5843906402587891,-2.816842555999756
1789022121447418400,2.88241845703125,2.2106337547302246,4.162356376647949,-1.109997272491455
1789022121457343200,2.89234326171875,2.3294525146484375,6.976498603820801,-1.8207402229309082
1789022121467268400,2.902268310546875,1.6379878520965576,6.836757183074951,-2.012251377105713
1789022121477193500,2.912193359375,0.016049861907958984,4.714400291442871,-3.491288661956787
1789022121487117800,2.922117919921875,0.25597524642944336,6.241943359375,-4.291446208953857
1789022121497042400,2.93204248046875,3.786250114440918,10.885042190551758,-4.558061599731445
1789022121506967000,2.941967041015625,3.0666379928588867,17.597389221191406,-1.2124271392822266
1789022121516891600,2.9518916015625,-1.532412052154541,22.841163635253906,-2.1355199813842773
1789022121526816300,2.961816162109375,-3.014261245727539,23.528310775756836,-4.7440996170043945
1789022121536740900,2.971740966796875,-7.110312461853027,25.55575942993164,-3.1162900924682617
1789022121546665500,2.98166552734375,-8.660551071166992,19.26915740966797,-3.2665505409240723
1789022121556590000,2.991590087890625,2.932645320892334,12.686897277832031,-5.306856155395508
1789022121566514700,3.0015146484375,6.92750358581543,-27.087963104248047,-8.177576065063477
1789022121576439300,3.011439208984375,7.465353012084961,-1.873375415802002,1.5445060729980469
1789022121586364700,3.02136474609375,-4.381790637969971,3.2747278213500977,1.1024484634399414
1789022121596289800,3.031289794921875,-12.283034324645996,-33.388267517089844,12.549079895019531
1789022121606215200,3.041215087890625,-5.898919105529785,-64.22041320800781,22.263858795166016
1789022121616140500,3.051140625,-2.6450741291046143,-10.331842422485352,7.948368072509766
1789022121626066000,3.06106591796875,5.699502944946289,-4.026305198669434,3.3786916732788086
1789022121635991300,3.0709912109375,-1.2420709133148193,-9.27853012084961,4.201399803161621
1789022121645916700,3.080916748046875,-1.9074623584747314,-6.368774890899658,1.4512200355529785
1789022121655842000,3.090842041015625,-1.2673909664154053,-4.715385437011719,-2.5639734268188477
1789022121665767400,3.100767333984375,-1.6364662647247314,-3.41563081741333,-2.821291923522949
1789022121675692800,3.11069287109375,-1.3608582019805908,-2.2142043113708496,-2.557339668273926
1789022121685618000,3.120617919921875,-1.475144624710083,-1.1372623443603516,-1.2439498901367188
1789022121695542800,3.130542724609375,-1.1985700130462646,0.04697275161743164,0.007693290710449219
1789022121705468000,3.140468017578125,-0.5138251781463623,1.0748615264892578,0.08328962326049805
1789022121715392800,3.150392822265625,-0.2612433433532715,2.0667848587036133,0.4264988899230957
1789022121725318000,3.16031787109375,-1.7310469150543213,2.5417957305908203,1.1111044883728027
1789022121735242800,3.17024267578125,-2.55483341217041,3.119999647140503,2.244992256164551
1789022121745168000,3.18016796875,-1.9379442930221558,3.346890926361084,2.7960896492004395
1789022121755092700,3.1900927734375,0.1919248104095459,0.9666504859924316,3.1428518295288086
1789022121765017900,3.200017822265625,0.46000993251800537,-1.176626205444336,1.472404956817627
1789022121774942700,3.209942626953125,1.1380360126495361,-1.899162769317627,-0.6681852340698242
1789022121784867800,3.219867919921875,-0.22826266288757324,1.6136283874511719,-2.448005199432373
1789022121794793000,3.22979296875,-1.6572669744491577,2.503906726837158,-2.7298531532287598
1789022121804717800,3.2397177734375,-3.618809938430786,2.428373098373413,-1.3615241050720215
1789022121814643000,3.249642822265625,-5.077768325805664,1.6277923583984375,0.6609025001525879
1789022121824567800,3.25956787109375,-4.426810264587402,0.6466050148010254,1.9767160415649414
1789022121834493000,3.269492919921875,-2.0332531929016113,0.38779163360595703,4.095832347869873
1789022121844417800,3.279417724609375,0.24888551235198975,-0.2790074348449707,5.333777904510498
1789022121854343000,3.289343017578125,1.2610762119293213,-1.7013659477233887,3.817991256713867
1789022121864267800,3.299267822265625,-0.17528259754180908,-3.076631546020508,5.237486839294434
1789022121874193000,3.30919287109375,-0.7608563899993896,-4.299585342407227,4.749697208404541
1789022121884117800,3.31911767578125,-3.918632984161377,-3.947939395904541,3.8621163368225098
1789022121894043000,3.32904296875,-6.2599897384643555,-3.164724349975586,1.4747862815856934
1789022121903967700,3.3389677734375,-4.302325248718262,-1.4075493812561035,0.6598868370056152
1789022121913892900,3.348892822265625,-2.002838134765625,0.17321014404296875,0.41811513900756836
1789022121923817700,3.358817626953125,-1.0730531215667725,1.5108599662780762,0.29912853240966797
1789022121933742800,3.368742919921875,0.1020209789276123,1.984618902206421,0.14318037033081055
1789022121943667700,3.378667724609375,1.122402548789978,0.6150150299072266,0.02823162078857422
1789022121953592800,3.3885927734375,1.8342742919921875,0.0334925651550293,0.6628704071044922
1789022121963518000,3.39851806640625,0.13251614570617676,-0.42815542221069336,1.5083951950073242
1789022121973442800,3.40844287109375,-0.8031556606292725,-0.738858699798584,0.6583633422851562
1789022121983367400,3.418367431640625,-1.2743196487426758,-1.638038158416748,-1.90191650390625
1789022121993292000,3.4282919921875,-0.5982813835144043,-1.5734639167785645,-4.179013252258301
1789022122003216600,3.438216552734375,0.16109609603881836,-1.0243291854858398,-5.379105567932129
1789022122013141500,3.4481416015625,0.21825075149536133,0.6478796005249023,-4.790452480316162
1789022122023066000,3.458066162109375,0.14197659492492676,2.3098440170288086,-3.818570613861084
1789022122032990700,3.46799072265625,1.0155380964279175,2.5520410537719727,-3.5004801750183105
1789022122042915300,3.477915283203125,3.089207172393799,2.1424901485443115,-2.655789852142334
1789022122052840000,3.48783984375,4.2354512214660645,1.8478209972381592,-1.5463790893554688
1789022122062764500,3.4977646484375,3.7298994064331055,1.2397785186767578,-0.9341578483581543
1789022122072689200,3.507689208984375,1.9247856140136719,0.708266019821167,-1.2124857902526855
1789022122082613800,3.51761376953125,-0.15524840354919434,0.5719306468963623,-2.0657200813293457
1789022122092538400,3.527538330078125,-1.6578192710876465,0.679476261138916,-3.063714027404785
1789022122102463000,3.537462890625,-2.0917842388153076,0.4081079959869385,-3.374073028564453
1789022122112387800,3.547387939453125,-1.1850526332855225,0.12262296676635742,-3.1126255989074707
1789022122122312400,3.5573125,0.5068528652191162,-0.11260223388671875,-2.713496685028076
1789022122132237000,3.567237060546875,1.1174359321594238,0.07835698127746582,-2.716339111328125
1789022122142161700,3.57716162109375,1.1161640882492065,0.4652690887451172,-3.0242223739624023
1789022122152086300,3.587086181640625,1.0832934379577637,0.1674189567565918,-4.522398471832275
1789022122162011000,3.597010986328125,0.06370949745178223,1.6185972690582275,-4.385035514831543
1789022122171935500,3.606935546875,-0.8503298759460449,2.283205509185791,-4.022945404052734
1789022122181860000,3.616860107421875,-1.1568477153778076,2.5271341800689697,-3.077751636505127
1789022122191784700,3.62678466796875,-0.8538191318511963,2.333223819732666,-2.2158637046813965
1789022122201709600,3.63670947265625,-0.14850378036499023,1.5038716793060303,-1.6876578330993652
1789022122211634200,3.64663427734375,0.2458341121673584,0.5205936431884766,-1.5069479942321777
1789022122221558800,3.656558837890625,-0.4038665294647217,0.10938119888305664,-1.3693208694458008
1789022122231483400,3.6664833984375,-1.6336250305175781,0.1509990692138672,-1.0516204833984375
1789022122241408000,3.676407958984375,-2.3124046325683594,0.4108309745788574,-0.7298851013183594
1789022122251332600,3.68633251953125,-1.845566987991333,0.5090222358703613,-0.8584604263305664
1789022122261257200,3.69625732421875,-1.1997349262237549,0.5743904113769531,-1.2656254768371582
1789022122271181800,3.706181884765625,-0.5512521266937256,0.6911225318908691,-1.2845802307128906
1789022122281106400,3.7161064453125,-0.19005727767944336,0.8824777603149414,-1.3089923858642578
1789022122291032800,3.72603271484375,-0.1671004295349121,0.9931125640869141,-0.9359688758850098
1789022122300959000,3.735958984375,0.10334920883178711,0.9694795608520508,-0.5833907127380371
1789022122310885000,3.745885009765625,0.4783802032470703,0.946986198425293,-0.4185299873352051
1789022122320811300,3.755811279296875,0.00494837760925293,0.8990416526794434,-0.5576825141906738
1789022122330737400,3.7657373046875,-0.46053004264831543,0.7950148582458496,-0.43458032608032227
1789022122340663800,3.775663818359375,-0.7937960624694824,0.7783045768737793,-0.15451860427856445
1789022122350590000,3.78558984375,-0.4981393814086914,0.7193984985351562,0.19159698486328125
1789022122360516000,3.79551611328125,-0.0836954116821289,0.47940826416015625,0.26838064193725586
1789022122370442200,3.805442138671875,-0.6328761577606201,0.5028910636901855,0.8527398109436035
1789022122380368600,3.81536865234375,-0.6352458000183105,0.499021053314209,1.3300108909606934
1789022122390293500,3.82529345703125,-0.5140945911407471,0.29743146896362305,1.2550420761108398
1789022122400218600,3.835218505859375,-0.39777565002441406,0.07084274291992188,1.1640739440917969
1789022122410143500,3.8451435546875,-0.4239327907562256,0.2041001319885254,0.9611234664916992
1789022122420068600,3.855068603515625,0.13680338859558105,0.016126632690429688,0.3505063056945801
1789022122429993500,3.864993408203125,0.5352362394332886,0.13180065155029297,0.20308685302734375
1789022122439918600,3.874918701171875,0.047069668769836426,0.45949840545654297,0.5273771286010742
1789022122449843500,3.884843505859375,-0.6677466630935669,0.43894052505493164,0.8125600814819336
1789022122459768600,3.8947685546875,-1.448642373085022,1.2532873153686523,2.1856870651245117
1789022122469693400,3.904693359375,-1.689767837524414,0.9616856575012207,3.4453539848327637
1789022122479618600,3.91461865234375,-0.5588680505752563,0.2501368522644043,2.812033176422119
1789022122489543400,3.92454345703125,-1.0094883441925049,-0.2028355598449707,2.513782024383545
1789022122499468500,3.934468505859375,-1.1689298152923584,-0.47913455963134766,2.5561561584472656
1789022122509393400,3.944393310546875,-1.2138515710830688,-0.5942749977111816,2.5123214721679688
1789022122519318500,3.954318603515625,-1.3569293022155762,-0.40765953063964844,3.167544364929199
1789022122529243400,3.964243408203125,-0.7295420169830322,-0.4827404022216797,2.819535732269287
1789022122539168500,3.97416845703125,-0.6369457244873047,-0.26401853561401367,2.8357977867126465
1789022122549093600,3.98409375,-0.8916360139846802,0.030892372131347656,3.218611717224121
1789022122559018500,3.9940185546875,-0.4445223808288574,0.17763376235961914,2.7731804847717285
1789022122568943600,4.003943603515625,-0.7991572618484497,0.25071048736572266,1.9114465713500977
1789022122578868500,4.013868408203125,-0.8583095073699951,0.42377662658691406,1.3200950622558594
1789022122588793600,4.023793701171875,-1.1417111158370972,0.3680906295776367,1.0575885772705078
1789022122598718700,4.03371875,-1.649522304534912,0.036127567291259766,1.2102131843566895
1789022122608643600,4.0436435546875,-1.9606566429138184,-0.1999073028564453,1.5997967720031738
1789022122618568700,4.053568603515625,-1.837338924407959,-0.5595378875732422,2.1436753273010254
1789022122628493800,4.063493896484375,-1.3761298656463623,-0.7401056289672852,2.549168586730957
1789022122638419000,4.0734189453125,-0.904228925704956,-0.865473747253418,3.070822238922119
1789022122648343800,4.08334375,-1.0361902713775635,-0.9607620239257812,3.752847194671631
1789022122658269000,4.09326904296875,-1.3863945007324219,-0.5609426498413086,4.019147872924805
1789022122668194000,4.103194091796875,-0.6180076599121094,0.16447162628173828,3.2391319274902344
1789022122678119000,4.113118896484375,0.5016564130783081,0.5238094329833984,2.0493063926696777
1789022122688043800,4.123043701171875,1.7654625177383423,0.6493968963623047,0.8634982109069824
1789022122697968400,4.132968505859375,2.325270891189575,0.6840004920959473,0.5560398101806641
1789022122707893000,4.14289306640625,1.8304176330566406,1.0959205627441406,0.9315023422241211
1789022122717817900,4.15281787109375,0.9193171262741089,1.2574357986450195,1.0387611389160156
1789022122727742500,4.162742431640625,0.3725850582122803,0.9199228286743164,0.8493671417236328
1789022122737667000,4.1726669921875,0.23429489135742188,0.591763973236084,0.6775426864624023
1789022122747592000,4.182592041015625,0.06288313865661621,0.37906742095947266,0.860957145690918
1789022122757516500,4.1925166015625,-0.1785130500793457,0.44272279739379883,1.205014705657959
1789022122767441200,4.202441162109375,-0.44745826721191406,0.7052097320556641,1.9250140190124512
1789022122777366000,4.212365966796875,-0.20889759063720703,0.7277369499206543,2.3815507888793945
1789022122787291400,4.22229150390625,0.6013858318328857,0.3325533866882324,2.237499713897705
1789022122797216500,4.232216552734375,1.3881858587265015,-0.19715309143066406,1.836094856262207
1789022122807142000,4.242141845703125,2.0020945072174072,-0.7104668617248535,1.8577609062194824
1789022122817067300,4.2520673828125,1.6582993268966675,-1.2392659187316895,1.90016508102417
1789022122826992600,4.26199267578125,1.455783486366272,-1.4902877807617188,2.174009323120117
1789022122836918000,4.27191796875,0.594641923904419,-1.270151138305664,1.869443416595459
1789022122846843400,4.281843505859375,-0.00988006591796875,-0.6991052627563477,1.2046184539794922
1789022122856768800,4.291768798828125,-1.2427775859832764,0.058165550231933594,0.22566509246826172
1789022122866694100,4.301694091796875,-2.410616159439087,0.33671998977661133,0.07453203201293945
1789022122876619500,4.31161962890625,-2.0938665866851807,0.14802885055541992,0.1947178840637207
1789022122886544600,4.321544677734375,-0.144974946975708,-0.15418767929077148,0.47104549407958984
1789022122896469800,4.3314697265625,1.8079181909561157,-0.43072938919067383,1.1791777610778809
1789022122906394600,4.34139453125,2.6870758533477783,-0.6744942665100098,1.8202776908874512
1789022122916319700,4.35131982421875,2.4238271713256836,-1.0388174057006836,2.055426597595215
1789022122926244900,4.361244873046875,1.169464349746704,-1.346043586730957,2.324110984802246
1789022122936170000,4.371169921875,0.1354689598083496,-1.6240229606628418,2.213087558746338
1789022122946094800,4.3810947265625,-0.16918420791625977,-1.9172697067260742,1.1327533721923828
1789022122956020000,4.39102001953125,1.1937370300292969,-1.6496829986572266,-0.16657733917236328
1789022122965945000,4.400945068359375,2.390704870223999,-1.278707504272461,-1.2625393867492676
1789022122975870000,4.410869873046875,2.843282699584961,-0.6948137283325195,-1.8245844841003418
1789022122985795000,4.420795166015625,2.658712387084961,-0.031870365142822266,-2.238933563232422
1789022122995720200,4.43072021484375,2.1152868270874023,0.3177366256713867,-2.8057847023010254
1789022123005645000,4.44064501953125,2.5715551376342773,0.6697070598602295,-3.1761231422424316
1789022123015570200,4.450570068359375,2.7616727352142334,0.7157895565032959,-4.110518455505371
1789022123025495000,4.4604951171875,2.2838306427001953,0.6492924690246582,-4.858574867248535
1789022123035420200,4.470420166015625,1.387911081314087,0.606619119644165,-4.689657688140869
1789022123045345000,4.480344970703125,1.6420087814331055,0.71968674659729,-4.000394821166992
1789022123055270100,4.490270263671875,2.6063690185546875,0.4415323734283447,-4.054895877838135
1789022123065195000,4.500195068359375,2.528740167617798,0.388012170791626,-4.583754539489746
1789022123075120000,4.5101201171875,1.764728307723999,0.816643238067627,-4.895915508270264
1789022123085045200,4.520045166015625,0.8606538772583008,1.1738979816436768,-4.924065113067627
1789022123094970000,4.52997021484375,0.547269344329834,1.3994994163513184,-4.691854953765869
1789022123104895200,4.539895263671875,1.1416091918945312,1.47892427444458,-4.472714424133301
1789022123114820400,4.5498203125,1.2942285537719727,1.3890340328216553,-4.249756336212158
1789022123124745200,4.5597451171875,0.8579592704772949,1.2199451923370361,-3.9038844108581543
1789022123134670300,4.56967041015625,0.6395106315612793,1.1479573249816895,-3.41458797454834
1789022123144595500,4.579595458984375,0.5682013034820557,1.0721330642700195,-2.7574310302734375
1789022123154520600,4.5895205078125,0.5046546459197998,1.0054311752319336,-1.9572501182556152
1789022123164445400,4.599445556640625,0.6227602958679199,0.8299715518951416,-1.3751745223999023
1789022123174370600,4.60937060546875,1.0102224349975586,0.555483341217041,-1.2883243560791016
1789022123184295400,4.61929541015625,1.1013648509979248,0.4171905517578125,-1.27970552444458
1789022123194220000,4.629219970703125,0.7821769714355469,0.30481529235839844,-1.105179786682129
1789022123204145000,4.639144775390625,0.19293904304504395,0.3710646629333496,-0.9359335899353027
1789022123214069500,4.649069580078125,0.06620025634765625,0.4763803482055664,-0.4076704978942871
1789022123223994400,4.658994384765625,-0.20771551132202148,0.44851255416870117,-0.18865537643432617
1789022123233919000,4.6689189453125,0.2617056369781494,0.20363378524780273,-0.09629631042480469
1789022123243843800,4.67884375,0.5320143699645996,-0.08918094635009766,0.14415597915649414
1789022123253768400,4.6887685546875,0.2877979278564453,-0.4188833236694336,0.8830704689025879
1789022123263693300,4.698693359375,-0.22793865203857422,-0.6276984214782715,1.6221623420715332
1789022123273618000,4.708617919921875,-0.6742463111877441,-0.9329047203063965,2.3491272926330566
1789022123283543300,4.718543212890625,0.13348746299743652,-1.624284267425537,2.389918327331543
1789022123293468700,4.72846875,-0.1758437156677246,-2.1458797454833984,2.2560157775878906
1789022123303394000,4.73839404296875,0.2520630359649658,-2.241553783416748,1.8077564239501953
1789022123313319400,4.7483193359375,0.6993709802627563,-2.2011356353759766,1.4409174919128418
1789022123323244800,4.758244873046875,-0.563122034072876,-1.3998994827270508,1.8881254196166992
1789022123333170200,4.768170166015625,-0.9574973583221436,-0.9458093643188477,2.0612258911132812
1789022123343095600,4.778095458984375,-1.470249891281128,-0.7143659591674805,2.3695268630981445
1789022123353021000,4.78802099609375,-1.2046594619750977,-0.7054891586303711,2.9890289306640625
1789022123362946300,4.7979462890625,-1.1945092678070068,-1.1645197868347168,3.763650417327881
1789022123372871700,4.80787158203125,0.5193803310394287,-1.4630908966064453,3.946709632873535
1789022123382796800,4.817796875,0.4894798994064331,-1.652402400970459,2.8956594467163086
1789022123392721700,4.8277216796875,-1.3717694282531738,-1.111809253692627,2.934816837310791
1789022123402646800,4.837646728515625,-0.5704755783081055,-0.2599678039550781,3.205338954925537
1789022123412572000,4.847572021484375,-0.005303502082824707,0.4592013359069824,3.327408790588379
1789022123422497000,4.8574970703125,-0.013044118881225586,1.2316951751708984,3.1053552627563477
1789022123432422000,4.867421875,0.5397099256515503,1.772932529449463,2.2164649963378906
1789022123442347000,4.877346923828125,0.7349357604980469,2.0286498069763184,1.2176175117492676
1789022123452272000,4.887272216796875,0.5676325559616089,1.820246696472168,0.2355027198791504
1789022123462197000,4.897197021484375,0.19814038276672363,1.3930773735046387,-0.3463773727416992
1789022123472122000,4.9071220703125,-0.27038121223449707,0.7943458557128906,-0.3481111526489258
1789022123482047000,4.917046875,-0.304168701171875,0.13802194595336914,-0.10698938369750977
1789022123491971800,4.926971923828125,0.07473587989807129,-0.5562920570373535,-0.017010211944580078
1789022123501897000,4.93689697265625,-0.3754456043243408,-0.9793601036071777,0.5126638412475586
1789022123511822000,4.946822021484375,-0.49175024032592773,-1.1196250915527344,1.2301349639892578
1789022123521747200,4.956747314453125,-0.392972469329834,-1.2461609840393066,1.7311253547668457
1789022123531672000,4.966672119140625,-0.35863423347473145,-1.1969494819641113,2.143810272216797
1789022123541597200,4.97659716796875,-0.3220245838165283,-0.8340673446655273,2.535027027130127
1789022123551522300,4.986522216796875,-0.055370330810546875,-0.3823280334472656,2.642303466796875
1789022123561447400,4.996447509765625,-0.36763811111450195,-0.0956106185913086,2.9538345336914062
1789022123571372300,5.006372314453125,-0.590137243270874,-0.17092609405517578,3.3445067405700684
1789022123581297400,5.01629736328125,-0.25345873832702637,-0.2733955383300781,3.1210098266601562
1789022123591222500,5.026222412109375,0.48947906494140625,-0.33800792694091797,2.3194313049316406
1789022123601147600,5.036147705078125,0.3052501678466797,-0.21106386184692383,1.3981342315673828
1789022123611072500,5.046072509765625,-0.0064258575439453125,-0.20260286331176758,0.23012971878051758
1789022123620997600,5.05599755859375,-0.02884078025817871,-0.20598697662353516,-0.3147726058959961
1789022123630922800,5.0659228515625,0.3004680871963501,0.12795162200927734,-0.23718643188476562
1789022123640847600,5.07584765625,0.7479027509689331,0.4609718322753906,-0.1603832244873047
1789022123650772700,5.085772705078125,0.5348984003067017,0.5107431411743164,-0.13934898376464844
1789022123660697900,5.09569775390625,-0.03523969650268555,0.21907329559326172,-0.20882701873779297
1789022123670623000,5.105623046875,-0.49596142768859863,-0.4337177276611328,-0.07279586791992188
1789022123680547800,5.1155478515625,-0.92645263671875,-0.5653362274169922,0.9306349754333496
1789022123690472700,5.12547265625,-0.438762903213501,-0.5884237289428711,1.9613819122314453
1789022123700397300,5.135397216796875,0.011482954025268555,-0.8156018257141113,2.3990249633789062
1789022123710322200,5.145322265625,0.49843740463256836,-1.0827693939208984,2.0915541648864746
1789022123720246800,5.155246826171875,0.6224502325057983,-1.2591090202331543,1.468355655670166
1789022123730171600,5.165171630859375,0.8250135183334351,-1.1992158889770508,0.8722386360168457
1789022123740096300,5.17509619140625,1.1010633707046509,-0.9916620254516602,0.23417425155639648
1789022123750021000,5.185021240234375,1.333728551864624,-0.7321047782897949,-0.6806693077087402
1789022123759946000,5.194946044921875,0.8148863315582275,-0.697110652923584,-1.4461727142333984
1789022123769870600,5.20487060546875,0.08255696296691895,-0.6327195167541504,-1.1538491249084473
1789022123779795500,5.21479541015625,-0.618168830871582,-0.3311729431152344,-0.5626368522644043
1789022123789720600,5.224720458984375,-1.1068453788757324,0.32203054428100586,1.1410999298095703
1789022123799646000,5.23464599609375,-1.9508256912231445,0.30441713333129883,1.4431982040405273
1789022123809571300,5.2445712890625,-1.7942345142364502,0.2642698287963867,1.8121509552001953
1789022123819496700,5.25449658203125,-1.1062719821929932,0.013841629028320312,2.303093433380127
1789022123829422000,5.264422119140625,0.10091257095336914,-0.17914295196533203,2.2522077560424805
1789022123839347500,5.274347412109375,1.0631277561187744,-0.31531715393066406,1.9427647590637207
1789022123849272800,5.28427294921875,1.5368776321411133,-0.411895751953125,1.1368260383605957
1789022123859198200,5.2941982421875,1.7023661136627197,-0.7587461471557617,0.08318758010864258
1789022123869123600,5.30412353515625,0.8050514459609985,-1.1969857215881348,-0.7667016983032227
1789022123879049000,5.314049072265625,-0.2492201328277588,-1.1827149391174316,-0.9123663902282715
1789022123888974000,5.32397412109375,-1.0524919033050537,-0.8242020606994629,-0.8977069854736328
1789022123898899200,5.333899169921875,-1.30269455909729,-0.35405826568603516,-0.7418127059936523
1789022123908824000,5.343823974609375,-0.7815713882446289,-0.14593076705932617,-0.8814687728881836
1789022123918749200,5.353749267578125,0.18380117416381836,-0.2772059440612793,-1.045081615447998
1789022123928674300,5.36367431640625,1.2965819835662842,-0.4943242073059082,-1.373201847076416
1789022123938599200,5.37359912109375,1.9823229312896729,-0.4063568115234375,-1.54569673538208
1789022123948524300,5.383524169921875,2.028567314147949,-0.28450679779052734,-1.986928939819336
1789022123958449400,5.393449462890625,1.5233172178268433,0.02824878692626953,-2.4850616455078125
1789022123968374500,5.40337451171875,1.0042611360549927,0.3860511779785156,-2.9581170082092285
1789022123978299400,5.41329931640625,0.643423318862915,0.5161683559417725,-3.3875350952148438
1789022123988224500,5.423224609375,0.85968017578125,0.40616774559020996,-3.59822416305542
1789022123998149600,5.433149658203125,0.8727036714553833,0.4158787727355957,-3.409181594848633
1789022124008074800,5.44307470703125,0.6794085502624512,0.340057373046875,-3.264965057373047
1789022124017999600,5.45299951171875,0.11731195449829102,0.24953842163085938,-3.198134422302246
1789022124027924700,5.4629248046875,0.17289090156555176,-0.10365867614746094,-3.379621982574463
1789022124037849900,5.472849853515625,0.7806601524353027,0.04731178283691406,-3.4311938285827637
1789022124047775000,5.48277490234375,0.8204342126846313,0.7199373245239258,-3.0627574920654297
1789022124057699800,5.492699951171875,0.3918113708496094,1.1530277729034424,-2.9495272636413574
1789022124067625000,5.502625,0.4779059886932373,1.1943621635437012,-2.890775203704834
1789022124077550000,5.512550048828125,0.175886869430542,1.2737648487091064,-2.547452449798584
1789022124087475200,5.52247509765625,-0.5738809108734131,1.265261173248291,-1.861727237701416
1789022124097400000,5.532400146484375,-0.5126996040344238,0.8430943489074707,-1.3499422073364258
1789022124107325200,5.5423251953125,0.1139986515045166,0.31932830810546875,-1.5234122276306152
1789022124117250300,5.552250244140625,0.10079813003540039,0.054653167724609375,-1.9018683433532715
1789022124127175200,5.562175048828125,-0.14183306694030762,0.149261474609375,-2.1108574867248535
1789022124137100300,5.572100341796875,-0.43875861167907715,0.4102773666381836,-1.9544882774353027
1789022124147025400,5.582025390625,-0.475083589553833,0.6246185302734375,-1.6258859634399414
1789022124156950500,5.591950439453125,-0.20193052291870117,0.6807012557983398,-1.5282182693481445
1789022124166875400,5.60187548828125,-0.03803443908691406,0.6219420433044434,-1.6852831840515137
1789022124176800500,5.611800537109375,0.015356302261352539,0.4103827476501465,-1.5810809135437012
1789022124186725400,5.621725341796875,-0.16908788681030273,0.26195240020751953,-1.410813331604004
1789022124196650200,5.631650146484375,-0.5487077236175537,0.1479806900024414,-0.8259596824645996
1789022124206574800,5.641574951171875,-0.356060266494751,-0.1417374610900879,-0.2381734848022461
1789022124216499700,5.651499755859375,-0.2734823226928711,-0.3363661766052246,0.35362911224365234
1789022124226424600,5.661424560546875,-0.2649705410003662,-0.6955695152282715,0.36679506301879883
1789022124236349200,5.67134912109375,-0.17593693733215332,-1.0697317123413086,0.16109657287597656
1789022124246274000,5.681274169921875,-0.4762634038925171,-1.1823582649230957,0.056485652923583984
1789022124256199000,5.691198974609375,-0.5273008346557617,-1.1123218536376953,0.08574628829956055
1789022124266123800,5.701123779296875,-0.3600829839706421,-0.865666389465332,0.10563325881958008
1789022124276048400,5.71104833984375,0.2823702096939087,-0.7333407402038574,-0.17556285858154297
1789022124285973800,5.720973876953125,0.2362370491027832,-0.7250099182128906,-0.1193094253540039
1789022124295899100,5.730899169921875,-0.03206789493560791,-0.6573867797851562,0.48139476776123047
1789022124305824500,5.740824462890625,-0.24068474769592285,-0.609311580657959,1.294661045074463
1789022124315749600,5.75074951171875,-0.523673415184021,-0.782656192779541,2.2201242446899414
1789022124325675000,5.760675048828125,-0.30522143840789795,-0.9119701385498047,2.782435417175293
1789022124335600400,5.770600341796875,-0.6469607353210449,-1.22210693359375,2.5897040367126465
1789022124345525800,5.78052587890625,-0.5361361503601074,-1.1912317276000977,2.250275135040283
1789022124355451000,5.790450927734375,-0.41590237617492676,-0.6770963668823242,2.1221585273742676
1789022124365376300,5.800376220703125,0.12175941467285156,-0.2711668014526367,1.5982952117919922
1789022124375301600,5.810301513671875,0.2289196252822876,-0.0996699333190918,1.081620216369629
1789022124385226800,5.820226806640625,-0.3812206983566284,0.10551309585571289,1.0979266166687012
1789022124395151600,5.830151611328125,-0.5409752130508423,0.14424514770507812,1.1690244674682617
1789022124405076700,5.84007666015625,-0.9831110239028931,0.10571956634521484,1.9096007347106934
1789022124415001900,5.850001953125,-0.7645230293273926,-0.28310251235961914,2.299726963043213
1789022124424926700,5.8599267578125,-0.9663231372833252,-0.7314286231994629,2.8488969802856445
1789022124434851800,5.869851806640625,-1.2175511121749878,-1.1292614936828613,2.941959857940674
1789022124444777000,5.87977685546875,-0.3152780532836914,-0.9848418235778809,2.5447092056274414
1789022124454702000,5.8897021484375,-0.13021814823150635,-0.5843930244445801,2.021728038787842
1789022124464627000,5.899626953125,-0.12110424041748047,-0.023086071014404297,1.5557937622070312
1789022124474552000,5.909552001953125,-0.2719709873199463,0.6557621955871582,1.3092589378356934
1789022124484477200,5.919477294921875,-0.49292850494384766,1.2700271606445312,1.4153590202331543
1789022124494402300,5.92940234375,-0.46613645553588867,1.347090721130371,1.587141990661621
1789022124504327400,5.939327392578125,-0.620175838470459,0.7114920616149902,1.8342652320861816
1789022124514252500,5.94925244140625,-0.4601374864578247,-0.16185379028320312,1.870588779449463
1789022124524177700,5.959177734375,-0.22646677494049072,-0.7945990562438965,1.863020420074463
1789022124534102800,5.969102783203125,-0.35830235481262207,-0.8680291175842285,1.8242096900939941
1789022124544028000,5.97902783203125,-0.2692204713821411,-0.6126875877380371,1.6618342399597168
1789022124553953000,5.988953125,-0.7836383581161499,-0.22107887268066406,1.7133774757385254
1789022124563878100,5.998878173828125,-0.8305729627609253,-0.0191650390625,1.6238789558410645
1789022124573803300,6.00880322265625,-0.4677850008010864,0.17544269561767578,1.623946189880371
1789022124583728000,6.01872802734375,0.5162559747695923,0.30771446228027344,1.3448667526245117
1789022124593653200,6.0286533203125,0.7011159658432007,0.32598018646240234,0.9877738952636719
1789022124603578400,6.038578369140625,1.1784515380859375,0.25549936294555664,0.684906005859375
1789022124613503200,6.048503173828125,1.923435926437378,-0.1864604949951172,0.2419900894165039
1789022124623428400,6.058428466796875,0.9601406455039978,-0.3541083335876465,0.08967828750610352
1789022124633353500,6.068353515625,-0.031723856925964355,-0.5498051643371582,0.14621925354003906
1789022124643278600,6.078278564453125,-0.5016483068466187,-0.7078070640563965,0.38501739501953125
1789022124653203500,6.088203369140625,-1.2399481534957886,-0.6542325019836426,0.9387226104736328
1789022124663128600,6.098128662109375,-0.33229589462280273,-0.366241455078125,1.1985664367675781
1789022124673053700,6.1080537109375,0.21273958683013916,0.021019935607910156,1.4674601554870605
1789022124682978600,6.117978515625,0.4717574119567871,0.23010921478271484,1.2533740997314453
1789022124692903400,6.1279033203125,0.9955317974090576,0.21683073043823242,0.8223881721496582
1789022124702828300,6.137828369140625,0.8867291212081909,0.1371321678161621,0.7555685043334961
1789022124712753200,6.147753173828125,0.6254209280014038,0.09489059448242188,1.2194833755493164
1789022124722677800,6.157677734375,0.7858744859695435,0.14331674575805664,1.9610624313354492
1789022124732602600,6.1676025390625,0.7417168617248535,0.23979759216308594,2.5224361419677734
1789022124742527500,6.177527587890625,0.9437581300735474,0.05276012420654297,1.9513959884643555
1789022124752452400,6.187452392578125,1.1535544395446777,-0.2691068649291992,0.9081683158874512
1789022124762377200,6.197377197265625,0.8289151191711426,-0.37695837020874023,0.41136932373046875
1789022124772302000,6.207302001953125,0.4140498638153076,-0.3520016670227051,-0.10356760025024414
1789022124782425600,6.217425537109375,0.027835607528686523,-0.19871187210083008,-0.48482704162597656
1789022124792548900,6.227548828125,-1.598599910736084,-0.14764118194580078,0.5274920463562012
1789022124802672000,6.237672119140625,-1.605792760848999,-0.28664636611938477,1.3874993324279785
1789022124812795600,6.247795654296875,-0.4179093837738037,-0.34333372116088867,1.9704647064208984
1789022124822919000,6.2579189453125,1.224415898323059,-0.490509033203125,2.3148694038391113
1789022124833042200,6.268042236328125,2.525601387023926,-0.9362483024597168,2.2969818115234375
1789022124843165400,6.27816552734375,2.724327564239502,-1.204577922821045,2.154484272003174
1789022124853289000,6.2882890625,1.8182926177978516,-1.5453743934631348,1.0088253021240234
1789022124863412200,6.298412109375,0.0614771842956543,-1.4305696487426758,-0.16429710388183594
1789022124873535500,6.308535400390625,-1.5417790412902832,-0.798250675201416,-0.9882068634033203
1789022124883659000,6.318658935546875,-1.2296855449676514,-0.33774566650390625,-1.0012269020080566
1789022124893782500,6.328782470703125,-0.7403824329376221,-0.29570865631103516,-0.9844589233398438
1789022124903906000,6.338906005859375,0.9304027557373047,-0.19868850708007812,-1.1230316162109375
1789022124914029800,6.34902978515625,2.055874824523926,-0.4351334571838379,-1.7062835693359375
1789022124924153300,6.3591533203125,2.858348846435547,-0.8849115371704102,-2.35975980758667
1789022124934276900,6.36927685546875,2.6292808055877686,-0.5197081565856934,-2.7896809577941895
1789022124944400400,6.379400390625,1.817176103591919,-0.3727092742919922,-3.6951465606689453
1789022124954524000,6.38952392578125,1.1743364334106445,0.28148412704467773,-4.381680965423584
1789022124964647400,6.3996474609375,0.792283296585083,0.2658510208129883,-5.316000938415527
1789022124974771000,6.40977099609375,0.6356263160705566,0.7844028472900391,-4.999637603759766
1789022124984894500,6.41989453125,0.4031662940979004,1.0173954963684082,-4.5826334953308105
1789022124995018000,6.43001806640625,0.35373711585998535,0.9225966930389404,-4.246535778045654
1789022125005141500,6.4401416015625,0.9790953397750854,0.5606997013092041,-4.115381717681885
1789022125015265000,6.45026513671875,1.3658572435379028,0.6923420429229736,-3.5785465240478516
1789022125025388500,6.460388427734375,1.3047596216201782,0.8666572570800781,-3.173309326171875
1789022125035512300,6.47051220703125,0.6423356533050537,0.5244588851928711,-3.0621347427368164
1789022125045635800,6.4806357421875,-0.24399924278259277,0.4012722969055176,-2.9890217781066895
1789022125055759400,6.49075927734375,-0.7555270195007324,0.41446995735168457,-2.807852268218994
1789022125065883000,6.5008828125,-1.0750911235809326,0.3747708797454834,-2.4569172859191895
1789022125076006400,6.51100634765625,-0.7710652351379395,0.27591848373413086,-2.448699951171875
1789022125086130000,6.5211298828125,-0.5408430099487305,0.295809268951416,-2.476959705352783
1789022125096253400,6.53125341796875,-0.677107572555542,0.4576735496520996,-2.2888846397399902
1789022125106377000,6.541376953125,-0.8208575248718262,0.5735073089599609,-2.0620932579040527
1789022125116500500,6.55150048828125,-0.630833625793457,0.6035799980163574,-1.7788305282592773
1789022125126624000,6.5616240234375,-0.1886889934539795,0.451906681060791,-1.693479061126709
1789022125136747500,6.57174755859375,-0.24762916564941406,0.2680473327636719,-1.5511040687561035
1789022125146871300,6.581871337890625,-0.42457854747772217,0.06556463241577148,-1.4558496475219727
1789022125156994800,6.591994873046875,-0.7426249980926514,-0.036997318267822266,-1.3647193908691406
1789022125167118300,6.602118408203125,-0.923944354057312,-0.1307353973388672,-1.0291028022766113
1789022125177241900,6.612241943359375,0.053220272064208984,-0.25496339797973633,-0.7756681442260742
1789022125187166700,6.622166748046875,-0.1071631908416748,-0.06960773468017578,-0.09623289108276367
1789022125197091600,6.632091552734375,0.4406231641769409,-0.21339845657348633,-0.29001379013061523
1789022125207016400,6.642016357421875,0.573104977607727,-0.5586471557617188,-0.39391613006591797
1789022125216941000,6.651941162109375,0.2676694393157959,-0.6383695602416992,-0.19372940063476562
1789022125226866000,6.661865966796875,-0.03165411949157715,-0.6897268295288086,0.2049880027770996
1789022125236790800,6.671790771484375,-0.06906425952911377,-0.8863687515258789,0.5871701240539551
1789022125246715600,6.681715576171875,0.48293429613113403,-1.3702363967895508,0.5695967674255371
1789022125256640500,6.691640625,0.0597081184387207,-1.7724814414978027,0.9357204437255859
1789022125266565400,6.7015654296875,-0.2681570053100586,-2.2531661987304688,1.794173240661621
1789022125276490200,6.711490234375,-0.8210365772247314,-2.347198486328125,2.742152690887451
1789022125286613500,6.721613525390625,-1.8032968044281006,-2.2660393714904785,3.6515989303588867
1789022125296737000,6.731737060546875,-2.1666922569274902,-1.7060284614562988,3.9205994606018066
1789022125306860300,6.7418603515625,-0.5033660531044006,-1.0621633529663086,2.766456127166748
1789022125316983600,6.751983642578125,0.35752081871032715,-0.23075580596923828,1.7005362510681152
1789022125327106800,6.76210693359375,0.5999906063079834,0.5121612548828125,1.1901988983154297
1789022125337230300,6.772230224609375,0.1598377227783203,0.9627804756164551,0.8924407958984375
1789022125347353600,6.782353515625,-1.0240447521209717,1.2011547088623047,1.1983351707458496
1789022125357476900,6.792476806640625,-0.4557695984840393,1.122044563293457,1.2780766487121582
1789022125367600000,6.80260009765625,-0.9509465098381042,0.5152559280395508,2.0949325561523438
1789022125377723600,6.8127236328125,-1.0205607414245605,-0.20712661743164062,2.0866899490356445
1789022125387649500,6.8226494140625,-0.8766409754753113,-0.8113017082214355,1.9799160957336426
1789022125397575400,6.832575439453125,-0.612087070941925,-0.7280526161193848,1.8429608345031738
1789022125407501600,6.84250146484375,-0.5525282621383667,-0.12610387802124023,2.0956945419311523
1789022125417427500,6.852427490234375,-0.7813626527786255,0.6150074005126953,2.735663414001465
1789022125427353600,6.862353515625,-0.5160481333732605,0.9560608863830566,2.8409786224365234
1789022125437279500,6.872279541015625,-0.8604546785354614,0.9591336250305176,3.3192477226257324
1789022125447205400,6.882205322265625,-1.0384950637817383,0.5909881591796875,3.5633511543273926
1789022125457131500,6.892131591796875,-1.0161070823669434,-0.09922981262207031,3.5750927925109863
1789022125467057400,6.902057373046875,-0.48596787452697754,-0.7556753158569336,2.946305751800537
1789022125476983600,6.911983642578125,0.4040464162826538,-0.9845390319824219,1.7372121810913086
1789022125486908400,6.921908447265625,0.6364046931266785,-0.5842685699462891,0.990872859954834
1789022125496833500,6.93183349609375,-0.1290651559829712,0.1894397735595703,1.1057147979736328
1789022125506758700,6.941758544921875,-0.9709333181381226,0.5349826812744141,1.5274200439453125
1789022125516683800,6.951683837890625,-1.0039749145507812,0.3038811683654785,1.72761869430542
1789022125526608600,6.961608642578125,-0.35292792320251465,0.09038305282592773,1.6777348518371582
1789022125536533800,6.97153369140625,0.3967058062553406,-0.0038437843322753906,1.346682071685791
1789022125546459000,6.981458984375,1.0983667373657227,-0.09651994705200195,0.8155903816223145
1789022125556384000,6.991384033203125,1.0270298719406128,-0.257047176361084,0.6246991157531738
1789022125566308900,7.001308837890625,0.9888209104537964,-0.2216200828552246,0.8524255752563477
1789022125576234000,7.01123388671875,0.7639440894126892,0.10419940948486328,1.1056270599365234
1789022125586159000,7.0211591796875,0.9074153304100037,0.2817850112915039,0.7775678634643555
1789022125596084000,7.031083984375,0.5191518068313599,0.2067852020263672,0.3888249397277832
1789022125606009000,7.041009033203125,-0.3075227737426758,-0.006592750549316406,0.144989013671875
1789022125615934200,7.050934326171875,-0.5101027488708496,0.08511114120483398,0.1655902862548828
1789022125625859300,7.060859375,-0.5401151180267334,0.5011787414550781,0.8572406768798828
1789022125635784200,7.0707841796875,-0.3230869770050049,0.7980751991271973,1.5413756370544434
1789022125645709300,7.080709228515625,-0.37019383907318115,0.9158897399902344,2.1917223930358887
1789022125655634400,7.090634521484375,-0.11386620998382568,0.7315192222595215,2.2904162406921387
1789022125665559600,7.1005595703125,0.41155993938446045,0.5003352165222168,2.4142041206359863
1789022125675484400,7.110484375,0.9420793056488037,0.28310537338256836,2.6599459648132324
1789022125685409300,7.1204091796875,1.6756905317306519,0.03340339660644531,2.650965690612793
1789022125695334100,7.130334228515625,1.7704917192459106,-0.4349479675292969,1.9428949356079102
1789022125705259000,7.140259033203125,0.9653404951095581,-1.2324604988098145,0.660954475402832
1789022125715183900,7.150183837890625,0.36519861221313477,-1.8079352378845215,0.1936969757080078
1789022125725108700,7.160108642578125,-0.25545012950897217,-2.069930076599121,-0.12773513793945312
1789022125735033600,7.17003369140625,-1.1166191101074219,-2.1759305000305176,-0.46698474884033203
1789022125744958500,7.17995849609375,-1.447820782661438,-1.9716424942016602,0.3432173728942871
1789022125754883300,7.18988330078125,-0.6965816020965576,-1.7098374366760254,1.1334528923034668
1789022125764808200,7.19980810546875,0.22914206981658936,-1.5877208709716797,1.5596013069152832
1789022125774733000,7.209733154296875,0.29482150077819824,-1.3886070251464844,1.86322021484375
1789022125784658200,7.219658203125,0.16737580299377441,-1.2423558235168457,1.5974702835083008
1789022125794583600,7.22958349609375,-0.05269503593444824,-1.3022756576538086,1.0749893188476562
1789022125804508700,7.2395087890625,-0.1653904914855957,-1.1982755661010742,0.6808462142944336
1789022125814434000,7.24943408203125,-0.08855962753295898,-1.1918859481811523,-0.12459945678710938
1789022125824359200,7.259359130859375,0.1092761754989624,-0.9745316505432129,-1.3305768966674805
1789022125834284500,7.269284423828125,0.20193469524383545,-0.9543881416320801,-2.0709409713745117
1789022125844209700,7.279209716796875,-0.033550262451171875,-0.8597965240478516,-2.7302799224853516
1789022125854135000,7.289135009765625,-0.2140789031982422,-0.5932035446166992,-3.025211811065674
1789022125864060200,7.29906005859375,-0.3568098545074463,-0.22400999069213867,-2.962522506713867
1789022125873985500,7.308985595703125,0.8721799850463867,0.02138662338256836,-2.814852714538574
1789022125883910700,7.31891064453125,2.0535027980804443,0.08632421493530273,-2.849599838256836
1789022125893835800,7.328835693359375,2.173099994659424,0.27489447593688965,-2.8081183433532715
1789022125903761000,7.338760986328125,1.3493835926055908,0.2304518222808838,-3.581242084503174
1789022125913686000,7.34868603515625,0.6205810308456421,0.29096174240112305,-4.689510822296143
1789022125923611100,7.358611083984375,0.005257129669189453,0.734412670135498,-5.3000335693359375
1789022125933536300,7.368536376953125,-0.5492396354675293,0.5779573917388916,-5.776381492614746
1789022125943461400,7.37846142578125,-0.18653345108032227,0.8296298980712891,-4.906355381011963
1789022125953386500,7.388386474609375,0.8327826261520386,0.942690372467041,-3.82670259475708
1789022125963311400,7.398311279296875,1.3126122951507568,0.8452486991882324,-3.438183307647705
1789022125973236500,7.408236572265625,1.243021845817566,0.5333733558654785,-3.7486653327941895
1789022125983161600,7.41816162109375,0.577728271484375,0.4619486331939697,-4.176872730255127
1789022125993086700,7.428086669921875,-0.3822019100189209,0.5802643299102783,-4.076855182647705
1789022126003011800,7.43801171875,-0.8171554803848267,0.77996826171875,-3.7405409812927246
1789022126012936700,7.447936767578125,-0.7218867540359497,1.0551996231079102,-3.6027092933654785
1789022126022861800,7.45786181640625,-0.5121039152145386,1.1577885150909424,-3.4007339477539062
1789022126032787000,7.467786865234375,-0.4705103635787964,1.2306535243988037,-2.610898017883301
1789022126042712000,7.477712158203125,-0.38893401622772217,1.080993890762329,-1.5137600898742676
1789022126052637000,7.487636962890625,-0.1947094202041626,0.5930690765380859,-0.668938159942627
1789022126062562000,7.49756201171875,0.11476302146911621,0.13991260528564453,-0.724128246307373
1789022126072487200,7.507487060546875,0.39223968982696533,-0.14312362670898438,-1.3947391510009766
1789022126082412000,7.517412109375,0.030791521072387695,-0.4479026794433594,-1.6125869750976562
1789022126092337000,7.5273369140625,0.745069146156311,-0.38266611099243164,-1.795529842376709
1789022126102262000,7.537261962890625,-0.17488133907318115,-0.5456652641296387,-1.3658618927001953
1789022126112187100,7.547187255859375,-0.34478652477264404,-0.43778133392333984,-0.8985958099365234
1789022126122112300,7.5571123046875,-0.0821235179901123,-0.23323345184326172,-0.37946081161499023
1789022126132037000,7.567037109375,-0.06443095207214355,-0.23552465438842773,0.031667232513427734
1789022126141962200,7.576962158203125,-0.28889143466949463,-0.3183407783508301,0.7914319038391113
1789022126151887400,7.586887451171875,-0.21153771877288818,-0.46401214599609375,1.2966361045837402
1789022126161812500,7.5968125,0.227364182472229,-0.9903683662414551,1.4582362174987793
1789022126171737300,7.6067373046875,-0.23889732360839844,-1.8176765441894531,1.546358585357666
1789022126181662500,7.616662353515625,-0.9902616143226624,-2.1447319984436035,1.8949661254882812
1789022126191587300,7.62658740234375,-1.0660276412963867,-2.214097023010254,2.1814732551574707
1789022126201512200,7.63651220703125,-1.2364593744277954,-2.0846500396728516,2.3239264488220215
1789022126211437000,7.64643701171875,-0.44320088624954224,-1.8806791305541992,2.154482364654541
1789022126221362000,7.65636181640625,-0.09073370695114136,-1.1501164436340332,1.7761731147766113
1789022126231286800,7.666286865234375,-0.5287824273109436,-0.2744450569152832,2.2074780464172363
1789022126241211600,7.676211669921875,-0.6476283669471741,-0.21090412139892578,2.260265350341797
1789022126251136300,7.68613623046875,-1.227139949798584,-0.20691537857055664,2.8009557723999023
1789022126261061000,7.69606103515625,-0.13557791709899902,-0.19589853286743164,2.7428712844848633
1789022126270986000,7.705986083984375,0.5317453742027283,-0.1439976692199707,2.229309558868408
1789022126280910800,7.715910888671875,0.5738294124603271,0.15870285034179688,2.058044910430908
1789022126290836200,7.725836181640625,-0.9124196767807007,0.39183998107910156,2.2200255393981934
1789022126300761300,7.73576123046875,-0.9868567585945129,0.6872639656066895,2.4542479515075684
1789022126310686700,7.745686767578125,-0.4818878173828125,0.7738504409790039,2.5412039756774902
1789022126320611800,7.75561181640625,-0.3168506622314453,0.7717499732971191,2.8821988105773926
1789022126330537200,7.765537109375,-0.06799066066741943,0.5432887077331543,2.8372082710266113
1789022126340462600,7.775462646484375,0.13872873783111572,0.36162757873535156,2.3502273559570312
1789022126350387700,7.7853876953125,-0.37516605854034424,0.2890310287475586,1.8432121276855469
1789022126360313000,7.79531298828125,-0.8856703042984009,0.548469066619873,1.7833013534545898
1789022126370238200,7.80523828125,-0.7305057644844055,0.7047896385192871,1.5011968612670898
1789022126380163600,7.81516357421875,-0.30594402551651,0.7451000213623047,1.1413793563842773
1789022126390088400,7.82508837890625,-0.5304343700408936,0.6981048583984375,1.0235342979431152
1789022126400013600,7.835013671875,-1.0948964357376099,0.801081657409668,1.5137004852294922
1789022126409938700,7.844938720703125,-1.3081672191619873,0.5324783325195312,2.3524065017700195
1789022126419863800,7.85486376953125,-0.2350841760635376,-0.02409076690673828,2.7990646362304688
1789022126429788700,7.86478857421875,0.8613987565040588,-0.6550083160400391,2.8463683128356934
1789022126439713800,7.8747138671875,1.9180607795715332,-0.9377350807189941,2.5628671646118164
1789022126449639000,7.884638916015625,2.153480052947998,-0.5869722366333008,2.1203455924987793
1789022126459564000,7.89456396484375,1.3681058883666992,-0.2127981185913086,1.2852988243103027
1789022126469489000,7.904489013671875,0.7322579026222229,0.09470701217651367,0.1533975601196289
1789022126479414000,7.9144140625,-0.36246800422668457,0.5218801498413086,0.02656412124633789
1789022126489339100,7.924339111328125,-0.39754223823547363,0.7872762680053711,0.04896354675292969
1789022126499264300,7.93426416015625,-0.8542615175247192,0.9764275550842285,0.4480929374694824
1789022126509189000,7.944189208984375,-1.222029447555542,0.5848875045776367,0.9190940856933594
1789022126519114200,7.9541142578125,-1.2147098779678345,0.33419227600097656,1.8281521797180176
1789022126529039400,7.964039306640625,-0.5252299308776855,0.23031902313232422,2.5781736373901367
1789022126538964200,7.973964111328125,0.48534929752349854,0.15261411666870117,2.756636619567871
1789022126548889300,7.983889404296875,0.9902288317680359,-0.01967763900756836,2.6543374061584473
1789022126558814500,7.993814453125,1.052986979484558,-0.39722728729248047,2.3669323921203613
1789022126568739600,8.003739501953126,1.2154096364974976,-0.6452741622924805,1.8099079132080078
1789022126578664400,8.01366455078125,0.7083922028541565,-0.4877958297729492,1.753530502319336
1789022126588589600,8.023589599609375,0.17632317543029785,-0.5585808753967285,1.512251377105713
1789022126598514700,8.0335146484375,-0.4116634130477905,-1.7109761238098145,0.4017934799194336
1789022126608439800,8.043439697265624,-0.5078824758529663,-1.9218626022338867,0.5952210426330566
1789022126618364700,8.05336474609375,-1.0382962226867676,-1.8462214469909668,0.9410486221313477
1789022126628289800,8.063289794921875,-1.3799891471862793,-1.723921775817871,1.1115455627441406
1789022126638215000,8.07321484375,-1.3830186128616333,-1.6073708534240723,1.1047821044921875
1789022126648140000,8.08314013671875,-0.6781810522079468,-1.2390751838684082,1.245865821838379
1789022126658065000,8.09306494140625,0.39921021461486816,-1.3441071510314941,0.836207389831543
1789022126667990000,8.102989990234375,0.8586381077766418,-1.1215243339538574,0.38786983489990234
1789022126677915100,8.1129150390625,0.08106434345245361,-0.5324006080627441,-0.04944610595703125
1789022126687840000,8.122840087890625,-1.084938406944275,0.04304361343383789,-0.17853927612304688
1789022126697764900,8.132764892578125,-1.4561831951141357,0.012803077697753906,-0.8674912452697754
1789022126707689700,8.142689697265626,-0.478183388710022,-0.19673490524291992,-1.446763515472412
1789022126717614600,8.152614501953124,0.7095962166786194,-0.23835039138793945,-2.0653719902038574
1789022126727539500,8.16253955078125,1.1764161586761475,-0.5777688026428223,-2.54226016998291
1789022126737464600,8.172464599609375,0.8751026391983032,-0.7480835914611816,-2.8193531036376953
1789022126747389400,8.182389404296876,0.09867215156555176,-0.6587905883789062,-2.562345504760742
1789022126757314300,8.192314208984374,-0.6130664348602295,-0.34159040451049805,-2.0158815383911133
1789022126767239200,8.2022392578125,-0.38753068447113037,-0.4038200378417969,-1.9880213737487793
1789022126777164000,8.2121640625,0.2975296974182129,-0.609656810760498,-2.19219970703125
1789022126787089400,8.22208935546875,0.882521390914917,-0.7523870468139648,-2.3762898445129395
1789022126797014500,8.2320146484375,0.6938323378562927,-0.4953494071960449,-2.3713936805725098
1789022126806940000,8.24193994140625,-0.1927269697189331,-0.7194647789001465,-3.5416111946105957
1789022126816865000,8.251864990234376,0.13363862037658691,-0.19155478477478027,-4.204926013946533
1789022126826790400,8.261790283203124,0.2774761915206909,0.31276559829711914,-4.240364074707031
1789022126836715500,8.271715576171875,-0.5704585313796997,1.2894506454467773,-3.628828525543213
1789022126846641000,8.281640869140626,-0.48895835876464844,1.6857593059539795,-3.006831169128418
1789022126856566000,8.29156591796875,0.40433287620544434,1.2892117500305176,-2.4311280250549316
1789022126866491400,8.301491455078125,0.4933069348335266,0.7672255039215088,-2.466102123260498
1789022126876416500,8.31141650390625,-0.22520816326141357,0.7240080833435059,-2.097681999206543
1789022126886341600,8.321341552734374,-0.7171872854232788,0.7842538356781006,-1.9616990089416504
1789022126896266800,8.331266845703125,-1.0849837064743042,0.9279654026031494,-1.5514473915100098
1789022126906192000,8.34119189453125,-0.952131986618042,0.7436771392822266,-1.1401543617248535
1789022126916116700,8.35111669921875,-0.5618981122970581,0.21394085884094238,-1.148045539855957
1789022126926041900,8.361041748046874,-0.24328172206878662,-0.1867990493774414,-1.3927335739135742
1789022126935967000,8.370967041015625,-0.33430755138397217,-0.43375396728515625,-1.7917718887329102
1789022126945892000,8.38089208984375,-0.8230613470077515,-0.2344059944152832,-2.090116024017334
1789022126955817000,8.39081689453125,-0.9801568984985352,0.19147372245788574,-2.363503932952881
1789022126965742000,8.4007421875,-1.0212898254394531,0.6436288356781006,-2.27730131149292
1789022126975667200,8.410667236328125,-0.8730684518814087,0.9302892684936523,-2.1145424842834473
1789022126985592000,8.420592041015626,-0.3003652095794678,0.7447004318237305,-1.9582247734069824
1789022126995517200,8.43051708984375,0.32654672861099243,0.28273630142211914,-2.025071620941162
1789022127005442000,8.440442138671875,0.45282667875289917,-0.277402400970459,-1.7418975830078125
1789022127015367200,8.4503671875,-0.06527101993560791,-0.36372804641723633,-1.1858696937561035
1789022127025292000,8.4602919921875,-0.7299995422363281,-0.29140233993530273,-0.4058847427368164
1789022127035217200,8.470217041015625,-1.2129069566726685,-0.24643564224243164,0.24307537078857422
1789022127045142300,8.480142333984375,-1.2026971578598022,-0.07957887649536133,0.7927713394165039
1789022127055067100,8.490067138671876,-1.4998103380203247,-0.4831233024597168,1.1243276596069336
1789022127064992300,8.4999921875,-1.1269826889038086,-0.7369275093078613,1.253678321838379
1789022127074917000,8.509917236328125,-0.9398864507675171,-0.8687896728515625,1.4773521423339844
1789022127084842200,8.51984228515625,-0.9948244094848633,-0.8890252113342285,1.7566308975219727
1789022127094767400,8.529767333984376,-1.1334311962127686,-0.7701592445373535,1.8759565353393555
1789022127104692200,8.539692138671874,-1.171234130859375,-0.6504197120666504,1.5492935180664062
1789022127114617300,8.549617431640625,-1.1983879804611206,-0.3578953742980957,1.3076953887939453
1789022127124542500,8.55954248046875,-1.5532208681106567,-0.12259292602539062,1.4472827911376953
1789022127134467600,8.569467529296874,-1.5377615690231323,-0.026652812957763672,1.7371959686279297
1789022127144392400,8.579392333984375,-1.3631566762924194,0.0014600753784179688,2.0334930419921875
1789022127154317600,8.589317626953125,-0.9419827461242676,-0.08633279800415039,1.9487018585205078
1789022127164242700,8.59924267578125,-0.1411750316619873,-0.3126373291015625,1.440016746520996
1789022127174167600,8.60916748046875,0.4998997449874878,-0.4461641311645508,0.7756729125976562
1789022127184092700,8.6190927734375,0.20625948905944824,-0.43824243545532227,0.3724985122680664
1789022127194017500,8.629017578125,-0.023452281951904297,-0.48069190979003906,0.3016042709350586
1789022127203942400,8.6389423828125,-0.567306399345398,-0.31070566177368164,0.39165306091308594
1789022127213867300,8.6488671875,-0.868927001953125,-0.019177913665771484,0.6576805114746094
1789022127223792000,8.658792236328125,-0.8411562442779541,0.17347431182861328,0.7792730331420898
1789022127233717000,8.668717041015626,-0.5357238054275513,0.28626155853271484,0.8229503631591797
1789022127243641900,8.678641845703124,-0.4351428747177124,0.30960512161254883,0.9981727600097656
1789022127253566700,8.688566650390625,-0.5783368349075317,0.35155296325683594,1.2553815841674805
1789022127263491800,8.698491943359375,-1.1709734201431274,0.15965509414672852,1.2522878646850586
1789022127273416700,8.708416748046876,-0.4174107313156128,-0.12588262557983398,0.5784378051757812
1789022127283341800,8.718341796875,-0.08215320110321045,-0.06827020645141602,-0.09537506103515625
1789022127293267000,8.728266845703125,-0.020702600479125977,0.13793420791625977,-0.35724306106567383
1789022127303192300,8.7381923828125,-0.6517763137817383,0.572932243347168,0.13590526580810547
1789022127313117400,8.748117431640624,-1.2567644119262695,0.6376490592956543,0.8089656829833984
1789022127323042600,8.75804248046875,-1.4944123029708862,0.22169065475463867,1.3458013534545898
1789022127332968000,8.767968017578125,-1.1633503437042236,-0.2545156478881836,1.4594039916992188
1789022127342893000,8.77789306640625,-0.6571323871612549,-0.7186875343322754,1.0835895538330078
1789022127352818400,8.787818359375,-0.06462967395782471,-0.9490747451782227,0.46814918518066406
1789022127362743600,8.79774365234375,0.17139387130737305,-1.0243029594421387,-0.07456493377685547
1789022127372668700,8.807668701171876,-0.1307457685470581,-0.7424216270446777,-0.1802387237548828
1789022127382593800,8.81759375,-0.7705210447311401,-0.08234453201293945,-0.03612709045410156
1789022127392519000,8.827518798828125,-1.1027827262878418,0.35637855529785156,0.05587291717529297
1789022127402443800,8.83744384765625,-1.0801713466644287,0.4539341926574707,-0.07654285430908203
1789022127412369000,8.847368896484374,-0.8300211429595947,0.20689153671264648,-0.3278236389160156
1789022127422294000,8.8572939453125,-0.4668818712234497,-0.0630955696105957,-0.6117644309997559
1789022127432219100,8.86721923828125,-0.14377307891845703,-0.2451796531677246,-0.8090424537658691
1789022127442144000,8.87714404296875,0.05073106288909912,-0.35269641876220703,-0.9768295288085938
1789022127452069000,8.887069091796874,-0.2616525888442993,-0.21329355239868164,-1.099973201751709
1789022127461994200,8.896994140625,-1.0844930410385132,0.310147762298584,-0.9055614471435547
1789022127471919400,8.90691943359375,-1.846260666847229,0.5281076431274414,-0.49437665939331055
1789022127481844200,8.91684423828125,-1.5295641422271729,0.20201873779296875,-0.2545967102050781
1789022127491769000,8.92676904296875,-0.8305138349533081,-0.12304544448852539,0.11380195617675781
1789022127501694200,8.936694091796875,-0.35594093799591064,-0.1907801628112793,0.18412017822265625
1789022127511619300,8.946619384765626,-0.02705395221710205,-0.35440921783447266,-0.4439101219177246
1789022127521544400,8.95654443359375,-0.08227479457855225,-0.31931209564208984,-1.0649223327636719
1789022127531469300,8.96646923828125,-0.502233624458313,-0.07480382919311523,-1.2381916046142578
1789022127541394400,8.97639453125,-1.0895859003067017,0.3442869186401367,-0.9598159790039062
1789022127551319600,8.986319580078124,-1.2698618173599243,0.41068172454833984,-0.5945911407470703
1789022127561244700,8.99624462890625,-0.6726909875869751,0.015101909637451172,-0.6975226402282715
1789022127571169500,9.00616943359375,-0.37466859817504883,-0.07787036895751953,-0.7712721824645996
1789022127581094700,9.0160947265625,-0.35578322410583496,-0.021445274353027344,-0.930272102355957
1789022127591019800,9.026019775390624,-0.7134045362472534,0.2752828598022461,-0.9731550216674805
1789022127600944600,9.035944580078125,-1.0762118101119995,0.4536433219909668,-1.152841567993164
1789022127610869800,9.045869873046875,-0.816103458404541,0.30857276916503906,-1.2640595436096191
1789022127620795000,9.055794921875,-0.4058687686920166,0.18013763427734375,-1.197464942932129
1789022127630720000,9.065719970703125,-0.44660985469818115,0.3968648910522461,-0.8440847396850586
1789022127640644900,9.075644775390625,-0.8664497137069702,0.6657357215881348,-0.31444835662841797
1789022127650570000,9.085570068359376,-1.1696851253509521,0.7138652801513672,0.10462379455566406
1789022127660495000,9.0954951171875,-1.025156021118164,0.44597721099853516,0.08819961547851562
1789022127670420200,9.105420166015625,-0.4731799364089966,-0.05445432662963867,-0.014051437377929688
1789022127680345000,9.115344970703125,-0.053943634033203125,-0.3000054359436035,0.050383567810058594
1789022127690270000,9.12527001953125,-0.1575397253036499,-0.3537759780883789,0.0614013671875
1789022127700195000,9.135195068359375,-0.5494498014450073,-0.14960145950317383,-0.018566131591796875
1789022127710120000,9.145119873046875,-0.7922453880310059,-0.07412481307983398,-0.39858436584472656
1789022127720044800,9.155044921875,-0.7190743684768677,0.003009319305419922,-0.561607837677002
1789022127729969700,9.1649697265625,-0.7359147071838379,0.20977449417114258,-0.3702206611633301
1789022127739894500,9.17489453125,-0.8324031829833984,0.25847434997558594,0.1550884246826172
1789022127749819400,9.1848193359375,-0.8557713031768799,0.18551874160766602,0.6110944747924805
1789022127759744300,9.194744140625,-0.7728090286254883,-0.05780839920043945,0.6438875198364258
1789022127769669000,9.204669189453124,-0.4759312868118286,-0.3740410804748535,0.23613262176513672
1789022127779594200,9.21459423828125,-0.33975517749786377,-0.3932218551635742,-0.15642070770263672
1789022127789519400,9.224519287109375,-0.44020378589630127,-0.1864013671875,-0.3658890724182129
1789022127799444500,9.234444580078126,-0.5850775241851807,0.060559749603271484,-0.33000707626342773
1789022127809369900,9.244369873046875,-0.9434161186218262,0.34654951095581055,0.17948532104492188
1789022127819295000,9.254294921875,-1.3029810190200806,0.5256047248840332,0.8735055923461914
1789022127829220000,9.26422021484375,-1.5105751752853394,0.25679588317871094,1.3110008239746094
1789022127839145500,9.2741455078125,-1.1496516466140747,-0.3447914123535156,1.1821346282958984
1789022127849070600,9.284070556640625,-0.5376017093658447,-0.7285637855529785,0.7315120697021484
1789022127858995700,9.29399560546875,-0.38843727111816406,-0.5260114669799805,0.3711433410644531
1789022127868921000,9.303921142578124,-0.34469151496887207,-0.4670581817626953,-0.2991781234741211
1789022127878846200,9.31384619140625,-0.45353126525878906,-0.21017980575561523,-0.5420351028442383
1789022127888771300,9.323771240234375,-0.8010920286178589,0.3148188591003418,-0.36328840255737305
1789022127898696400,9.333696533203126,-1.063275694847107,0.5762729644775391,0.02094268798828125
1789022127908621300,9.343621337890625,-1.157516360282898,0.5297389030456543,0.613734245300293
1789022127918546400,9.35354638671875,-1.2561581134796143,0.1848125457763672,0.8985223770141602
1789022127928471600,9.363471435546876,-0.9755854606628418,-0.413968563079834,0.6613979339599609
1789022127938396400,9.373396484375,-0.6493381261825562,-0.6299090385437012,0.3479585647583008
1789022127948321500,9.383321533203125,-0.5661722421646118,-0.5778470039367676,0.04447460174560547
1789022127958246700,9.39324658203125,-0.7714864015579224,-0.41103458404541016,-0.04824352264404297
1789022127968171800,9.403171875,-0.9095473289489746,-0.2156391143798828,-0.04980659484863281
1789022127978096600,9.4130966796875,-0.9416872262954712,0.031305789947509766,-0.23299789428710938
1789022127988021800,9.423021728515625,-1.0718274116516113,0.4011354446411133,-0.1341991424560547
1789022127997946600,9.432946533203125,-1.1689070463180542,0.6304459571838379,0.14553165435791016
1789022128007871700,9.442871826171874,-1.2095651626586914,0.5086460113525391,0.26618289947509766
1789022128017796900,9.452796875,-0.9437147378921509,-0.1335315704345703,0.06659698486328125
1789022128027721700,9.4627216796875,-0.7190438508987427,-0.3969130516052246,-0.1422863006591797
1789022128037646800,9.472646728515626,-0.40446388721466064,-0.45798254013061523,-0.4078359603881836
1789022128047571700,9.48257177734375,-0.30128610134124756,-0.33591556549072266,-0.38120460510253906
1789022128057496800,9.492496826171875,-1.0047472715377808,0.1728067398071289,-0.09661865234375
1789022128067421700,9.502421630859375,-1.7892556190490723,0.5167937278747559,0.044325828552246094
1789022128077346800,9.512346923828124,-1.5005964040756226,0.35715579986572266,0.0893392562866211
1789022128087271700,9.522271728515625,-0.5034574270248413,-0.1124567985534668,-0.21454906463623047
1789022128097196800,9.53219677734375,-0.16774332523345947,-0.17483139038085938,-0.28899097442626953
1789022128107121700,9.54212158203125,-0.5360836982727051,0.011600494384765625,-0.2963399887084961
1789022128117046800,9.552046875,-0.8591569662094116,0.1938176155090332,-0.2932882308959961
1789022128126972000,9.561971923828125,-1.078222632408142,0.4049849510192871,-0.18912220001220703
1789022128136897000,9.57189697265625,-0.8709433078765869,0.21509313583374023,-0.3855404853820801
1789022128146822000,9.58182177734375,-0.5258225202560425,-0.030015945434570312,-0.5681538581848145
1789022128156747000,9.5917470703125,-0.4904242753982544,0.092620849609375,-0.44609546661376953
1789022128166672100,9.601672119140625,-1.0982537269592285,0.2977323532104492,0.24820613861083984
1789022128176597000,9.611596923828126,-1.5211471319198608,0.04625511169433594,0.7382440567016602
1789022128186522000,9.621522216796874,-0.7997735738754272,-0.6931843757629395,0.2756967544555664
1789022128196447000,9.631447021484375,-0.13361084461212158,-0.710604190826416,-0.401705265045166
1789022128206371800,9.641371826171875,-0.08843207359313965,-0.12521123886108398,-0.6999602317810059
1789022128216297000,9.651296875,-0.7577337026596069,0.669856071472168,-0.5000791549682617
1789022128226221800,9.661221923828125,-1.1548446416854858,0.6959419250488281,-0.24198627471923828
1789022128236146700,9.671146728515625,-1.1098312139511108,0.3595890998840332,0.1592082977294922
1789022128246071600,9.681071533203125,-0.6563059091567993,-0.2868952751159668,0.0717916488647461
1789022128255996400,9.690996337890626,-0.20935547351837158,-0.687981128692627,-0.2593994140625
1789022128265921300,9.70092138671875,-0.22128450870513916,-0.4081535339355469,-0.5174360275268555
1789022128275846100,9.71084619140625,-0.8005658388137817,0.24111080169677734,-0.5821585655212402
1789022128285771000,9.72077099609375,-1.2731043100357056,0.4951820373535156,-0.6634616851806641
1789022128295696100,9.730696044921874,-1.1249825954437256,0.377716064453125,-0.4758267402648926
1789022128305621000,9.74062109375,-0.7332441806793213,-0.026556968688964844,-0.3462958335876465
1789022128315546000,9.750546142578125,-0.3829834461212158,-0.2978057861328125,-0.2900371551513672
1789022128325471200,9.76047119140625,-0.40356552600860596,-0.13960886001586914,-0.2777395248413086
1789022128335396600,9.770396728515625,-0.7268999814987183,0.24743366241455078,-0.24179840087890625
1789022128345321700,9.78032177734375,-0.8944638967514038,0.17902231216430664,-0.07509803771972656
1789022128355246800,9.790246826171876,-0.964893102645874,-0.09904050827026367,0.09888458251953125
1789022128365172200,9.800172119140624,-0.7701618671417236,-0.221343994140625,0.20919227600097656
1789022128375097300,9.810097412109375,-0.6590136289596558,-0.28534603118896484,0.19043445587158203
1789022128385022500,9.8200224609375,-0.8370442390441895,-0.27296876907348633,0.19079875946044922
1789022128394947800,9.82994775390625,-1.0115033388137817,-0.37360239028930664,0.15839004516601562
1789022128404873000,9.839873046875,-1.045823335647583,-0.3879685401916504,0.17831993103027344
1789022128414798000,9.849798095703125,-0.9521121978759766,-0.29906320571899414,0.0423583984375
1789022128424723200,9.85972314453125,-0.8318490982055664,0.03621530532836914,-0.012357711791992188
1789022128434648000,9.86964794921875,-0.48472845554351807,-0.19890642166137695,-0.34882116317749023
1789022128444573200,9.8795732421875,-0.8846925497055054,0.2660956382751465,0.17223072052001953
1789022128454498300,9.889498291015625,-1.132574200630188,0.41130542755126953,0.35010814666748047
1789022128464423400,9.89942333984375,-0.8713893890380859,0.18977928161621094,0.26981449127197266
1789022128474348300,9.909348388671875,-0.37327468395233154,-0.40513038635253906,-0.23825550079345703
1789022128484273400,9.9192734375,-0.38127219676971436,-0.6970229148864746,-0.398679256439209
1789022128494198500,9.929198486328126,-0.8541282415390015,-0.2453317642211914,0.031868934631347656
1789022128504123400,9.939123291015624,-1.2822332382202148,0.18328332901000977,0.32779693603515625
1789022128514048500,9.949048583984375,-1.1975926160812378,0.0859532356262207,0.6042098999023438
1789022128523973600,9.9589736328125,-1.0010144710540771,-0.20920085906982422,0.6913690567016602
1789022128533898800,9.968898681640624,-0.7736961841583252,-0.36995935440063477,0.7004480361938477
1789022128543823600,9.97882373046875,-0.4415854215621948,-0.49300575256347656,0.35479259490966797
1789022128553748700,9.988748779296875,-0.39860236644744873,-0.32840967178344727,-0.028586387634277344
1789022128563673900,9.998673828125,-0.5505779981613159,-0.1713714599609375,-0.4105396270751953
1789022128573599000,10.008598876953124,-0.728278398513794,0.040869712829589844,-0.3711380958557129
1789022128583523800,10.01852392578125,-0.9526313543319702,0.1653146743774414,-0.19530773162841797
1789022128593449000,10.028448974609375,-0.8696192502975464,0.16054534912109375,0.17086219787597656
1789022128603374000,10.0383740234375,-0.6175127029418945,0.009936809539794922,0.36167240142822266
1789022128613299200,10.04829931640625,-0.6794091463088989,-0.21299505233764648,0.30502891540527344
1789022128623224000,10.05822412109375,-0.5062117576599121,-0.5342264175415039,0.08070564270019531
1789022128633149200,10.068149169921876,-0.7952775955200195,-0.09676170349121094,0.3547830581665039
1789022128643074300,10.07807421875,-0.7959129810333252,-0.3642573356628418,0.059032440185546875
1789022128652999200,10.087999267578125,-0.5847798585891724,-0.5482559204101562,0.08290290832519531
1789022128662924300,10.09792431640625,-0.5042155981063843,-0.4290928840637207,0.06804752349853516
1789022128672849400,10.107849365234374,-0.5332217216491699,-0.1715860366821289,0.07173442840576172
1789022128682774500,10.1177744140625,-0.43597471714019775,0.020659923553466797,-0.06588459014892578
1789022128692699400,10.127699462890625,-0.6413493156433105,0.2853255271911621,0.17081069946289062
1789022128702624500,10.13762451171875,-0.6965004205703735,-0.1267838478088379,0.12175273895263672
1789022128712549600,10.147549560546874,-0.6410602331161499,-0.550633430480957,0.20567989349365234
1789022128722474500,10.157474609375,-0.5007510185241699,-0.5860962867736816,0.23203182220458984
1789022128732399600,10.167399658203125,-0.4979979991912842,-0.03868246078491211,0.3750419616699219
1789022128742324500,10.177324462890626,-0.5049451589584351,0.31481027603149414,-0.12514781951904297
1789022128752249600,10.18724951171875,-0.2834746837615967,0.37109375,-0.7912135124206543
1789022128762174500,10.197174560546875,-0.026282310485839844,0.07610321044921875,-1.4215283393859863
1789022128772099600,10.207099609375,-0.17354726791381836,0.3394904136657715,-1.060739517211914
1789022128782024400,10.2170244140625,-0.3124656677246094,0.34650611877441406,-0.7514572143554688
1789022128791949600,10.226949462890625,-0.47051775455474854,0.6408896446228027,-0.2019662857055664
1789022128801874400,10.23687451171875,-0.27839744091033936,0.23858404159545898,-0.23117351531982422
1789022128811799600,10.246799560546876,-0.16190361976623535,-0.14268732070922852,-0.04362964630126953
1789022128821724700,10.256724609375,-0.23613524436950684,-0.4517078399658203,-0.009890556335449219
1789022128831649800,10.26664990234375,-0.2160130739212036,-0.5201396942138672,0.12201213836669922
1789022128841574700,10.27657470703125,-0.31509172916412354,-0.32450389862060547,0.2134571075439453
1789022128851499800,10.286499755859374,-0.4971950054168701,-0.13260889053344727,0.5760250091552734
1789022128861425000,10.2964248046875,-0.6281800270080566,-0.34461212158203125,0.8428955078125
1789022128871350000,10.30635009765625,-0.7117979526519775,-0.507685661315918,1.166001319885254
1789022128881275000,10.31627490234375,-0.27452898025512695,-0.37444257736206055,1.105820655822754
1789022128891200000,10.326199951171875,0.06547319889068604,-0.3295426368713379,0.4433107376098633
1789022128901125000,10.336125,0.03401327133178711,-0.5762195587158203,-0.41058921813964844
1789022128911050000,10.346050048828126,0.016556859016418457,-0.6738691329956055,-0.9477910995483398
1789022128920975000,10.35597509765625,-0.0943688154220581,-0.36209821701049805,-0.994959831237793
1789022128930900000,10.36589990234375,-0.5744509696960449,0.3311648368835449,-0.6548032760620117
1789022128940825000,10.3758251953125,-0.851224422454834,0.816831111907959,-0.6298255920410156
1789022128950750000,10.38575,-0.37470924854278564,0.8818931579589844,-0.823448657989502
1789022128960675000,10.395675048828124,0.14699840545654297,0.7763280868530273,-0.7820682525634766
1789022128970600200,10.40560009765625,0.21154987812042236,0.46724939346313477,-0.5541424751281738
1789022128980525000,10.415525146484375,-0.36181116104125977,0.41683483123779297,0.1223907470703125
1789022128990450200,10.4254501953125,-0.6919069290161133,0.13049697875976562,0.5291757583618164
1789022129000375000,10.435375,-0.31578946113586426,-0.5484342575073242,0.4132204055786133
1789022129010300200,10.445300048828125,0.19185292720794678,-0.9151248931884766,-0.31449413299560547
1789022129020225300,10.455225341796876,0.23064446449279785,-0.4432511329650879,-0.7534360885620117
1789022129030150100,10.465150146484374,-0.3082730770111084,0.2920989990234375,-0.9035210609436035
1789022129040075300,10.4750751953125,-0.7515784502029419,0.5643444061279297,-0.9034204483032227
1789022129050000400,10.48500048828125,-0.8983209133148193,0.349545955657959,-0.4390897750854492
1789022129059925500,10.494925537109374,-0.6455482244491577,-0.24359369277954102,-0.14830684661865234
1789022129069850400,10.504850341796875,-0.14453136920928955,-0.3889737129211426,-0.0028848648071289062
1789022129079775500,10.514775390625,0.08057761192321777,-0.2445669174194336,-0.09336090087890625
1789022129089700600,10.52470068359375,-0.09483671188354492,-0.04838418960571289,-0.0031805038452148438
1789022129099625500,10.53462548828125,-0.3681149482727051,-0.1295018196105957,0.03375434875488281
1789022129109550600,10.544550537109375,-0.390414834022522,-0.7244882583618164,0.028055191040039062
1789022129119475700,10.554475830078125,-0.34796953201293945,-0.5539665222167969,0.5472192764282227
1789022129129400600,10.564400634765626,-0.1931079626083374,-0.642336368560791,0.27184295654296875
1789022129139325700,10.57432568359375,-0.2141096591949463,-0.6361989974975586,0.3976278305053711
1789022129149250600,10.58425048828125,-0.5327886343002319,-0.7099361419677734,0.6751337051391602
1789022129159175700,10.59417578125,-0.634556770324707,-0.8311686515808105,0.9510135650634766
1789022129169100500,10.6041005859375,-0.17161667346954346,-0.961827278137207,1.0666923522949219
1789022129179025700,10.614025634765625,0.34265708923339844,-1.0293807983398438,0.873138427734375
1789022129188950500,10.623950439453125,0.493381142616272,-0.8510785102844238,0.7522649765014648
1789022129198875600,10.633875732421876,-0.12737607955932617,-0.3329048156738281,0.7801332473754883
1789022129208800500,10.643800537109374,-1.3082818984985352,0.0069828033447265625,0.8577156066894531
1789022129218725600,10.6537255859375,-1.795737862586975,0.10404348373413086,1.080667495727539
1789022129228650500,10.663650390625,-1.1487585306167603,0.07659530639648438,1.237497329711914
1789022129238575600,10.67357568359375,-0.0008029937744140625,-0.10573291778564453,1.0657892227172852
1789022129248500700,10.683500732421875,0.43105268478393555,-0.06725454330444336,0.9772911071777344
1789022129258425900,10.69342578125,0.2881460189819336,0.14512300491333008,0.70947265625
1789022129268350700,10.703350830078126,-0.3757210969924927,0.3115849494934082,0.35456371307373047
1789022129278275800,10.71327587890625,-0.8435707092285156,0.27983903884887695,0.0770273208618164
1789022129288201000,10.723200927734375,-0.6816062927246094,0.21626901626586914,0.020090103149414062
1789022129298126000,10.7331259765625,-0.7156821489334106,0.04537010192871094,0.07895278930664062
1789022129308051000,10.743051025390624,-0.36812591552734375,-0.3277616500854492,0.009156227111816406
1789022129317975800,10.752975830078125,-0.1073075532913208,-0.5036163330078125,0.01699352264404297
1789022129327901000,10.76290087890625,0.16921257972717285,-0.4348616600036621,0.192474365234375
1789022129337825800,10.77282568359375,0.3970593214035034,-0.7094988822937012,0.10022354125976562
1789022129347750700,10.782750732421874,0.45967185497283936,-1.0920825004577637,-0.42147159576416016
1789022129357675500,10.792675537109375,0.10758960247039795,-1.3948674201965332,-0.9694004058837891
1789022129367600400,10.802600341796875,-0.7306596040725708,-1.0404529571533203,-1.179245948791504
1789022129377525200,10.812525146484376,-1.2559758424758911,-0.5357146263122559,-1.2072863578796387
1789022129387450000,10.8224501953125,-1.2686711549758911,-0.23854732513427734,-0.9765281677246094
1789022129397375000,10.832375,-0.012835264205932617,-0.1251235008239746,-0.7294425964355469
1789022129407300000,10.842300048828125,0.5106761455535889,-0.2172069549560547,-0.964080810546875
1789022129417225200,10.85222509765625,0.38967084884643555,-0.16474604606628418,-1.4975314140319824
1789022129427150300,10.862150390625,0.22106730937957764,-0.10051870346069336,-2.342329502105713
1789022129437075500,10.872075439453125,0.18485605716705322,-0.10700654983520508,-3.4336462020874023
1789022129447000600,10.88200048828125,-0.11620938777923584,0.38082122802734375,-3.7049851417541504
1789022129456925700,10.89192578125,-0.21796035766601562,1.0981686115264893,-3.5263471603393555
1789022129466850800,10.901850830078125,-0.04420769214630127,1.2562220096588135,-3.3105082511901855
1789022129476776200,10.911776123046875,0.44095003604888916,0.8324267864227295,-3.1877341270446777
1789022129486701300,10.921701416015624,0.8433312177658081,0.2346045970916748,-3.2056026458740234
1789022129496626400,10.93162646484375,0.46778643131256104,0.2934575080871582,-2.837407112121582
1789022129506551600,10.941551513671875,-0.14568758010864258,0.7236347198486328,-2.5940122604370117
1789022129516476700,10.9514765625,-0.02397739887237549,0.9020187854766846,-2.8530473709106445
1789022129526401500,10.961401611328125,0.5942184925079346,0.7015252113342285,-3.3515443801879883
1789022129536326700,10.97132666015625,1.1654589176177979,0.42268872261047363,-3.6922607421875
1789022129546251800,10.981251708984376,0.7210005521774292,0.5112941265106201,-3.3587698936462402
1789022129556177000,10.991177001953124,-0.18407702445983887,0.6583600044250488,-2.3995556831359863
1789022129566101800,11.001101806640625,-0.6303943395614624,0.43877649307250977,-1.2991032600402832
1789022129576027000,11.01102685546875,0.28363037109375,0.16742563247680664,-0.4815196990966797
1789022129585952000,11.020951904296876,0.21657264232635498,-0.6344585418701172,-0.20831871032714844
1789022129595877000,11.030877197265625,0.5240261554718018,-1.170945167541504,-0.7638616561889648
1789022129605802000,11.040802001953125,0.2955496311187744,-1.2483434677124023,-1.52866792678833
1789022129615727000,11.05072705078125,0.03223586082458496,-0.9938607215881348,-2.2331929206848145
1789022129625652000,11.06065185546875,-0.4198833703994751,-0.6268925666809082,-2.393698215484619
1789022129635577000,11.0705771484375,-0.3346973657608032,-0.1775956153869629,-1.9162960052490234
1789022129645502000,11.080501953125,-0.06483519077301025,0.10313177108764648,-1.1526999473571777
1789022129655427000,11.090427001953126,-0.16892719268798828,0.10717582702636719,-0.14378690719604492
1789022129665352000,11.10035205078125,-0.0034842491149902344,-0.252596378326416,0.5744943618774414
1789022129675277000,11.110277099609375,0.14608240127563477,-0.6764593124389648,1.3120741844177246
1789022129685202200,11.1202021484375,0.33239638805389404,-1.199784755706787,1.928748607635498
1789022129695127000,11.130126953125,-0.21371865272521973,-1.7335004806518555,2.213808536529541
1789022129705052200,11.14005224609375,-0.39942800998687744,-2.0105128288269043,1.7479057312011719
1789022129714977000,11.14997705078125,-0.18522298336029053,-1.8010306358337402,0.9523711204528809
1789022129724902100,11.159902099609376,0.3398505449295044,-1.375004768371582,-0.12386560440063477
1789022129734827000,11.169826904296874,0.5659076571464539,-0.7626996040344238,-0.3947873115539551
1789022129744752000,11.179752197265625,0.23977267742156982,-0.518099308013916,-0.2384014129638672
1789022129754677000,11.189677001953125,0.028434157371520996,-0.35063648223876953,0.765556812286377
1789022129764602000,11.19960205078125,-0.26148200035095215,-0.7520356178283691,1.8387484550476074
1789022129774527000,11.20952685546875,-0.5637797117233276,-1.2302021980285645,2.360398292541504
1789022129784452000,11.2194521484375,0.1884763240814209,-1.341869831085205,1.8890066146850586
1789022129794377000,11.229376953125,0.6883873343467712,-0.9994540214538574,1.6197786331176758
1789022129804302000,11.239302001953124,0.87115478515625,-0.47446537017822266,0.7892770767211914
1789022129814227000,11.24922705078125,0.18409943580627441,0.051102638244628906,0.7362442016601562
1789022129824151800,11.25915185546875,0.33577877283096313,0.306119441986084,0.5530848503112793
1789022129834076700,11.26907666015625,-0.18893063068389893,0.43872737884521484,1.142686367034912
1789022129844001500,11.27900146484375,-0.44975900650024414,0.19099044799804688,1.4814739227294922
1789022129853926700,11.2889267578125,-0.9638416767120361,0.12773609161376953,2.5683441162109375
1789022129863851500,11.2988515625,-0.34667837619781494,0.053064823150634766,3.3312110900878906
1789022129873776400,11.3087763671875,0.48723042011260986,0.26305580139160156,3.463089942932129
1789022129883701200,11.318701171875,0.45051097869873047,0.38323116302490234,2.6295886039733887
1789022129893626000,11.328626220703125,0.17128682136535645,0.44932079315185547,2.1530942916870117
1789022129903551000,11.338551025390625,-0.530709981918335,0.40763092041015625,2.361542224884033
1789022129913476000,11.34847607421875,-1.2070900201797485,0.2797107696533203,2.970147132873535
1789022129923401200,11.358401123046875,-1.3948335647583008,0.11699914932250977,3.471489906311035
1789022129933326600,11.36832666015625,-0.7398421764373779,0.03461456298828125,3.5558366775512695
1789022129943251700,11.378251708984376,0.1472872495651245,0.1297006607055664,3.000922679901123
1789022129953176800,11.3881767578125,0.42393791675567627,0.34599733352661133,2.3159689903259277
1789022129963102000,11.39810205078125,0.6934295892715454,0.7179956436157227,1.6130495071411133
1789022129973027000,11.408027099609376,1.0267157554626465,1.0942835807800293,0.826317310333252
1789022129982952200,11.4179521484375,0.8869877457618713,1.3294172286987305,0.014575004577636719
1789022129992877300,11.427877197265625,0.08952617645263672,1.243288516998291,-0.5346384048461914
1789022130002802700,11.437802734375,-0.9074257612228394,0.7865481376647949,-0.5219292640686035
1789022130012727600,11.4477275390625,-1.3363670110702515,0.20084762573242188,-0.13444900512695312
1789022130022652700,11.457652587890625,-0.714593768119812,0.059197425842285156,0.30779361724853516
1789022130032577500,11.46757763671875,0.41452455520629883,0.1161336898803711,0.8587570190429688
1789022130042502700,11.477502685546876,0.9278305768966675,-0.029137134552001953,0.9582228660583496
1789022130052427500,11.487427490234374,1.1802566051483154,-0.34029722213745117,0.9905567169189453
1789022130062352600,11.4973525390625,1.159835696220398,-0.7344179153442383,0.9087820053100586
1789022130072277500,11.507277587890625,0.962104082107544,-0.9735627174377441,0.9175286293029785
1789022130082202600,11.51720263671875,0.5812356472015381,-1.349531650543213,0.9745330810546875
1789022130092127500,11.52712744140625,0.06287980079650879,-1.3822903633117676,1.5044937133789062
1789022130102052600,11.537052490234375,-0.0752326250076294,-1.3135638236999512,1.747453212738037
1789022130111977500,11.5469775390625,-0.14535951614379883,-1.3935399055480957,2.305659770965576
1789022130121902600,11.556902587890624,0.11017763614654541,-1.7118282318115234,2.32027530670166
1789022130131827500,11.566827392578125,0.5149977207183838,-2.2360668182373047,1.726701259613037
1789022130141752600,11.576752685546875,0.9063026309013367,-2.0471744537353516,1.772639274597168
1789022130151677700,11.586677734375,0.11309504508972168,-1.5863585472106934,0.9818782806396484
1789022130161602600,11.5966025390625,-0.14087378978729248,-0.9801740646362305,0.35447120666503906
1789022130171527700,11.606527587890625,0.13227343559265137,-0.6161909103393555,-0.17748069763183594
1789022130181452500,11.61645263671875,0.41509902477264404,-0.6031203269958496,-0.17592525482177734
1789022130191377700,11.626377685546874,0.9049396514892578,-0.5470743179321289,-0.41636085510253906
1789022130201302500,11.636302490234375,0.9785295724868774,-0.5902419090270996,0.4214134216308594
1789022130211227400,11.646227294921875,0.8178057670593262,-1.0442824363708496,0.596282958984375
1789022130221152500,11.656152587890626,0.5294013023376465,-1.4251213073730469,-0.1612253189086914
1789022130231077600,11.66607763671875,0.5394468307495117,-1.324674129486084,-0.9966835975646973
1789022130241002800,11.676002685546875,1.0067839622497559,-1.1551446914672852,-2.0279464721679688
1789022130250927600,11.685927734375,1.1802539825439453,-0.8182373046875,-2.5328521728515625
1789022130260852700,11.695852783203126,1.3016893863677979,-0.7209854125976562,-2.617949962615967
1789022130270777900,11.70577783203125,0.7617995738983154,-0.6591229438781738,-2.143125057220459
1789022130280702700,11.71570263671875,-0.13024592399597168,-0.719273567199707,-1.636460304260254
1789022130290627800,11.7256279296875,-0.27867209911346436,-0.7709512710571289,-2.2203145027160645
1789022130300553000,11.735552978515624,0.2117379903793335,-1.0225038528442383,-3.8145670890808105
1789022130310478000,11.74547802734375,0.6676130294799805,-0.9362204074859619,-5.5371294021606445
1789022130320403000,11.75540283203125,0.4253051280975342,-0.6568937301635742,-6.217807769775391
1789022130330327800,11.765327880859376,-0.08564949035644531,0.026879549026489258,-5.668182373046875
1789022130340252700,11.775252685546874,0.4515097141265869,0.7369191646575928,-4.898072719573975
1789022130350177500,11.785177490234375,0.9836297631263733,1.7263939380645752,-4.144004821777344
1789022130360102400,11.795102294921875,1.168945074081421,1.8798645734786987,-4.170438766479492
1789022130370027300,11.80502734375,1.817143440246582,1.3401381969451904,-4.785044193267822
1789022130379952400,11.814952392578125,1.0125659704208374,1.0306892395019531,-4.864108085632324
1789022130389877200,11.824877197265625,-0.3291412591934204,0.852391242980957,-4.760119915008545
1789022130399802000,11.834802001953125,-0.5691044330596924,0.698911190032959,-4.657861709594727
1789022130409727000,11.84472705078125,-0.5880979299545288,0.6558091640472412,-4.557026386260986
1789022130419652000,11.854652099609375,-0.5203596353530884,0.8357899188995361,-4.2621541023254395
1789022130429577200,11.8645771484375,-0.2711275815963745,0.9494192600250244,-3.6360487937927246
1789022130439502300,11.87450244140625,-0.09239351749420166,0.9084391593933105,-2.6952290534973145
1789022130449427500,11.884427490234375,0.309772253036499,0.8531370162963867,-1.8249402046203613
1789022130459352600,11.8943525390625,0.20775961875915527,0.41049861907958984,-1.3777108192443848
1789022130469277700,11.904277587890626,0.8437480330467224,-0.0058574676513671875,-1.6383590698242188
1789022130479202600,11.91420263671875,1.2805792093276978,-0.30805492401123047,-1.6503324508666992
1789022130489127700,11.924127685546875,0.6640451550483704,-0.6793127059936523,-1.337958812713623
1789022130499052800,11.934052734375,-0.011468768119812012,-1.0401530265808105,-0.8537182807922363
1789022130508978000,11.94397802734375,-0.5469565391540527,-1.0628299713134766,-0.22514057159423828
1789022130518903000,11.953903076171875,-0.54096519947052,-1.1482996940612793,0.38287830352783203
1789022130528828000,11.963827880859375,-0.7094357013702393,-1.4027700424194336,0.9225673675537109
1789022130538753000,11.9737529296875,-0.5938411951065063,-1.5603570938110352,1.3018264770507812
1789022130548678000,11.983677978515624,-0.2612264156341553,-2.012467384338379,1.5346999168395996
1789022130558603000,11.99360302734375,0.04603499174118042,-2.5525665283203125,1.6356730461120605
1789022130568528000,12.00352783203125,-0.19182586669921875,-2.728386878967285,1.7852458953857422
1789022130578453000,12.013452880859376,-0.3781142830848694,-2.4197168350219727,1.6706719398498535
1789022130588378000,12.023378173828124,0.23163598775863647,-1.9558062553405762,1.5258965492248535
1789022130598303000,12.033302978515625,0.7026793956756592,-1.149306297302246,1.3409943580627441
1789022130608228000,12.04322802734375,0.5771417617797852,-0.38884544372558594,1.5302014350891113
1789022130618153000,12.053153076171874,-0.3985416293144226,-0.3135199546813965,1.3882956504821777
1789022130628078000,12.063078125,-0.9796912670135498,0.30677127838134766,2.2074813842773438
1789022130638003000,12.0730029296875,-0.7986764907836914,0.3369455337524414,2.6934947967529297
1789022130647928000,12.082927978515626,-0.3075471520423889,0.2146291732788086,2.565849781036377
1789022130657853000,12.09285302734375,0.5160207748413086,0.0801534652709961,2.2889838218688965
1789022130667778000,12.102778076171875,0.4648715555667877,0.12427663803100586,2.153414249420166
1789022130677703000,12.112702880859375,0.44205641746520996,0.018700122833251953,1.3674473762512207
1789022130687628000,12.1226279296875,-0.5322338342666626,-0.05862283706665039,1.4333667755126953
1789022130697553000,12.132552978515625,-0.4604605436325073,-0.026189804077148438,1.4284615516662598
1789022130707478000,12.14247802734375,-0.5018652081489563,0.11437463760375977,2.114826202392578
1789022130717403000,12.15240283203125,-0.3896682858467102,0.21341180801391602,2.538851737976074
1789022130727328000,12.162327880859374,-0.38121461868286133,0.3188304901123047,2.887341022491455
1789022130737252900,12.1722529296875,-0.4117109775543213,0.3819284439086914,3.1261582374572754
1789022130747178000,12.182177978515625,-0.7811011075973511,0.5739240646362305,3.078810691833496
1789022130757103000,12.19210302734375,-0.38221126794815063,0.5369162559509277,2.3401384353637695
1789022130767028000,12.202028076171874,-0.28805404901504517,0.3833794593811035,1.6009092330932617
1789022130776953000,12.211953125,-0.7486152648925781,0.30444765090942383,1.6531319618225098
1789022130786878000,12.2218779296875,-1.377376914024353,-0.06554889678955078,2.3062405586242676
1789022130796803000,12.231802978515624,-2.051166534423828,-0.21826934814453125,3.4653706550598145
1789022130806728000,12.24172802734375,-1.6402148008346558,-0.2319808006286621,4.314854145050049
1789022130816652800,12.25165283203125,0.7185195088386536,-0.03340578079223633,3.7649121284484863
1789022130826577700,12.26157763671875,1.3319802284240723,0.236358642578125,2.224574089050293
1789022130836502800,12.271502685546874,2.121802806854248,0.3810243606567383,0.5933351516723633
1789022130846427600,12.281427734375,2.368004322052002,0.36189746856689453,0.13777446746826172
1789022130856352500,12.2913525390625,2.7929720878601074,0.483304500579834,-0.2454814910888672
1789022130866277400,12.30127734375,1.8463184833526611,0.27776098251342773,-0.6036581993103027
1789022130876202200,12.3112021484375,0.5249190330505371,-0.33371448516845703,-1.0168557167053223
1789022130886127000,12.321127197265625,-1.171536922454834,-0.28736352920532227,-0.9031105041503906
1789022130896052000,12.331052001953125,-2.056417942047119,-0.07958269119262695,-0.251131534576416
1789022130905976800,12.340976806640626,-1.9747114181518555,0.5423550605773926,0.7428789138793945
1789022130915902000,12.35090185546875,-0.9235410690307617,1.0778279304504395,1.276231288909912
1789022130925827000,12.3608271484375,0.36952078342437744,1.1331706047058105,1.0730504989624023
1789022130935752200,12.370752197265626,1.260362148284912,0.872586727142334,0.5544090270996094
1789022130945677300,12.38067724609375,1.9019951820373535,0.29738283157348633,0.2549271583557129
1789022130955602400,12.3906025390625,2.058666229248047,-0.2924957275390625,0.9366307258605957
1789022130965527600,12.400527587890625,1.3512792587280273,-0.7803425788879395,2.2257065773010254
1789022130975452700,12.41045263671875,0.5242445468902588,-1.248274803161621,2.8759984970092773
1789022130985377800,12.420377685546875,0.4243828058242798,-1.6530675888061523,2.5626754760742188
1789022130995303000,12.430302978515625,0.3301365375518799,-2.253178119659424,1.4175567626953125
1789022131005228000,12.44022802734375,-0.22556889057159424,-2.431346893310547,0.8303680419921875
1789022131015153000,12.45015283203125,-1.1862860918045044,-2.2675933837890625,0.3974494934082031
1789022131025078000,12.460078125,-3.472362518310547,-1.7947750091552734,0.18056678771972656
1789022131035003000,12.4700029296875,-3.586040496826172,-1.1305923461914062,0.49773597717285156
1789022131044928000,12.479927978515626,-1.6953294277191162,-0.6380200386047363,1.0416622161865234
1789022131054853000,12.48985302734375,-0.06357443332672119,-0.40824365615844727,0.9671201705932617
1789022131064778000,12.499778076171875,1.0275731086730957,-0.5305280685424805,0.9218769073486328
1789022131074703000,12.509703125,1.9805057048797607,-0.9844584465026855,0.5358619689941406
1789022131084628000,12.5196279296875,2.045870065689087,-1.049227237701416,-0.3127584457397461
1789022131094553000,12.529552978515625,1.1768319606781006,-1.0366716384887695,-1.1651396751403809
