time,seconds_elapsed,z,y,x
1789022118626398500,0.0613984375,0.06520981341600418,-0.08933897316455841,-0.18356487154960632
1789022118636323300,0.0713232421875,0.1000291109085083,0.10430516302585602,-0.10965022444725037
1789022118646248200,0.081248291015625,0.13179408013820648,0.2680169343948364,-0.04001164436340332
1789022118656173000,0.091173095703125,0.1617264449596405,0.35414886474609375,0.032681263983249664
1789022118666098000,0.101097900390625,0.1623373180627823,0.32360562682151794,0.10109812021255493
1789022118676022800,0.111022705078125,0.15500694513320923,0.27779075503349304,0.16646064817905426
1789022118685947600,0.12094775390625,0.17088942229747772,0.25641047954559326,0.22754712402820587
1789022118695872500,0.13087255859375,0.18921536207199097,0.20509785413742065,0.2715294063091278
1789022118705797600,0.140797607421875,0.18616104125976562,0.11835505068302155,0.29962918162345886
1789022118715722200,0.15072216796875,0.17027856409549713,0.05177079141139984,0.32650721073150635
1789022118725647000,0.160647216796875,0.14401137828826904,0.05604684352874756,0.35705047845840454
1789022118735572200,0.170572265625,0.11591159552335739,0.09330959618091583,0.3955349326133728
1789022118745497000,0.1804970703125,0.09086613357067108,0.15500694513320923,0.4376846253871918
1789022118755422000,0.190421875,0.06582067906856537,0.20143266022205353,0.4682278633117676
1789022118765346800,0.200346923828125,0.04199695214629173,0.20693044364452362,0.46883872151374817
1789022118775271700,0.210271728515625,0.03527744114398956,0.18371757864952087,0.42791077494621277
1789022118785196500,0.220196533203125,0.04016435891389847,0.17516547441482544,0.34238970279693604
1789022118795121400,0.230121337890625,0.02672533318400383,0.21975859999656677,0.21349723637104034
1789022118805046300,0.24004638671875,-0.030695954337716103,0.20448698103427887,0.07055488228797913
1789022118814971100,0.24997119140625,-0.1204930767416954,0.0383317656815052,-0.05039634555578232
1789022118824896000,0.25989599609375,-0.18646647036075592,-0.15897755324840546,-0.1334739476442337
1789022118834820900,0.26982080078125,-0.20479241013526917,-0.24755294620990753,-0.1951712965965271
1789022118844746000,0.27974609375,-0.18463388085365295,-0.2994764447212219,-0.2519817352294922
1789022118854670600,0.289670654296875,-0.12415826320648193,-0.3715584874153137,-0.33017241954803467
1789022118864595500,0.299595458984375,-0.007483093533664942,-0.44730573892593384,-0.4309650957584381
1789022118874520300,0.309520263671875,0.1623373180627823,-0.5053378939628601,-0.5287034511566162
1789022118884445400,0.319445556640625,0.28817546367645264,-0.5291616320610046,-0.6343830823898315
1789022118894370300,0.329370361328125,0.3254382014274597,-0.6067414283752441,-0.7021890878677368
1789022118904295200,0.339295166015625,0.32849252223968506,-0.6928733587265015,-0.7168498039245605
1789022118914220000,0.349219970703125,0.46654796600341797,-0.9775363802909851,-0.6863065958023071
1789022118924145000,0.359144775390625,0.8135191798210144,-1.2035562992095947,-0.6325504779815674
1789022118934069800,0.36906982421875,0.9876156449317932,-0.9818124175071716,-0.47983428835868835
1789022118943994600,0.37899462890625,1.07863450050354,-0.9054543375968933,-0.2886336147785187
1789022118953919500,0.38891943359375,1.136055827140808,-0.8767436742782593,-0.018631376326084137
1789022118963844400,0.39884423828125,1.190422773361206,-0.8523091077804565,0.34116798639297485
1789022118973769200,0.408769287109375,1.2063052654266357,-0.7484620809555054,0.7431169748306274
1789022118983694000,0.418694091796875,1.123227596282959,-0.6562215089797974,1.10230553150177
1789022118993619200,0.428619140625,0.9198096394538879,-0.6873756051063538,1.3912445306777954
1789022119003544000,0.4385439453125,0.567951500415802,-0.7973312735557556,1.6013820171356201
1789022119013469000,0.448468994140625,0.0591011680662632,-0.7893900275230408,1.672242283821106
1789022119023393800,0.458393798828125,-0.366060733795166,-0.6348412036895752,1.6038254499435425
1789022119033318700,0.468318603515625,-0.44669488072395325,-0.4540252387523651,1.482263445854187
1789022119043243500,0.478243408203125,-0.28298309445381165,-0.13881902396678925,1.3234385251998901
1789022119053168400,0.48816845703125,-0.16019928455352783,0.2680169343948364,1.0571014881134033
1789022119063093200,0.49809326171875,-0.2023489624261856,0.5160280466079712,0.7046325206756592
1789022119073018400,0.508018310546875,-0.31291547417640686,0.6357575058937073,0.36132651567459106
1789022119082943200,0.517943115234375,-0.3917170464992523,0.6791289448738098,0.09132428467273712
1789022119092868000,0.5278681640625,-0.38011062145233154,0.6546943187713623,-0.10965022444725037
1789022119102793000,0.53779296875,-0.3013090491294861,0.578336238861084,-0.23365578055381775
1789022119112717800,0.5477177734375,-0.22434009611606598,0.5771145224571228,-0.23487751185894012
1789022119122642700,0.557642578125,-0.191964253783226,0.567951500415802,-0.12553271651268005
1789022119132567600,0.567567626953125,-0.18952079117298126,0.4751000702381134,0.05528326332569122
1789022119142492400,0.577492431640625,-0.18096868693828583,0.3455967605113983,0.2214384824037552
1789022119152417300,0.587417236328125,-0.22250749170780182,0.17944152653217316,0.31551164388656616
1789022119162342100,0.597342041015625,-0.346513032913208,-0.04046979174017906,0.3845393657684326
1789022119172267000,0.60726708984375,-0.4747946560382843,-0.28237223625183105,0.4468475878238678
1789022119182192000,0.617192138671875,-0.6177369952201843,-0.3312414288520813,0.4841103255748749
1789022119192117000,0.627116943359375,-0.7631227970123291,-0.3104720115661621,0.528092622756958
1789022119202041900,0.637041748046875,-0.8987348079681396,-0.33918267488479614,0.547029435634613
1789022119211966700,0.646966796875,-0.9934188723564148,-0.3966039717197418,0.5207622051239014
1789022119221891600,0.6568916015625,-1.0288490056991577,-0.38560840487480164,0.47555822134017944
1789022119231816400,0.66681640625,-0.9830341339111328,-0.3672824501991272,0.4218021333217621
1789022119241741300,0.6767412109375,-0.8486438989639282,-0.397825688123703,0.31612253189086914
1789022119251666200,0.686666259765625,-0.5474875569343567,-0.3116937577724457,0.17134757339954376
1789022119261591300,0.69659130859375,-0.04841103404760361,-0.21151192486286163,-0.038789913058280945
1789022119271516200,0.70651611328125,0.3633118271827698,-0.2084576040506363,-0.28069236874580383
1789022119281441000,0.71644091796875,0.4592176079750061,-0.22983787953853607,-0.4511236250400543
1789022119291366000,0.726365966796875,0.4127918779850006,-0.264046311378479,-0.517707884311676
1789022119301290800,0.736290771484375,0.35903576016426086,-0.36361727118492126,-0.5464185476303101
1789022119311215600,0.746215576171875,0.31322091817855835,-0.5328267812728882,-0.6068941354751587
1789022119321140700,0.756140625,0.24602578580379486,-0.7466294765472412,-0.7376192212104797
1789022119331065600,0.766065673828125,0.18432845175266266,-0.9427170753479004,-0.8854485154151917
1789022119340990500,0.775990478515625,0.17394374310970306,-1.0086904764175415,-0.9447023868560791
1789022119350915300,0.785915283203125,0.21975859999656677,-0.8669698238372803,-0.8555161356925964
1789022119360840200,0.795840087890625,0.2747364342212677,-0.5566505193710327,-0.6087267398834229
1789022119370765000,0.80576513671875,0.2545779049396515,-0.550541877746582,-0.34666576981544495
1789022119380690000,0.81568994140625,0.1311832070350647,-0.7197514176368713,-0.07483093440532684
1789022119390615000,0.825614990234375,-0.008704823441803455,-0.7838922142982483,0.22449280321598053
1789022119400540000,0.835539794921875,-0.0850629210472107,-0.6818777918815613,0.4731147587299347
1789022119410464800,0.84546484375,-0.11927134543657303,-0.6629409790039062,0.6062833070755005
1789022119420389600,0.8553896484375,-0.18341214954853058,-0.6513345837593079,0.7174606919288635
1789022119430314500,0.865314453125,-0.2176205813884735,-0.7002037763595581,0.8848376274108887
1789022119440239400,0.8752392578125,-0.14981459081172943,-0.8211549520492554,1.0467168092727661
1789022119450164200,0.885164306640625,-0.0062613640911877155,-0.949436604976654,1.1731657981872559
1789022119460089000,0.895089111328125,0.09758564829826355,-1.0728312730789185,1.3124430179595947
1789022119470014200,0.90501416015625,0.1262962967157364,-1.2102758884429932,1.3741402626037598
1789022119479939000,0.91493896484375,0.1824958473443985,-1.3379465341567993,1.2696824073791504
1789022119489864000,0.924864013671875,0.3205513060092926,-1.504712700843811,1.0338886976242065
1789022119499788800,0.934788818359375,0.38957902789115906,-1.6305508613586426,0.8268054723739624
1789022119509713700,0.944713623046875,0.3223838806152344,-1.6946916580200195,0.72173672914505
1789022119519638800,0.954638671875,0.2124282270669937,-1.6898046731948853,0.6899717450141907
1789022119529563600,0.964563720703125,0.18127411603927612,-1.5737403631210327,0.6966912746429443
1789022119539488500,0.974488525390625,0.18555018305778503,-1.3391683101654053,0.664926290512085
1789022119549413400,0.984413330078125,0.1409570425748825,-1.0557270050048828,0.5971203446388245
1789022119559338200,0.994338134765625,0.09880737960338593,-0.818711519241333,0.4828886091709137
1789022119569263400,1.004263427734375,0.07131846249103546,-0.6556106209754944,0.3136790692806244
1789022119579188200,1.014188232421875,0.0487164668738842,-0.5206094980239868,0.15179990231990814
1789022119589113000,1.024113037109375,0.03283398225903511,-0.4686860144138336,0.04245510324835777
1789022119599038000,1.034037841796875,0.017562363296747208,-0.5713112950325012,0.0308486707508564
1789022119608962800,1.043962890625,-0.0007635809597559273,-0.7570141553878784,0.17073670029640198
1789022119618887700,1.0538876953125,-0.0001527161948615685,-0.9482148289680481,0.4010327160358429
1789022119628812800,1.063812744140625,0.10735948383808136,-1.0813833475112915,0.6386591196060181
1789022119638737700,1.073737548828125,0.3468184769153595,-1.1669044494628906,0.8652899861335754
1789022119648662500,1.08366259765625,0.7286089658737183,-1.374598503112793,1.0161736011505127
1789022119658587400,1.09358740234375,0.9100357890129089,-1.5523601770401,0.9312633275985718
1789022119668512300,1.10351220703125,0.8672752976417542,-1.8303035497665405,0.7663298845291138
1789022119678437000,1.11343701171875,0.7841976881027222,-2.081979990005493,0.5842921733856201
1789022119688362200,1.1233623046875,0.7622065544128418,-2.2737913131713867,0.5012145638465881
1789022119698287000,1.133287109375,0.8501710295677185,-2.45888352394104,0.5445859432220459
1789022119708212000,1.1432119140625,1.011439323425293,-2.755152940750122,0.6514872908592224
1789022119718136800,1.15313671875,1.218522548675537,-3.25178599357605,0.7516691088676453
1789022119728061700,1.163061767578125,1.4708096981048584,-3.8241662979125977,0.8035926222801208
1789022119737986800,1.17298681640625,1.680947184562683,-4.442972183227539,0.8475748896598816
1789022119747911700,1.18291162109375,1.7078251838684082,-5.0281805992126465,0.906828761100769
1789022119757836500,1.19283642578125,1.4976876974105835,-5.612778186798096,0.9434806704521179
1789022119767761400,1.202761474609375,1.216689944267273,-6.1540045738220215,0.9544762372970581
1789022119777686300,1.212686279296875,1.1323906183242798,-6.624370574951172,0.9440914988517761
1789022119787611400,1.222611328125,1.2954914569854736,-6.932246208190918,0.8677334189414978
1789022119797536300,1.232536376953125,1.6027565002441406,-6.984169960021973,0.6875283122062683
1789022119807461000,1.242461181640625,1.9619449377059937,-6.850390434265137,0.38759371638298035
1789022119817386000,1.252385986328125,2.246608018875122,-6.700728416442871,0.007635809946805239
1789022119827310800,1.262310791015625,2.5410447120666504,-6.573057651519775,-0.41325002908706665
1789022119837236000,1.272236083984375,2.9833109378814697,-6.533351421356201,-0.8384119272232056
1789022119847160800,1.282160888671875,3.397477149963379,-6.400183200836182,-1.303279995918274
1789022119857085700,1.292085693359375,3.727344274520874,-6.254796981811523,-1.6533055305480957
1789022119867010800,1.3020107421875,3.5996735095977783,-5.885834693908691,-1.5415172576904297
1789022119876935700,1.311935791015625,2.9936954975128174,-5.435627460479736,-1.257465124130249
1789022119886860500,1.321860595703125,2.4384195804595947,-4.709309101104736,-0.971580445766449
1789022119896785400,1.331785400390625,2.3938262462615967,-4.105774879455566,-0.7870992422103882
1789022119906710500,1.34171044921875,2.545931577682495,-3.439932346343994,-0.694247841835022
1789022119916635400,1.351635498046875,2.7377431392669678,-2.6641340255737305,-0.5702422857284546
1789022119926560300,1.361560302734375,3.0254604816436768,-1.9616395235061646,-0.4871646761894226
1789022119936485000,1.371485107421875,3.3901467323303223,-1.2933534383773804,-0.45967575907707214
1789022119946410200,1.38141015625,3.690692186355591,-0.5474875569343567,-0.4523453712463379
1789022119956335000,1.391335205078125,3.853182315826416,0.21120649576187134,-0.4523453712463379
1789022119966260000,1.401260009765625,3.9191555976867676,0.7554870247840881,-0.4407389461994171
1789022119976184800,1.411184814453125,3.909381866455078,1.1586577892303467,-0.3191768527030945
1789022119986109700,1.421109619140625,3.834245443344116,1.3571888208389282,-0.11087195575237274
1789022119996034800,1.431034912109375,3.7475028038024902,1.3333650827407837,0.15607595443725586
1789022120005959700,1.440959716796875,3.607614755630493,1.1843141317367554,0.44990190863609314
1789022120015884500,1.450884521484375,3.4249660968780518,0.9644027948379517,0.7791580557823181
1789022120025809400,1.460809326171875,3.2423174381256104,0.670576810836792,1.1157444715499878
1789022120035734300,1.470734375,3.0450081825256348,0.34193155169487,1.4401136636734009
1789022120045659400,1.480659423828125,2.825096845626831,0.11102467030286789,1.7400482892990112
1789022120055584300,1.490584228515625,2.57586407661438,-0.03741546720266342,1.9062035083770752
1789022120065509000,1.500509033203125,2.3156356811523438,-0.12660172581672668,1.8994840383529663
1789022120075434200,1.510434326171875,2.059683322906494,-0.11499529331922531,1.7846415042877197
1789022120085359000,1.520359130859375,1.825722098350525,-0.009926552884280682,1.6294817924499512
1789022120095284000,1.530283935546875,1.6284128427505493,0.14889828860759735,1.4834851026535034
1789022120105209000,1.540208984375,1.4384338855743408,0.34193155169487,1.3936879634857178
1789022120115134000,1.550134033203125,1.2399027347564697,0.6015490889549255,1.3448188304901123
1789022120125058800,1.560058837890625,1.0279327630996704,0.8428406715393066,1.2629629373550415
1789022120134983700,1.569983642578125,0.7750346660614014,0.9521854519844055,1.1322379112243652
1789022120144908500,1.579908447265625,0.48181959986686707,0.986393928527832,1.000291109085083
1789022120154833700,1.589833740234375,0.18005239963531494,1.0022764205932617,0.9080504775047302
1789022120164758500,1.599758544921875,-0.06368265300989151,1.034041404724121,0.9104939699172974
1789022120174683400,1.609683349609375,-0.24694208800792694,1.0218240022659302,0.9966259002685547
1789022120184608300,1.619608154296875,-0.3764454126358032,0.9503529071807861,1.1560616493225098
1789022120194533400,1.629533447265625,-0.4607447683811188,0.7707586288452148,1.313053846359253
1789022120204458200,1.639458251953125,-0.49189886450767517,0.25579962134361267,1.239139199256897
1789022120214383400,1.64938330078125,-0.4656316637992859,-0.26282456517219543,0.9001092314720154
1789022120224308000,1.659307861328125,-0.33857181668281555,-0.5401571989059448,0.6374374032020569
1789022120234233000,1.669233154296875,-0.2964221239089966,-0.7735075354576111,0.42913252115249634
1789022120286198000,1.721197998046875,-0.38988444209098816,1.1977530717849731,0.05711585655808449
1789022120296123000,1.731122802734375,-0.3813323378562927,1.530063509941101,0.9379828572273254
1789022120306048000,1.741048095703125,-0.35323256254196167,0.07009673118591309,0.7302888631820679
1789022120315972900,1.750972900390625,-0.40088000893592834,-1.3642138242721558,-0.041844237595796585
1789022120325897700,1.760897705078125,-0.5303833484649658,-2.350149631500244,-0.16157373785972595
1789022120335822800,1.77082275390625,-0.6806560754776001,-2.8009676933288574,0.02412915788590908
1789022120345747700,1.780747802734375,-0.7441860437393188,-2.6250386238098145,0.42852163314819336
1789022120355672600,1.790672607421875,-0.7136427760124207,-2.5798346996307373,0.6582068204879761
1789022120365597700,1.80059765625,-0.5426006317138672,-2.860832452774048,-0.02718348242342472
1789022120375522600,1.8105224609375,-0.5719221234321594,-2.6592471599578857,-0.07483093440532684
1789022120385447400,1.820447509765625,-0.490066260099411,-2.548069715499878,0.03634645417332649
1789022120395372500,1.83037255859375,-0.4644099473953247,-2.21575927734375,0.07544180005788803
1789022120405297400,1.84029736328125,-0.5377137064933777,-1.818697214126587,-0.24709481000900269
1789022120415222300,1.85022216796875,-0.8455895781517029,-1.5413645505905151,-1.0180062055587769
1789022120425147100,1.860147216796875,-0.9518800377845764,-1.799149513244629,-1.3368775844573975
1789022120435072300,1.870072265625,-0.49984011054039,-2.300058603286743,-0.4205803871154785
1789022120444997000,1.8799970703125,-0.12232567369937897,-1.9103268384933472,-0.0015271619195118546
1789022120454922000,1.889921875,-0.19685117900371552,-2.2450807094573975,0.16707152128219604
1789022120464847000,1.89984716796875,0.008399390615522861,-1.096655011177063,-0.40225446224212646
1789022120474772000,1.90977197265625,0.14401137828826904,-0.18035782873630524,-0.6123919486999512
1789022120484696800,1.91969677734375,0.18555018305778503,-0.16447533667087555,-0.6062833070755005
1789022120494622000,1.9296220703125,0.11346813291311264,-0.34895649552345276,-0.5830704569816589
1789022120504546800,1.939546875,0.1049160286784172,-0.22189663350582123,-0.629496157169342
1789022120514471700,1.9494716796875,0.2551887631416321,-0.04841103404760361,-0.5952877402305603
1789022120524396800,1.959396728515625,0.771980345249176,0.05177079141139984,-0.5757400393486023
1789022120534321700,1.96932177734375,1.4500402212142944,0.1409570425748825,-0.5830704569816589
1789022120544246500,1.97924658203125,2.2148430347442627,0.34987279772758484,-0.6441569328308105
1789022120554171600,1.989171630859375,3.032180070877075,0.6601921319961548,-0.6038398146629333
1789022120564096500,1.999096435546875,3.772548198699951,1.0206023454666138,-0.42424559593200684
1789022120574021400,2.009021484375,4.314996242523193,1.4201078414916992,-0.20922118425369263
1789022120583946500,2.018946533203125,4.74260139465332,1.7976223230361938,-0.22876885533332825
1789022120593871400,2.028871337890625,4.968621253967285,1.845269799232483,-0.09804379940032959
1789022120603796200,2.038796142578125,3.878838539123535,1.844048023223877,0.24526220560073853
1789022120613721300,2.048721435546875,1.662621259689331,1.834274172782898,0.3808741867542267
1789022120623646200,2.058646240234375,1.1042908430099487,1.569158911705017,-0.051618073135614395
1789022120633571000,2.068571044921875,1.5648828744888306,1.3162609338760376,-0.3546070158481598
1789022120643496200,2.07849609375,1.8055635690689087,1.3871212005615234,-0.5879573225975037
1789022120653421000,2.088421142578125,1.9350669384002686,1.6730059385299683,-0.7345649003982544
1789022120663346000,2.098345947265625,1.9790492057800293,1.7328706979751587,-0.8103121519088745
1789022120673270800,2.108270751953125,1.8654283285140991,1.6449061632156372,-0.7541125416755676
1789022120683196000,2.11819580078125,1.7163772583007812,1.3333650827407837,-0.5965094566345215
1789022120693120800,2.128120849609375,1.457370638847351,0.588110089302063,-0.43890634179115295
1789022120703045600,2.138045654296875,1.0908517837524414,-0.3452913165092468,-0.2886336147785187
1789022120712970800,2.147970703125,0.8098539710044861,-0.9585995674133301,-0.24465134739875793
1789022120722895600,2.1578955078125,0.49342602491378784,-1.4338523149490356,-0.33750277757644653
1789022120732820500,2.167820556640625,0.20998476445674896,-2.0642647743225098,-0.4987711012363434
1789022120742745600,2.17774560546875,-0.030695954337716103,-2.68001651763916,-0.7492256760597229
1789022120752670500,2.18767041015625,-0.2286161482334137,-3.0282094478607178,-0.9251546859741211
1789022120762595300,2.19759521484375,-0.2542724609375,-2.7093379497528076,-0.639270007610321
1789022120772520400,2.2075205078125,-0.1663079410791397,-1.7759366035461426,-0.20311254262924194
1789022120782444800,2.21744482421875,-0.2652680277824402,-1.0526727437973022,-0.1847866028547287
1789022120792370000,2.227369873046875,-0.15531237423419952,-0.8352048993110657,-0.15057817101478577
1789022120802295000,2.237294921875,-0.08323032408952713,-1.3715441226959229,0.1340848207473755
1789022120812220000,2.247219970703125,-0.18096868693828583,-1.2371538877487183,0.36743515729904175
1789022120822145000,2.25714501953125,-0.0746782198548317,-0.42103853821754456,0.3894262909889221
1789022120832070000,2.26706982421875,-0.09666935354471207,-0.1510363221168518,0.4101957082748413
1789022120841995000,2.2769951171875,-0.2835939824581146,-0.09361502528190613,0.34788748621940613
1789022120851920000,2.286919921875,-0.5145008563995361,0.16783510148525238,0.20250166952610016
1789022120861845000,2.296844970703125,-0.7527381181716919,0.39018988609313965,0.05100720748305321
1789022120871769900,2.306769775390625,-0.9164499044418335,0.32421648502349854,-0.035735588520765305
1789022120881695000,2.316695068359375,-0.8321505188941956,-0.0019853105768561363,-0.05894844979047775
1789022120891619800,2.326619873046875,-0.41554075479507446,-0.25243985652923584,-0.10537417232990265
1789022120901544700,2.336544677734375,0.24174973368644714,-0.11804962158203125,-0.22876885533332825
1789022120911469800,2.3464697265625,0.9882264733314514,0.2594648003578186,-0.16035200655460358
1789022120921394700,2.356394775390625,1.606421709060669,0.6553052067756653,0.0021380267571657896
1789022120931319600,2.366319580078125,2.157421588897705,1.1220059394836426,0.2684750556945801
1789022120941244700,2.37624462890625,2.4066545963287354,1.3883429765701294,0.703410804271698
1789022120951169500,2.38616943359375,2.2759294509887695,1.5459460020065308,1.127350926399231
1789022120961094400,2.396094482421875,2.0083706378936768,1.6021455526351929,1.408348798751831
1789022120971019500,2.40601953125,1.6894992589950562,1.658345103263855,1.4914263486862183
1789022120980944400,2.4159443359375,1.3498584032058716,1.5483895540237427,1.4340050220489502
1789022120990869000,2.425868896484375,0.9882264733314514,1.0682498216629028,1.2996147871017456
1789022121000793600,2.435793701171875,0.8281798958778381,0.5758927464485168,1.118798851966858
1789022121010718200,2.44571826171875,0.680350661277771,0.03222311660647392,0.8610138893127441
1789022121020642800,2.455642822265625,0.41034841537475586,-0.6898190379142761,0.5555815100669861
1789022121030567400,2.4655673828125,0.2747364342212677,-1.068555235862732,0.5409207344055176
1789022121040491800,2.47549169921875,0.0902552679181099,-1.7258456945419312,0.3845393657684326
1789022121050416400,2.48541650390625,-0.25793763995170593,-2.324493169784546,0.03145953640341759
1789022121060341000,2.495341064453125,-0.771064043045044,-2.9805619716644287,-0.41813695430755615
1789022121070265600,2.505265625,-1.317177176475525,-3.576766014099121,-0.776103675365448
1789022121080190200,2.515190185546875,-1.4344632625579834,-3.909076452255249,-0.8921679854393005
1789022121090115600,2.525115478515625,-1.8681771755218506,-4.350121021270752,-0.8811724185943604
1789022121100041000,2.535041015625,-2.4937026500701904,-4.203513145446777,-0.32162031531333923
1789022121109966300,2.54496630859375,-2.481485366821289,-3.757581949234009,-0.23854269087314606
1789022121119891700,2.5548916015625,-2.2114832401275635,-2.6946773529052734,-0.44379326701164246
1789022121129817000,2.564817138671875,-1.8095341920852661,-1.5853468179702759,-0.7687733173370361
1789022121139742500,2.574742431640625,-1.3318378925323486,-0.9366084337234497,-1.101083755493164
1789022121149667800,2.584667724609375,-0.9274454712867737,-0.3196350038051605,-1.404072642326355
1789022121159593200,2.59459326171875,-0.9836450219154358,0.3633118271827698,-1.7876957654953003
1789022121169518600,2.6045185546875,-1.5468623638153076,1.0523673295974731,-2.1981968879699707
1789022121179444000,2.61444384765625,-2.3177735805511475,1.2258528470993042,-2.156658172607422
1789022121189368800,2.624368896484375,-2.727053165435791,0.8727730512619019,-1.3258819580078125
1789022121199293700,2.634293701171875,-2.221256971359253,0.47815442085266113,-0.7431169748306274
1789022121209218800,2.64421875,-1.1742348670959473,0.45738500356674194,-0.3790415823459625
1789022121219143700,2.654143798828125,-0.735633909702301,0.36453354358673096,-0.09071341902017593
1789022121229068500,2.664068603515625,-0.5926915407180786,0.47693267464637756,0.0461202897131443
1789022121238993700,2.67399365234375,-0.4497492015361786,0.4915934205055237,0.054672397673130035
1789022121248918500,2.68391845703125,-0.264046311378479,0.4451677203178406,0.026572618633508682
1789022121258843400,2.693843505859375,-0.11866047978401184,0.22525638341903687,0.04245510324835777
1789022121268768500,2.7037685546875,0.010842849500477314,0.18127411603927612,0.02779434807598591
1789022121278693400,2.713693359375,0.1879936307668686,0.21426081657409668,-0.14813470840454102
1789022121288618200,2.7236181640625,0.08781181275844574,0.5184714794158936,-0.2006690800189972
1789022121298543400,2.73354345703125,-0.09789107739925385,0.6357575058937073,-0.3020726442337036
1789022121308468500,2.743468505859375,-0.17974695563316345,0.8373429179191589,-0.4425715208053589
1789022121318393300,2.753393310546875,-0.09300415962934494,1.0401500463485718,-0.4828886091709137
1789022121328318500,2.763318359375,-0.06979130208492279,0.976620078086853,-0.3069595396518707
1789022121338243300,2.773243408203125,0.03405570983886719,0.6724094152450562,-0.08093958348035812
1789022121348168400,2.78316845703125,0.21120649576187134,0.14950916171073914,0.11331541836261749
1789022121358093300,2.79309326171875,0.3614792227745056,-0.40026915073394775,0.24892739951610565
1789022121368018400,2.803018310546875,0.4176788032054901,-0.44669488072395325,0.3503309488296509
1789022121377943300,2.812943359375,0.49831295013427734,-0.6189587116241455,0.3992001414299011
1789022121387868400,2.822868408203125,0.5850557684898376,-0.8009964227676392,0.35643959045410156
1789022121397793300,2.832793212890625,0.7841976881027222,-0.9158390164375305,0.364991694688797
1789022121407718400,2.842718505859375,1.1140646934509277,-1.0441206693649292,0.4272999167442322
1789022121417643300,2.852643310546875,1.575878381729126,-1.0538945198059082,0.5384773015975952
1789022121427568400,2.862568359375,2.014479398727417,-0.9414953589439392,0.5604684352874756
1789022121437493200,2.8724931640625,2.1244349479675293,-0.7008146047592163,0.39186975359916687
1789022121447418400,2.88241845703125,1.5587742328643799,-0.17058399319648743,0.10231985151767731
1789022121457343200,2.89234326171875,0.6412553191184998,0.25702136754989624,0.07299833744764328
1789022121467268400,2.902268310546875,0.0951421856880188,0.5441278219223022,0.0717766135931015
1789022121477193500,2.912193359375,0.09636391699314117,0.568562388420105,-0.051618073135614395
1789022121487117800,2.922117919921875,0.8135191798210144,0.6809614896774292,-0.31673339009284973
1789022121497042400,2.93204248046875,1.8495458364486694,1.6339105367660522,-0.35705047845840454
1789022121506967000,2.941967041015625,2.240499258041382,2.724915027618408,-0.3081812858581543
1789022121516891600,2.9518916015625,1.8605413436889648,2.944826364517212,-0.4841103255748749
1789022121526816300,2.961816162109375,1.1152863502502441,2.805549144744873,-0.508544921875
1789022121536740900,2.971740966796875,-0.030695954337716103,2.0529637336730957,-0.6673697829246521
1789022121546665500,2.98166552734375,-1.62505304813385,1.445764183998108,-1.7156137228012085
1789022121556590000,2.991590087890625,-1.9549200534820557,2.590524911880493,-2.642906427383423
1789022121566514700,3.0015146484375,0.6302597522735596,4.453662395477295,-1.9672900438308716
1789022121576439300,3.011439208984375,1.1494947671890259,6.41331672668457,-0.4572322964668274
1789022121586364700,3.02136474609375,0.6730202436447144,5.000997066497803,-0.07971785217523575
1789022121596289800,3.031289794921875,0.13301581144332886,1.9344559907913208,-0.8567378520965576
1789022121606215200,3.041215087890625,0.9943351149559021,-1.215162754058838,-1.082757830619812
1789022121616140500,3.051140625,1.770133376121521,-2.0300564765930176,-1.2415826320648193
1789022121626066000,3.06106591796875,1.264337420463562,-1.0734421014785767,-0.7467821836471558
1789022121635991300,3.0709912109375,0.5569559335708618,-0.5395463109016418,-0.29474225640296936
1789022121645916700,3.080916748046875,-0.036804601550102234,-0.3770562708377838,0.03023780696094036
1789022121655842000,3.090842041015625,-0.3214675784111023,-0.20112723112106323,0.3271180987358093
1789022121665767400,3.100767333984375,-0.43631017208099365,0.046883873641490936,0.4456258714199066
1789022121675692800,3.11069287109375,-0.5377137064933777,0.3364337682723999,0.38820457458496094
1789022121685618000,3.120617919921875,-0.6586649417877197,0.5673406720161438,0.2770271897315979
1789022121695542800,3.130542724609375,-0.8223767280578613,0.734717607498169,0.19272783398628235
1789022121705468000,3.140468017578125,-0.9567669630050659,0.9424116611480713,0.20861032605171204
1789022121715392800,3.150392822265625,-1.0190751552581787,1.2331832647323608,0.2672533392906189
1789022121725318000,3.16031787109375,-1.0361794233322144,1.326034665107727,0.2208276242017746
1789022121735242800,3.17024267578125,-1.0545053482055664,1.2063052654266357,0.08399390429258347
1789022121745168000,3.18016796875,-1.0923789739608765,1.0083850622177124,-0.041844237595796585
1789022121755092700,3.1900927734375,-1.0337358713150024,0.8984293937683105,-0.05039634555578232
1789022121765017900,3.200017822265625,-0.8810197114944458,0.8886555433273315,-0.06261363625526428
1789022121774942700,3.209942626953125,-0.634230375289917,0.9436333775520325,-0.1432477980852127
1789022121784867800,3.219867919921875,-0.503505289554596,0.8520036339759827,-0.03940077871084213
1789022121794793000,3.22979296875,-0.29214608669281006,0.568562388420105,0.06444623321294785
1789022121804717800,3.2397177734375,-0.20418155193328857,0.4085158109664917,-0.008857538923621178
1789022121814643000,3.249642822265625,-0.14798198640346527,0.3315468728542328,-0.3032943606376648
1789022121824567800,3.25956787109375,-0.04413498193025589,0.06154462695121765,-0.6160571575164795
1789022121834493000,3.269492919921875,-0.07223475724458694,-0.12171480804681778,-0.8323032855987549
1789022121844417800,3.279417724609375,-0.2799287736415863,0.06765327602624893,-0.9239329695701599
1789022121854343000,3.289343017578125,-0.3935496211051941,0.33765551447868347,-0.8946114778518677
1789022121864267800,3.299267822265625,-0.4851793646812439,0.5062541961669922,-0.7565560340881348
1789022121874193000,3.30919287109375,-0.6085740327835083,0.6003273725509644,-0.4474584460258484
1789022121884117800,3.31911767578125,-0.7368556261062622,0.47204574942588806,-0.33505934476852417
1789022121894043000,3.32904296875,-0.7124210596084595,-0.02153298258781433,-0.5097666382789612
1789022121903967700,3.3389677734375,-0.6305651664733887,-0.5542070865631104,-0.6637045741081238
1789022121913892900,3.348892822265625,-0.5902481079101562,-0.7887791395187378,-0.7516691088676453
1789022121923817700,3.358817626953125,-0.6232348084449768,-0.9610430002212524,-0.8017600178718567
1789022121933742800,3.368742919921875,-0.7270817756652832,-0.9805907011032104,-0.8640682101249695
1789022121943667700,3.378667724609375,-0.7783944606781006,-0.7105884552001953,-0.8530726432800293
1789022121953592800,3.3885927734375,-0.8419243693351746,-0.19501857459545135,-0.7357866168022156
1789022121963518000,3.39851806640625,-0.9934188723564148,0.18005239963531494,-0.6466003656387329
1789022121973442800,3.40844287109375,-1.19866943359375,0.32299473881721497,-0.6527090072631836
1789022121983367400,3.418367431640625,-1.3318378925323486,0.27168211340904236,-0.6624828577041626
1789022121993292000,3.4282919921875,-1.363602876663208,0.1104138121008873,-0.6233875155448914
1789022122003216600,3.438216552734375,-1.2890774011611938,-0.12782345712184906,-0.5232056975364685
1789022122013141500,3.4481416015625,-1.2621994018554688,-0.4283689260482788,-0.4462367296218872
1789022122023066000,3.458066162109375,-1.3147337436676025,-0.7753401398658752,-0.4572322964668274
1789022122032990700,3.46799072265625,-1.3098467588424683,-0.9634864926338196,-0.5378664135932922
1789022122042915300,3.477915283203125,-1.1937824487686157,-0.7704532146453857,-0.5904008150100708
1789022122052840000,3.48783984375,-1.0471749305725098,-0.29397866129875183,-0.5232056975364685
1789022122062764500,3.4977646484375,-0.9188933372497559,0.20693044364452362,-0.35582873225212097
1789022122072689200,3.507689208984375,-0.8297070860862732,0.4195113778114319,-0.15668681263923645
1789022122082613800,3.51761376953125,-0.7857248187065125,0.27656903862953186,-0.022296564653515816
1789022122092538400,3.527538330078125,-0.725860059261322,0.009010255336761475,-0.022296564653515816
1789022122102463000,3.537462890625,-0.6073523163795471,-0.23533566296100616,-0.09926552325487137
1789022122112387800,3.547387939453125,-0.43631017208099365,-0.4271472096443176,-0.12980876863002777
1789022122122312400,3.5573125,-0.2701549530029297,-0.5187768936157227,-0.06383536756038666
1789022122132237000,3.567237060546875,-0.11866047978401184,-0.46624255180358887,0.011911863461136818
1789022122142161700,3.57716162109375,-0.0025961752980947495,-0.314748078584671,0.02779434807598591
1789022122152086300,3.587086181640625,0.15012001991271973,-0.16936226189136505,0.03023780696094036
1789022122162011000,3.597010986328125,0.2808450758457184,-0.12660172581672668,0.03145953640341759
1789022122171935500,3.606935546875,0.40546149015426636,-0.14370593428611755,0.004581485874950886
1789022122181860000,3.616860107421875,0.5410735011100769,-0.17791436612606049,-0.016187917441129684
1789022122191784700,3.62678466796875,0.680350661277771,-0.15225805342197418,-0.01740964688360691
1789022122201709600,3.63670947265625,0.8306233882904053,-0.02153298258781433,0.00946840364485979
1789022122211634200,3.64663427734375,1.001665472984314,0.16416990756988525,0.06811141967773438
1789022122221558800,3.656558837890625,1.1714859008789062,0.27168211340904236,0.14263692498207092
1789022122231483400,3.6664833984375,1.3205369710922241,0.24724751710891724,0.17806708812713623
1789022122241408000,3.676407958984375,1.4353795051574707,0.14828743040561676,0.17073670029640198
1789022122251332600,3.68633251953125,1.5270092487335205,0.05543597787618637,0.1597411334514618
1789022122261257200,3.69625732421875,1.6113085746765137,0.006566796451807022,0.16096286475658417
1789022122271181800,3.706181884765625,1.6723949909210205,0.001679878099821508,0.17195843160152435
1789022122281106400,3.7161064453125,1.7285946607589722,0.03955349326133728,0.18661919236183167
1789022122291032800,3.72603271484375,1.760359525680542,0.13851359486579895,0.18784092366695404
1789022122300959000,3.735958984375,1.7762420177459717,0.2680169343948364,0.1902843713760376
1789022122310885000,3.745885009765625,1.799454927444458,0.4280634820461273,0.22449280321598053
1789022122320811300,3.755811279296875,1.8483240604400635,0.5600103139877319,0.2672533392906189
1789022122330737400,3.7657373046875,1.8898628950119019,0.6052142977714539,0.2611446976661682
1789022122340663800,3.775663818359375,1.9326233863830566,0.6455313563346863,0.25992295145988464
1789022122350590000,3.78558984375,1.9619449377059937,0.6540834903717041,0.2868010103702545
1789022122360516000,3.79551611328125,1.9888230562210083,0.7066178321838379,0.3039052188396454
1789022122370442200,3.805442138671875,1.965610146522522,0.7078395485877991,0.281914085149765
1789022122380368600,3.81536865234375,1.8825324773788452,0.6357575058937073,0.27091851830482483
1789022122390293500,3.82529345703125,1.808007001876831,0.6345357894897461,0.28557929396629333
1789022122400218600,3.835218505859375,1.733481526374817,0.6113229393959045,0.3087921440601349
1789022122410143500,3.8451435546875,1.6381865739822388,0.5331322550773621,0.3026835024356842
1789022122420068600,3.855068603515625,1.5807653665542603,0.5600103139877319,0.28435754776000977
1789022122429993500,3.864993408203125,1.5636610984802246,0.6663007736206055,0.30634868144989014
1789022122439918600,3.874918701171875,1.5404483079910278,0.7481566667556763,0.34055712819099426
1789022122449843500,3.884843505859375,1.5099049806594849,0.744491457939148,0.33200499415397644
1789022122459768600,3.8947685546875,1.3938406705856323,0.6223185062408447,0.25870123505592346
1789022122469693400,3.904693359375,1.1910336017608643,0.39996370673179626,0.1438586562871933
1789022122479618600,3.91461865234375,1.0456477403640747,0.3462076187133789,0.10598503798246384
1789022122489543400,3.92454345703125,0.9564615488052368,0.31444263458251953,0.11453714966773987
1789022122499468500,3.934468505859375,0.8672752976417542,0.17883066833019257,0.10965022444725037
1789022122509393400,3.944393310546875,0.7670934200286865,0.04810560122132301,0.09010255336761475
1789022122519318500,3.954318603515625,0.6302597522735596,-0.10705405473709106,0.05589412897825241
1789022122529243400,3.964243408203125,0.49831295013427734,-0.18280129134655,0.029016077518463135
1789022122539168500,3.97416845703125,0.38102689385414124,-0.18402300775051117,0.010690134018659592
1789022122549093600,3.98409375,0.2331976294517517,-0.23533566296100616,-0.032070402055978775
1789022122559018500,3.9940185546875,0.08781181275844574,-0.25121814012527466,-0.07483093440532684
1789022122568943600,4.003943603515625,-0.012370011769235134,-0.29886558651924133,-0.11881320178508759
1789022122578868500,4.013868408203125,-0.0844520553946495,-0.388051837682724,-0.1591302752494812
1789022122588793600,4.023793701171875,-0.13942988216876984,-0.4992292523384094,-0.2006690800189972
1789022122598718700,4.03371875,-0.191964253783226,-0.6519454121589661,-0.26419901847839355
1789022122608643600,4.0436435546875,-0.25182899832725525,-0.7924443483352661,-0.34238970279693604
1789022122618568700,4.053568603515625,-0.3068068325519562,-0.8547525405883789,-0.4108065664768219
1789022122628493800,4.063493896484375,-0.34345871210098267,-0.7936660647392273,-0.4462367296218872
1789022122638419000,4.0734189453125,-0.3837758004665375,-0.5920807123184204,-0.43890634179115295
1789022122648343800,4.08334375,-0.44730573892593384,-0.3416261374950409,-0.42302384972572327
1789022122658269000,4.09326904296875,-0.5474875569343567,-0.09972367435693741,-0.4315759539604187
1789022122668194000,4.103194091796875,-0.6745474338531494,0.11652245372533798,-0.41935867071151733
1789022122678119000,4.113118896484375,-0.7918334603309631,0.21059563755989075,-0.3692677617073059
1789022122688043800,4.123043701171875,-0.8663589954376221,0.15317434072494507,-0.314289927482605
1789022122697968400,4.132968505859375,-0.892015278339386,0.022449281066656113,-0.22388194501399994
1789022122707893000,4.14289306640625,-0.9152281284332275,-0.19990549981594086,-0.12980876863002777
1789022122717817900,4.15281787109375,-0.9457713961601257,-0.4601338803768158,-0.07605266571044922
1789022122727742500,4.162742431640625,-0.9604321718215942,-0.6446150541305542,-0.1029307171702385
1789022122737667000,4.1726669921875,-0.9469931125640869,-0.6788234710693359,-0.1542433500289917
1789022122747592000,4.182592041015625,-0.9237802624702454,-0.6385064125061035,-0.18600831925868988
1789022122757516500,4.1925166015625,-0.929888904094696,-0.5749764442443848,-0.189673513174057
1789022122767441200,4.202441162109375,-1.012966513633728,-0.5664243698120117,-0.20189081132411957
1789022122777366000,4.212365966796875,-1.142469882965088,-0.5371028780937195,-0.23854269087314606
1789022122787291400,4.22229150390625,-1.2279908657073975,-0.4332558512687683,-0.25809037685394287
1789022122797216500,4.232216552734375,-1.2487603425979614,-0.27320927381515503,-0.23732095956802368
1789022122807142000,4.242141845703125,-1.246316909790039,-0.1302669197320938,-0.1798996776342392
1789022122817067300,4.2520673828125,-1.2206605672836304,-0.09361502528190613,-0.12370011955499649
1789022122826992600,4.26199267578125,-1.2035562992095947,-0.10338886082172394,-0.1444695144891739
1789022122836918000,4.27191796875,-1.208443284034729,-0.07528908550739288,-0.1701258420944214
1789022122846843400,4.281843505859375,-1.2340996265411377,0.007788525894284248,-0.13591741025447845
1789022122856768800,4.291768798828125,-1.2707514762878418,-0.006872228812426329,-0.12492185086011887
1789022122866694100,4.301694091796875,-1.3220640420913696,-0.21578797698020935,-0.27030766010284424
1789022122876619500,4.31161962890625,-1.3868157863616943,-0.57008957862854,-0.5109884142875671
1789022122886544600,4.321544677734375,-1.440571904182434,-0.873078465461731,-0.6307178735733032
1789022122896469800,4.3314697265625,-1.4967714548110962,-0.9781472086906433,-0.5720748901367188
1789022122906394600,4.34139453125,-1.5603013038635254,-0.9036217331886292,-0.4266890585422516
1789022122916319700,4.35131982421875,-1.6140574216842651,-0.6714931130409241,-0.32162031531333923
1789022122926244900,4.361244873046875,-1.6727005243301392,-0.4332558512687683,-0.3228420317173004
1789022122936170000,4.371169921875,-1.7496694326400757,-0.42103853821754456,-0.38881543278694153
1789022122946094800,4.3810947265625,-1.7850996255874634,-0.6470585465431213,-0.4474584460258484
1789022122956020000,4.39102001953125,-1.7655519247055054,-0.8706350326538086,-0.4046979248523712
1789022122965945000,4.400945068359375,-1.6995785236358643,-0.9451605081558228,-0.28008151054382324
1789022122975870000,4.410869873046875,-1.58717942237854,-0.8889609575271606,-0.1383608728647232
1789022122985795000,4.420795166015625,-1.4625630378723145,-0.7582359313964844,-0.023518294095993042
1789022122995720200,4.43072021484375,-1.3208423852920532,-0.6495019793510437,0.03023780696094036
1789022123005645000,4.44064501953125,-1.1827869415283203,-0.5639809370040894,0.08277218043804169
1789022123015570200,4.450570068359375,-1.0288490056991577,-0.44791659712791443,0.15118902921676636
1789022123025495000,4.4604951171875,-0.8345940113067627,-0.2903134822845459,0.17562362551689148
1789022123035420200,4.470420166015625,-0.6476693749427795,-0.16936226189136505,0.15485422313213348
1789022123045345000,4.480344970703125,-0.49984011054039,-0.14248420298099518,0.1695149689912796
1789022123055270100,4.490270263671875,-0.3507890999317169,-0.05451968312263489,0.2415970265865326
1789022123065195000,4.500195068359375,-0.15042544901371002,0.07742711156606674,0.3075704276561737
1789022123075120000,4.5101201171875,0.06826414167881012,0.16661337018013,0.3454440236091614
1789022123085045200,4.520045166015625,0.27229297161102295,0.2179260104894638,0.3295615613460541
1789022123094970000,4.52997021484375,0.44577857851982117,0.2179260104894638,0.2965748608112335
1789022123104895200,4.539895263671875,0.5936078429222107,0.2130390852689743,0.30512696504592896
1789022123114820400,4.5498203125,0.7365502119064331,0.2680169343948364,0.33689191937446594
1789022123124745200,4.5597451171875,0.874605655670166,0.33276858925819397,0.35643959045410156
1789022123134670300,4.56967041015625,1.00288724899292,0.34987279772758484,0.38698282837867737
1789022123144595500,4.579595458984375,1.1238384246826172,0.342542439699173,0.4260781705379486
1789022123154520600,4.5895205078125,1.233794093132019,0.3462076187133789,0.4566214084625244
1789022123164445400,4.599445556640625,1.3205369710922241,0.40607234835624695,0.45051276683807373
1789022123174370600,4.60937060546875,1.4072797298431396,0.49892380833625793,0.4456258714199066
1789022123184295400,4.61929541015625,1.5013529062271118,0.6027708053588867,0.46028661727905273
1789022123194220000,4.629219970703125,1.5893174409866333,0.699287474155426,0.49082985520362854
1789022123204145000,4.639144775390625,1.6797254085540771,0.7835868000984192,0.5238165259361267
1789022123214069500,4.649069580078125,1.7224860191345215,0.7567087411880493,0.5054906010627747
1789022123223994400,4.658994384765625,1.7579160928726196,0.6882919073104858,0.4981602132320404
1789022123233919000,4.6689189453125,1.7970114946365356,0.6125446557998657,0.5445859432220459
1789022123243843800,4.67884375,1.856876254081726,0.6626355648040771,0.5983420610427856
1789022123253768400,4.6887685546875,1.8935281038284302,0.7652608752250671,0.602007269859314
1789022123263693300,4.698693359375,1.8910846710205078,0.8141300082206726,0.5421425104141235
1789022123273618000,4.708617919921875,1.8605413436889648,0.7212786078453064,0.47006043791770935
1789022123283543300,4.718543212890625,1.8251112699508667,0.6394227147102356,0.448069304227829
1789022123293468700,4.72846875,1.8067853450775146,0.6296488642692566,0.4272999167442322
1789022123303394000,4.73839404296875,1.771355152130127,0.6357575058937073,0.4016436040401459
1789022123313319400,4.7483193359375,1.7493640184402466,0.7249437570571899,0.4370737373828888
1789022123323244800,4.758244873046875,1.662621259689331,0.7237220406532288,0.4358520209789276
1789022123333170200,4.768170166015625,1.5331178903579712,0.6809614896774292,0.3955349326133728
1789022123343095600,4.778095458984375,1.3877320289611816,0.6479747891426086,0.3601047992706299
1789022123353021000,4.78802099609375,1.2179116010665894,0.5209149122238159,0.3539961278438568
1789022123362946300,4.7979462890625,1.0065524578094482,0.3413206934928894,0.3344484567642212
1789022123372871700,4.80787158203125,0.7988584041595459,0.2228129357099533,0.37354379892349243
1789022123382796800,4.817796875,0.6962331533432007,0.21181736886501312,0.406530499458313
1789022123392721700,4.8277216796875,0.6436987519264221,0.07742711156606674,0.29901832342147827
1789022123402646800,4.837646728515625,0.559399425983429,-0.10461059212684631,0.20250166952610016
1789022123412572000,4.847572021484375,0.46654796600341797,-0.2182314395904541,0.16707152128219604
1789022123422497000,4.8574970703125,0.3675878942012787,-0.3428478538990021,0.11942406743764877
1789022123432422000,4.867421875,0.29306238889694214,-0.4271472096443176,0.09498947113752365
1789022123442347000,4.877346923828125,0.24785839021205902,-0.47357290983200073,0.10476330667734146
1789022123452272000,4.887272216796875,0.2331976294517517,-0.5187768936157227,0.1279761642217636
1789022123462197000,4.897197021484375,0.23564109206199646,-0.5798633694648743,0.13775001466274261
1789022123472122000,4.9071220703125,0.22464552521705627,-0.6641627550125122,0.1328630894422531
1789022123482047000,4.917046875,0.19654574990272522,-0.726470947265625,0.12553271651268005
1789022123491971800,4.926971923828125,0.1672242283821106,-0.6995928883552551,0.13775001466274261
1789022123501897000,4.93689697265625,0.12202023714780807,-0.6629409790039062,0.13775001466274261
1789022123511822000,4.946822021484375,0.04627300798892975,-0.6177369952201843,0.12064579129219055
1789022123521747200,4.956747314453125,-0.04657844081521034,-0.5065596103668213,0.09987638890743256
1789022123531672000,4.966672119140625,-0.1455385386943817,-0.36361727118492126,0.08399390429258347
1789022123541597200,4.97659716796875,-0.24694208800792694,-0.22189663350582123,0.07299833744764328
1789022123551522300,4.986522216796875,-0.34834563732147217,-0.08139773458242416,0.08032871782779694
1789022123561447400,4.996447509765625,-0.4644099473953247,-0.014202605932950974,0.10109812021255493
1789022123571372300,5.006372314453125,-0.6061305999755859,-0.008093958720564842,0.11942406743764877
1789022123581297400,5.01629736328125,-0.7429642677307129,0.06276635825634003,0.12675444781780243
1789022123591222500,5.026222412109375,-0.8407026529312134,0.2240346521139145,0.17195843160152435
1789022123601147600,5.036147705078125,-0.9188933372497559,0.3058905303478241,0.22204934060573578
1789022123611072500,5.046072509765625,-0.9592103958129883,0.228921577334404,0.20616686344146729
1789022123620997600,5.05599755859375,-0.9604321718215942,0.044440411031246185,0.13775001466274261
1789022123630922800,5.0659228515625,-0.9543235301971436,-0.16081015765666962,0.07422006875276566
1789022123640847600,5.07584765625,-0.9408844709396362,-0.2854265570640564,0.05833758786320686
1789022123650772700,5.085772705078125,-0.9421061873435974,-0.3416261374950409,0.05222893878817558
1789022123660697900,5.09569775390625,-0.9579886794090271,-0.37583455443382263,0.01435532234609127
1789022123670623000,5.105623046875,-0.9127846956253052,-0.4198168218135834,-0.051618073135614395
1789022123680547800,5.1155478515625,-0.8969022035598755,-0.5053378939628601,-0.11148282140493393
1789022123690472700,5.12547265625,-0.9726494550704956,-0.5444332361221313,-0.14813470840454102
1789022123700397300,5.135397216796875,-1.0826051235198975,-0.4796815812587738,-0.16646064817905426
1789022123710322200,5.145322265625,-1.1815651655197144,-0.3452913165092468,-0.15057817101478577
1789022123720246800,5.155246826171875,-1.254868984222412,-0.24633121490478516,-0.12247838824987411
1789022123730171600,5.165171630859375,-1.2915208339691162,-0.17058399319648743,-0.09315688163042068
1789022123740096300,5.17509619140625,-1.2939642667770386,-0.10949750989675522,-0.047952886670827866
1789022123750021000,5.185021240234375,-1.225547432899475,-0.0154243353754282,-0.006414080038666725
1789022123759946000,5.194946044921875,-1.0667226314544678,0.08842267841100693,-0.024740023538470268
1789022123769870600,5.20487060546875,-0.8969022035598755,0.12996147572994232,-0.07360920310020447
1789022123779795500,5.21479541015625,-0.7686206102371216,0.1360701322555542,-0.10048725455999374
1789022123789720600,5.224720458984375,-0.7637336850166321,0.09453132748603821,-0.13469567894935608
1789022123799646000,5.23464599609375,-0.8126028776168823,-0.06551524996757507,-0.20311254262924194
1789022123809571300,5.2445712890625,-0.8907935619354248,-0.2683223485946655,-0.28496840596199036
1789022123819496700,5.25449658203125,-0.994640588760376,-0.43692103028297424,-0.34727662801742554
1789022123829422000,5.264422119140625,-1.1204787492752075,-0.45158177614212036,-0.3399462401866913
1789022123839347500,5.274347412109375,-1.2634210586547852,-0.31841325759887695,-0.2935205399990082
1789022123849272800,5.28427294921875,-1.383150577545166,-0.12904518842697144,-0.22876885533332825
1789022123859198200,5.2941982421875,-1.4320197105407715,0.0639880821108818,-0.1285870373249054
1789022123869123600,5.30412353515625,-1.4039199352264404,0.15928299725055695,-0.04550942778587341
1789022123879049000,5.314049072265625,-1.356272578239441,0.11774418503046036,-0.04550942778587341
1789022123888974000,5.32397412109375,-1.315955400466919,-0.022754713892936707,-0.11026109009981155
1789022123898899200,5.333899169921875,-1.2964078187942505,-0.22067490220069885,-0.2153298407793045
1789022123908824000,5.343823974609375,-1.2951860427856445,-0.37094762921333313,-0.3032943606376648
1789022123918749200,5.353749267578125,-1.2780818939208984,-0.439364492893219,-0.3228420317173004
1789022123928674300,5.36367431640625,-1.2328778505325317,-0.38072147965431213,-0.26542073488235474
1789022123938599200,5.37359912109375,-1.1632392406463623,-0.28664830327033997,-0.14080433547496796
1789022123948524300,5.383524169921875,-1.0777181386947632,-0.20967933535575867,-0.010079269297420979
1789022123958449400,5.393449462890625,-0.9799798130989075,-0.16325360536575317,0.06444623321294785
1789022123968374500,5.40337451171875,-0.8932369947433472,-0.1669187992811203,0.09010255336761475
1789022123978299400,5.41329931640625,-0.8052725195884705,-0.15836669504642487,0.09010255336761475
1789022123988224500,5.423224609375,-0.7124210596084595,-0.09850194305181503,0.11942406743764877
1789022123998149600,5.433149658203125,-0.6232348084449768,-0.055741410702466965,0.2000582218170166
1789022124008074800,5.44307470703125,-0.523052990436554,-0.0154243353754282,0.25870123505592346
1789022124017999600,5.45299951171875,-0.41065385937690735,0.012675444595515728,0.24526220560073853
1789022124027924700,5.4629248046875,-0.2860374450683594,0.02977965772151947,0.20127993822097778
1789022124037849900,5.472849853515625,-0.14309507608413696,0.054214250296354294,0.18661919236183167
1789022124047775000,5.48277490234375,-0.012370011769235134,0.08720094710588455,0.19639302790164948
1789022124057699800,5.492699951171875,0.11468986421823502,0.15439607203006744,0.18661919236183167
1789022124067625000,5.502625,0.24297146499156952,0.24113887548446655,0.17195843160152435
1789022124077550000,5.512550048828125,0.3627009689807892,0.3205513060092926,0.15607595443725586
1789022124087475200,5.52247509765625,0.4653262495994568,0.3315468728542328,0.129197895526886
1789022124097400000,5.532400146484375,0.5484038591384888,0.3119991719722748,0.11331541836261749
1789022124107325200,5.5423251953125,0.6339249014854431,0.33765551447868347,0.11942406743764877
1789022124117250300,5.552250244140625,0.7463240623474121,0.37064221501350403,0.13530655205249786
1789022124127175200,5.562175048828125,0.8684970140457153,0.3681987524032593,0.14752385020256042
1789022124137100300,5.572100341796875,0.9833396077156067,0.33887723088264465,0.1487455666065216
1789022124147025400,5.582025390625,1.0713040828704834,0.31932955980300903,0.1389717310667038
1789022124156950500,5.591950439453125,1.1372774839401245,0.3364337682723999,0.129197895526886
1789022124166875400,5.60187548828125,1.2044726610183716,0.38530296087265015,0.12186752259731293
1789022124176800500,5.611800537109375,1.271667718887329,0.45249807834625244,0.11698060482740402
1789022124186725400,5.621725341796875,1.3474149703979492,0.5001455545425415,0.11942406743764877
1789022124196650200,5.631650146484375,1.4256056547164917,0.5575668215751648,0.12553271651268005
1789022124206574800,5.641574951171875,1.4989094734191895,0.6223185062408447,0.15241076052188873
1789022124216499700,5.651499755859375,1.5526655912399292,0.6039925217628479,0.1792888194322586
1789022124226424600,5.661424560546875,1.586874008178711,0.5539016127586365,0.20738859474658966
1789022124236349200,5.67134912109375,1.6381865739822388,0.5404626131057739,0.23915356397628784
1789022124246274000,5.681274169921875,1.6956079006195068,0.5758927464485168,0.23793183267116547
1789022124256199000,5.691198974609375,1.7347033023834229,0.586888313293457,0.22204934060573578
1789022124266123800,5.701123779296875,1.7566944360733032,0.5331322550773621,0.2367101013660431
1789022124276048400,5.71104833984375,1.7823506593704224,0.5209149122238159,0.281914085149765
1789022124285973800,5.720973876953125,1.8104504346847534,0.6296488642692566,0.30512696504592896
1789022124295899100,5.730899169921875,1.8018983602523804,0.7420479655265808,0.30146175622940063
1789022124305824500,5.740824462890625,1.7579160928726196,0.7872520089149475,0.30512696504592896
1789022124315749600,5.75074951171875,1.6931644678115845,0.7066178321838379,0.30024003982543945
1789022124325675000,5.760675048828125,1.59664785861969,0.616209864616394,0.2623664140701294
1789022124335600400,5.770600341796875,1.4928008317947388,0.5490147471427917,0.2098320573568344
1789022124345525800,5.78052587890625,1.399949312210083,0.4903717041015625,0.1585194170475006
1789022124355451000,5.790450927734375,1.302211046218872,0.40607234835624695,0.10354158282279968
1789022124365376300,5.800376220703125,1.216689944267273,0.38041603565216064,0.09621120244264603
1789022124375301600,5.810301513671875,1.1592686176300049,0.42195484042167664,0.12186752259731293
1789022124385226800,5.820226806640625,1.107956051826477,0.4353938698768616,0.12675444781780243
1789022124395151600,5.830151611328125,1.0639737844467163,0.4427242577075958,0.12186752259731293
1789022124405076700,5.84007666015625,0.9894482493400574,0.3303251266479492,0.10476330667734146
1789022124415001900,5.850001953125,0.8929315805435181,0.18005239963531494,0.09010255336761475
1789022124424926700,5.8599267578125,0.7756455540657043,0.060322895646095276,0.05711585655808449
1789022124434851800,5.869851806640625,0.660802960395813,-0.14859285950660706,-0.000305432389723137
1789022124444777000,5.87977685546875,0.5386300086975098,-0.24999640882015228,-0.016187917441129684
1789022124454702000,5.8897021484375,0.4384481906890869,-0.263435423374176,-0.02107483521103859
1789022124464627000,5.899626953125,0.35414886474609375,-0.2695440948009491,-0.032070402055978775
1789022124474552000,5.909552001953125,0.268627792596817,-0.30253079533576965,-0.03817904740571976
1789022124484477200,5.919477294921875,0.17333288490772247,-0.40637779235839844,-0.03695731982588768
1789022124494402300,5.92940234375,0.07559451460838318,-0.5468766689300537,-0.041844237595796585
1789022124504327400,5.939327392578125,-0.020922118797898293,-0.6898190379142761,-0.06627883017063141
1789022124514252500,5.94925244140625,-0.10399972647428513,-0.7765618562698364,-0.10659590363502502
1789022124524177700,5.959177734375,-0.17974695563316345,-0.7655662894248962,-0.14569124579429626
1789022124534102800,5.969102783203125,-0.26648977398872375,-0.6922625303268433,-0.17256930470466614
1789022124544028000,5.97902783203125,-0.35934120416641235,-0.5444332361221313,-0.17256930470466614
1789022124553953000,5.988953125,-0.46196648478507996,-0.3416261374950409,-0.17867794632911682
1789022124563878100,5.998878173828125,-0.5731438994407654,-0.11194097250699997,-0.20922118425369263
1789022124573803300,6.00880322265625,-0.6794343590736389,0.07254019379615784,-0.21655155718326569
1789022124583728000,6.01872802734375,-0.7637336850166321,0.12996147572994232,-0.1591302752494812
1789022124593653200,6.0286533203125,-0.8321505188941956,-0.017867794260382652,-0.11148282140493393
1789022124603578400,6.038578369140625,-0.8749110698699951,-0.23167046904563904,-0.0870482325553894
1789022124613503200,6.048503173828125,-0.8688024282455444,-0.3159697949886322,-0.035735588520765305
1789022124623428400,6.058428466796875,-0.8443678617477417,-0.35995206236839294,-0.0308486707508564
1789022124633353500,6.068353515625,-0.8174898028373718,-0.40026915073394775,-0.09193515032529831
1789022124643278600,6.078278564453125,-0.8040507435798645,-0.36972591280937195,-0.1701258420944214
1789022124653203500,6.088203369140625,-0.8235984444618225,-0.439364492893219,-0.27397283911705017
1789022124663128600,6.098128662109375,-0.8651372194290161,-0.49189886450767517,-0.3191768527030945
1789022124673053700,6.1080537109375,-0.9359975457191467,-0.471129447221756,-0.30451610684394836
1789022124682978600,6.117978515625,-1.012966513633728,-0.4503600597381592,-0.28008151054382324
1789022124692903400,6.1279033203125,-1.0447314977645874,-0.3831649422645569,-0.24709481000900269
1789022124702828300,6.137828369140625,-1.0386228561401367,-0.3318522870540619,-0.210442915558815
1789022124712753200,6.147753173828125,-1.0471749305725098,-0.35017824172973633,-0.19089524447917938
1789022124722677800,6.157677734375,-1.1094831228256226,-0.37094762921333313,-0.18356487154960632
1789022124732602600,6.1676025390625,-1.2279908657073975,-0.38560840487480164,-0.18234314024448395
1789022124742527500,6.177527587890625,-1.3061816692352295,-0.35995206236839294,-0.1750127524137497
1789022124752452400,6.187452392578125,-1.3208423852920532,-0.2952004075050354,-0.15057817101478577
1789022124762377200,6.197377197265625,-1.3281728029251099,-0.2390008419752121,-0.1493564397096634
1789022124772302000,6.207302001953125,-1.3232858180999756,-0.15347976982593536,-0.16646064817905426
1789022124782425600,6.217425537109375,-1.1766782999038696,0.0798705667257309,-0.11881320178508759
1789022124792548900,6.227548828125,-1.1559088230133057,0.03222311660647392,-0.21655155718326569
1789022124802672000,6.237672119140625,-1.215773582458496,-0.20112723112106323,-0.34605491161346436
1789022124812795600,6.247795654296875,-1.3012946844100952,-0.4381427764892578,-0.3900371491909027
1789022124822919000,6.2579189453125,-1.4173589944839478,-0.5138899683952332,-0.3582721948623657
1789022124833042200,6.268042236328125,-1.5346450805664062,-0.3782780170440674,-0.2458730787038803
1789022124843165400,6.27816552734375,-1.634826898574829,-0.12293653935194016,-0.07605266571044922
1789022124853289000,6.2882890625,-1.6739221811294556,0.1055268943309784,0.05100720748305321
1789022124863412200,6.298412109375,-1.6494876146316528,0.12263110280036926,0.08643736690282822
1789022124873535500,6.308535400390625,-1.5847359895706177,-0.13881902396678925,0.0204639695584774
1789022124883659000,6.318658935546875,-1.530979871749878,-0.40515607595443726,-0.04673115536570549
1789022124893782500,6.328782470703125,-1.4650064706802368,-0.605519711971283,-0.11636973917484283
1789022124903906000,6.338906005859375,-1.4259110689163208,-0.5358811020851135,-0.11148282140493393
1789022124914029800,6.34902978515625,-1.3721550703048706,-0.32940882444381714,-0.03940077871084213
1789022124924153300,6.3591533203125,-1.2902991771697998,-0.12782345712184906,0.11453714966773987
1789022124934276900,6.36927685546875,-1.2023346424102783,-0.01908952370285988,0.29901832342147827
1789022124944400400,6.379400390625,-1.0960441827774048,-0.009315688163042068,0.4211912751197815
1789022124954524000,6.38952392578125,-0.9799798130989075,-0.036193739622831345,0.4786125421524048
1789022124964647400,6.3996474609375,-0.8150463104248047,-0.05696314200758934,0.49571678042411804
1789022124974771000,6.40977099609375,-0.6598866581916809,-0.0642935186624527,0.5152644515037537
1789022124984894500,6.41989453125,-0.5279398560523987,-0.07040216773748398,0.5287034511566162
1789022124995018000,6.43001806640625,-0.38988444209098816,-0.07651081681251526,0.5201513767242432
1789022125005141500,6.4401416015625,-0.2286161482334137,-0.04474584385752678,0.5323686599731445
1789022125015265000,6.45026513671875,-0.06734783947467804,0.021227551624178886,0.5836812853813171
1789022125025388500,6.460388427734375,0.08903354406356812,0.145843967795372,0.620333194732666
1789022125035512300,6.47051220703125,0.258853942155838,0.3217730224132538,0.592233419418335
1789022125045635800,6.4806357421875,0.43111783266067505,0.4231765866279602,0.5201513767242432
1789022125055759400,6.49075927734375,0.5887209177017212,0.39141160249710083,0.4627300798892975
1789022125065883000,6.5008828125,0.7145590782165527,0.3107774555683136,0.4053087830543518
1789022125076006400,6.51100634765625,0.8220712542533875,0.25702136754989624,0.34788748621940613
1789022125086130000,6.5211298828125,0.9356921315193176,0.23014330863952637,0.32100942730903625
1789022125096253400,6.53125341796875,1.0456477403640747,0.22036947309970856,0.29901832342147827
1789022125106377000,6.541376953125,1.1446079015731812,0.22036947309970856,0.25870123505592346
1789022125116500500,6.55150048828125,1.2289072275161743,0.2582430839538574,0.2049451321363449
1789022125126624000,6.5616240234375,1.3058761358261108,0.3510945439338684,0.15118902921676636
1789022125136747500,6.57174755859375,1.3938406705856323,0.41706791520118713,0.11331541836261749
1789022125146871300,6.581871337890625,1.4720313549041748,0.4243983030319214,0.08155044913291931
1789022125156994800,6.591994873046875,1.5404483079910278,0.4231765866279602,0.05589412897825241
1789022125167118300,6.602118408203125,1.6027565002441406,0.3975202441215515,0.05711585655808449
1789022125177241900,6.612241943359375,1.6479604244232178,0.4085158109664917,0.08155044913291931
1789022125187166700,6.622166748046875,1.680947184562683,0.4500546157360077,0.10842850059270859
1789022125197091600,6.632091552734375,1.7053817510604858,0.5477929711341858,0.12675444781780243
1789022125207016400,6.642016357421875,1.7664681673049927,0.7041743993759155,0.15118902921676636
1789022125216941000,6.651941162109375,1.8128939867019653,0.8617774844169617,0.1744018942117691
1789022125226866000,6.661865966796875,1.8238894939422607,0.8959859013557434,0.2110537886619568
1789022125236790800,6.671790771484375,1.8067853450775146,0.8006910085678101,0.2770271897315979
1789022125246715600,6.681715576171875,1.8018983602523804,0.8422298431396484,0.35277441143989563
1789022125256640500,6.691640625,1.8165591955184937,1.024267554283142,0.3808741867542267
1789022125266565400,6.7015654296875,1.8043417930603027,1.114675521850586,0.38331764936447144
1789022125276490200,6.711490234375,1.753029227256775,1.0279327630996704,0.36132651567459106
1789022125286613500,6.721613525390625,1.6699515581130981,0.7835868000984192,0.25992295145988464
1789022125296737000,6.731737060546875,1.5392265319824219,0.4195113778114319,0.0717766135931015
1789022125306860300,6.7418603515625,1.4268274307250977,0.24113887548446655,-0.04550942778587341
1789022125316983600,6.751983642578125,1.3449715375900269,0.31322091817855835,-0.02718348242342472
1789022125327106800,6.76210693359375,1.274111270904541,0.4757109582424164,0.032681263983249664
1789022125337230300,6.772230224609375,1.2227985858917236,0.568562388420105,0.0766635313630104
1789022125347353600,6.782353515625,1.1507165431976318,0.4549415409564972,0.05345066636800766
1789022125357476900,6.792476806640625,1.059086799621582,0.41584619879722595,0.06322450190782547
1789022125367600000,6.80260009765625,0.947909414768219,0.3584249019622803,0.08032871782779694
1789022125377723600,6.8127236328125,0.8416189551353455,0.24113887548446655,0.05955931544303894
1789022125387649500,6.8226494140625,0.7402154207229614,0.14217877388000488,0.03756818547844887
1789022125397575400,6.832575439453125,0.6424770355224609,0.05543597787618637,0.021685699000954628
1789022125407501600,6.84250146484375,0.5447386503219604,-0.010537417605519295,-0.0015271619195118546
1789022125417427500,6.852427490234375,0.42623090744018555,-0.10827577859163284,-0.02718348242342472
1789022125427353600,6.862353515625,0.31383177638053894,-0.20479241013526917,-0.04062250629067421
1789022125437279500,6.872279541015625,0.18677189946174622,-0.35384342074394226,-0.0772743970155716
1789022125447205400,6.882205322265625,0.05238165333867073,-0.5664243698120117,-0.1432477980852127
1789022125457131500,6.892131591796875,-0.07101303339004517,-0.7851139307022095,-0.21777328848838806
1789022125467057400,6.902057373046875,-0.16508620977401733,-0.9097303748130798,-0.26908594369888306
1789022125476983600,6.911983642578125,-0.22495095431804657,-0.8840740323066711,-0.2666424810886383
1789022125486908400,6.921908447265625,-0.2591593861579895,-0.7716749310493469,-0.20922118425369263
1789022125496833500,6.93183349609375,-0.31413722038269043,-0.6947059631347656,-0.1493564397096634
1789022125506758700,6.941758544921875,-0.4179842174053192,-0.6727148294448853,-0.13958260416984558
1789022125516683800,6.951683837890625,-0.5401571989059448,-0.5615374445915222,-0.16035200655460358
1789022125526608600,6.961608642578125,-0.6488910913467407,-0.3367392122745514,-0.1640172004699707
1789022125536533800,6.97153369140625,-0.7392991185188293,-0.14004075527191162,-0.12980876863002777
1789022125546459000,6.981458984375,-0.799163818359375,-0.0691804364323616,-0.0821613147854805
1789022125556384000,6.991384033203125,-0.818711519241333,-0.14370593428611755,-0.04917461425065994
1789022125566308900,7.001308837890625,-0.8199332356452942,-0.32452189922332764,-0.019853105768561363
1789022125576234000,7.01123388671875,-0.8297070860862732,-0.4967857897281647,0.007024944759905338
1789022125586159000,7.0211591796875,-0.8211549520492554,-0.5358811020851135,0.0412333719432354
1789022125596084000,7.031083984375,-0.8016073107719421,-0.43692103028297424,0.044898562133312225
1789022125606009000,7.041009033203125,-0.7845031023025513,-0.3672824501991272,-0.010079269297420979
1789022125615934200,7.050934326171875,-0.7783944606781006,-0.38927358388900757,-0.07360920310020447
1789022125625859300,7.060859375,-0.8333722949028015,-0.480903297662735,-0.12370011955499649
1789022125635784200,7.0707841796875,-0.9433279633522034,-0.5652026534080505,-0.1591302752494812
1789022125645709300,7.080709228515625,-1.089935541152954,-0.6372846961021423,-0.20799945294857025
1789022125655634400,7.090634521484375,-1.2206605672836304,-0.754570722579956,-0.26419901847839355
1789022125665559600,7.1005595703125,-1.3232858180999756,-0.8718567490577698,-0.31673339009284973
1789022125675484400,7.110484375,-1.4454587697982788,-0.8523091077804565,-0.3546070158481598
1789022125685409300,7.1204091796875,-1.5664100646972656,-0.605519711971283,-0.3081812858581543
1789022125695334100,7.130334228515625,-1.6323834657669067,-0.12660172581672668,-0.20799945294857025
1789022125705259000,7.140259033203125,-1.5749621391296387,0.2997818887233734,-0.13225223124027252
1789022125715183900,7.150183837890625,-1.501658320426941,0.3877464234828949,-0.05406153202056885
1789022125725108700,7.160108642578125,-1.4662281274795532,0.2655734717845917,-0.022296564653515816
1789022125735033600,7.17003369140625,-1.3978112936019897,0.040775224566459656,-0.08582650125026703
1789022125744958500,7.17995849609375,-1.3721550703048706,-0.20479241013526917,-0.14080433547496796
1789022125754883300,7.18988330078125,-1.4039199352264404,-0.2842048406600952,-0.16523891687393188
1789022125764808200,7.19980810546875,-1.4601194858551025,-0.16325360536575317,-0.15668681263923645
1789022125774733000,7.209733154296875,-1.5554144382476807,-0.005650499369949102,-0.1493564397096634
1789022125784658200,7.219658203125,-1.6580396890640259,0.07009673118591309,-0.1383608728647232
1789022125794583600,7.22958349609375,-1.7130175828933716,0.011453714221715927,-0.1029307171702385
1789022125804508700,7.2395087890625,-1.7398955821990967,-0.08750637620687485,-0.07849612087011337
1789022125814434000,7.24943408203125,-1.7411173582077026,-0.11927134543657303,-0.08826996386051178
1789022125824359200,7.259359130859375,-1.7105741500854492,-0.08139773458242416,-0.09315688163042068
1789022125834284500,7.269284423828125,-1.6568180322647095,-0.04841103404760361,-0.06017018109560013
1789022125844209700,7.279209716796875,-1.5627448558807373,-0.09117157012224197,-0.016187917441129684
1789022125854135000,7.289135009765625,-1.4442371129989624,-0.19013166427612305,0.022907428443431854
1789022125864060200,7.29906005859375,-1.2817469835281372,-0.3868301212787628,-0.006414080038666725
1789022125873985500,7.308985595703125,-1.1546871662139893,-0.4650208055973053,0.010690134018659592
1789022125883910700,7.31891064453125,-1.042288064956665,-0.37461283802986145,0.0925460159778595
1789022125893835800,7.328835693359375,-0.9531017541885376,-0.14859285950660706,0.17562362551689148
1789022125903761000,7.338760986328125,-0.8431460857391357,0.011453714221715927,0.2525925934314728
1789022125913686000,7.34868603515625,-0.6989820003509521,0.002901607658714056,0.3381136655807495
1789022125923611100,7.358611083984375,-0.5242747068405151,-0.026419902220368385,0.3588830530643463
1789022125933536300,7.368536376953125,-0.3104720115661621,-0.014202605932950974,0.28557929396629333
1789022125943461400,7.37846142578125,-0.11255183815956116,-0.039858926087617874,0.2415970265865326
1789022125953386500,7.388386474609375,0.051159925758838654,-0.03741546720266342,0.2672533392906189
1789022125963311400,7.398311279296875,0.2075413018465042,0.0847574844956398,0.2965748608112335
1789022125973236500,7.408236572265625,0.3761399984359741,0.24113887548446655,0.29535311460494995
1789022125983161600,7.41816162109375,0.559399425983429,0.34865108132362366,0.27947062253952026
1789022125993086700,7.428086669921875,0.7231112122535706,0.3730856776237488,0.23548837006092072
1789022126003011800,7.43801171875,0.855057954788208,0.31322091817855835,0.1902843713760376
1789022126012936700,7.447936767578125,0.9735657572746277,0.2228129357099533,0.1646280586719513
1789022126022861800,7.45786181640625,1.0932952165603638,0.16905683279037476,0.15485422313213348
1789022126032787000,7.467786865234375,1.206916093826294,0.18127411603927612,0.1438586562871933
1789022126042712000,7.477712158203125,1.2973240613937378,0.27290382981300354,0.14263692498207092
1789022126052637000,7.487636962890625,1.3681844472885132,0.3510945439338684,0.14263692498207092
1789022126062562000,7.49756201171875,1.4451533555984497,0.4134027361869812,0.11209368705749512
1789022126072487200,7.507487060546875,1.547778606414795,0.5294670462608337,0.0717766135931015
1789022126082412000,7.517412109375,1.6479604244232178,0.5429060459136963,0.02779434807598591
1789022126092337000,7.5273369140625,1.7371467351913452,0.6320923566818237,0.0668896958231926
1789022126102262000,7.537261962890625,1.81778085231781,0.7139481902122498,0.129197895526886
1789022126112187100,7.547187255859375,1.8678717613220215,0.7579304575920105,0.19272783398628235
1789022126122112300,7.5571123046875,1.8947498798370361,0.7273872494697571,0.281914085149765
1789022126132037000,7.567037109375,1.9020801782608032,0.7799215912818909,0.31490078568458557
1789022126141962200,7.576962158203125,1.8800890445709229,0.8507819175720215,0.2880227565765381
1789022126151887400,7.586887451171875,1.836106777191162,0.8776599764823914,0.25381430983543396
1789022126161812500,7.5968125,1.809228777885437,0.8947641849517822,0.25870123505592346
1789022126171737300,7.6067373046875,1.8128939867019653,0.9082031846046448,0.28069236874580383
1789022126181662500,7.616662353515625,1.8031201362609863,0.8715513348579407,0.25381430983543396
1789022126191587300,7.62658740234375,1.7554726600646973,0.7628173828125,0.22449280321598053
1789022126201512200,7.63651220703125,1.6931644678115845,0.5954404473304749,0.18295399844646454
1789022126211437000,7.64643701171875,1.632077932357788,0.5148062705993652,0.14508038759231567
1789022126221362000,7.65636181640625,1.5490003824234009,0.5490147471427917,0.11209368705749512
1789022126231286800,7.666286865234375,1.4170535802841187,0.5575668215751648,0.07055488228797913
1789022126241211600,7.676211669921875,1.3180934190750122,0.47693267464637756,0.0412333719432354
1789022126251136300,7.68613623046875,1.233794093132019,0.28267768025398254,-0.006414080038666725
1789022126261061000,7.69606103515625,1.136055827140808,0.16783510148525238,-0.01740964688360691
1789022126270986000,7.705986083984375,1.039539098739624,0.25091269612312317,-0.0027488914784044027
1789022126280910800,7.715910888671875,0.939357340335846,0.3572031855583191,0.01435532234609127
1789022126290836200,7.725836181640625,0.8416189551353455,0.2435823380947113,-0.007635809946805239
1789022126300761300,7.73576123046875,0.7096721529960632,0.054214250296354294,-0.03940077871084213
1789022126310686700,7.745686767578125,0.5887209177017212,-0.06795870512723923,-0.024740023538470268
1789022126320611800,7.75561181640625,0.4702131748199463,-0.16814053058624268,-0.011300998739898205
1789022126330537200,7.765537109375,0.36025750637054443,-0.2182314395904541,-0.012522728182375431
1789022126340462600,7.775462646484375,0.25763222575187683,-0.23655737936496735,-0.01740964688360691
1789022126350387700,7.7853876953125,0.1611155867576599,-0.304974228143692,-0.035735588520765305
1789022126360313000,7.79531298828125,0.047494735568761826,-0.4552469849586487,-0.06994401663541794
1789022126370238200,7.80523828125,-0.06612611562013626,-0.6030762791633606,-0.08949168771505356
1789022126380163600,7.81516357421875,-0.16386447846889496,-0.6604975461959839,-0.07605266571044922
1789022126390088400,7.82508837890625,-0.264046311378479,-0.6873756051063538,-0.06994401663541794
1789022126400013600,7.835013671875,-0.38499751687049866,-0.7777835726737976,-0.10048725455999374
1789022126409938700,7.844938720703125,-0.5169443488121033,-0.9097303748130798,-0.13469567894935608
1789022126419863800,7.85486376953125,-0.6305651664733887,-0.8877392411231995,-0.1078176349401474
1789022126429788700,7.86478857421875,-0.7063124179840088,-0.7142536640167236,-0.02107483521103859
1789022126439713800,7.8747138671875,-0.755181610584259,-0.4430296719074249,0.12553271651268005
1789022126449639000,7.884638916015625,-0.808937668800354,-0.13759729266166687,0.2868010103702545
1789022126459564000,7.89456396484375,-0.8834632039070129,0.03222311660647392,0.38331764936447144
1789022126469489000,7.904489013671875,-0.929888904094696,0.034666575491428375,0.3894262909889221
1789022126479414000,7.9144140625,-0.9628756046295166,-0.1314886510372162,0.3087921440601349
1789022126489339100,7.924339111328125,-0.9860884547233582,-0.3367392122745514,0.20861032605171204
1789022126499264300,7.93426416015625,-1.021518588066101,-0.48701193928718567,0.10965022444725037
1789022126509189000,7.944189208984375,-1.032514214515686,-0.5994110703468323,-0.006414080038666725
1789022126519114200,7.9541142578125,-1.0545053482055664,-0.6519454121589661,-0.11148282140493393
1789022126529039400,7.964039306640625,-1.1278090476989746,-0.6458367705345154,-0.1737910360097885
1789022126538964200,7.973964111328125,-1.2231040000915527,-0.5529853701591492,-0.16646064817905426
1789022126548889300,7.983889404296875,-1.3403900861740112,-0.4247037470340729,-0.12492185086011887
1789022126558814500,7.993814453125,-1.4711151123046875,-0.3110828995704651,-0.07360920310020447
1789022126568739600,8.003739501953126,-1.5993967056274414,-0.2341139316558838,-0.0027488914784044027
1789022126578664400,8.01366455078125,-1.7227914333343506,-0.1815795600414276,0.026572618633508682
1789022126588589600,8.023589599609375,-1.800982117652893,-0.11316270381212234,-0.011300998739898205
1789022126598514700,8.0335146484375,-1.6812525987625122,-0.022754713892936707,-0.04306596517562866
1789022126608439800,8.043439697265624,-1.4979931116104126,0.046883873641490936,-0.029626941308379173
1789022126618364700,8.05336474609375,-1.3660463094711304,0.03222311660647392,-0.011300998739898205
1789022126628289800,8.063289794921875,-1.2939642667770386,-0.0691804364323616,-0.06017018109560013
1789022126638215000,8.07321484375,-1.2793035507202148,-0.25121814012527466,-0.12247838824987411
1789022126648140000,8.08314013671875,-1.3342814445495605,-0.3672824501991272,-0.15057817101478577
1789022126658065000,8.09306494140625,-1.3807071447372437,-0.3404043912887573,-0.13713914155960083
1789022126667990000,8.102989990234375,-1.4039199352264404,-0.21212279796600342,-0.07360920310020447
1789022126677915100,8.1129150390625,-1.4051417112350464,-0.1314886510372162,-0.02718348242342472
1789022126687840000,8.122840087890625,-1.4198024272918701,-0.18280129134655,-0.0565049909055233
1789022126697764900,8.132764892578125,-1.430798053741455,-0.31230461597442627,-0.1127045527100563
1789022126707689700,8.142689697265626,-1.4454587697982788,-0.42959064245224,-0.14813470840454102
1789022126717614600,8.152614501953124,-1.4344632625579834,-0.41004297137260437,-0.12736530601978302
1789022126727539500,8.16253955078125,-1.401476502418518,-0.304974228143692,-0.07238747924566269
1789022126737464600,8.172464599609375,-1.3330596685409546,-0.18402300775051117,-0.019853105768561363
1789022126747389400,8.182389404296876,-1.2634210586547852,-0.11682789027690887,0.03145953640341759
1789022126757314300,8.192314208984374,-1.218217134475708,-0.13759729266166687,0.05833758786320686
1789022126767239200,8.2022392578125,-1.1766782999038696,-0.14004075527191162,0.06933315098285675
1789022126777164000,8.2121640625,-1.1302525997161865,-0.0691804364323616,0.10842850059270859
1789022126787089400,8.22208935546875,-1.0862703323364258,0.07376192510128021,0.22327107191085815
1789022126797014500,8.2320146484375,-1.014188289642334,0.16661337018013,0.3503309488296509
1789022126806940000,8.24193994140625,-0.8333722949028015,0.12018764764070511,0.37354379892349243
1789022126816865000,8.251864990234376,-0.6452259421348572,0.145843967795372,0.36621344089508057
1789022126826790400,8.261790283203124,-0.4692968726158142,0.24480405449867249,0.39675667881965637
1789022126836715500,8.271715576171875,-0.29336780309677124,0.23258677124977112,0.38820457458496094
1789022126846641000,8.281640869140626,-0.11988221108913422,0.20448698103427887,0.29901832342147827
1789022126856566000,8.29156591796875,0.002290742937475443,0.3266599476337433,0.2525925934314728
1789022126866491400,8.301491455078125,0.08536835014820099,0.43661558628082275,0.24892739951610565
1789022126876416500,8.31141650390625,0.13912445306777954,0.4353938698768616,0.26480987668037415
1789022126886341600,8.321341552734374,0.17821979522705078,0.38530296087265015,0.2464839369058609
1789022126896266800,8.331266845703125,0.21609342098236084,0.31810784339904785,0.18417572975158691
1789022126906192000,8.34119189453125,0.2490801066160202,0.26679518818855286,0.09498947113752365
1789022126916116700,8.35111669921875,0.2893971800804138,0.2484692484140396,0.016798781231045723
1789022126926041900,8.361041748046874,0.3358229100704193,0.25702136754989624,-0.025961752980947495
1789022126935967000,8.370967041015625,0.393244206905365,0.24724751710891724,-0.04550942778587341
1789022126945892000,8.38089208984375,0.4702131748199463,0.16783510148525238,-0.06383536756038666
1789022126955817000,8.39081689453125,0.5606211423873901,0.0639880821108818,-0.09804379940032959
1789022126965742000,8.4007421875,0.6632464528083801,-0.03252854943275452,-0.14691297709941864
1789022126975667200,8.410667236328125,0.7609847784042358,-0.0899498388171196,-0.21288637816905975
1789022126985592000,8.420592041015626,0.8403972387313843,-0.05940660089254379,-0.272751122713089
1789022126995517200,8.43051708984375,0.9027054309844971,0.0798705667257309,-0.2886336147785187
1789022127005442000,8.440442138671875,0.967457115650177,0.2582430839538574,-0.24709481000900269
1789022127015367200,8.4503671875,1.0163263082504272,0.39018988609313965,-0.18112140893936157
1789022127025292000,8.4602919921875,1.0248783826828003,0.4231765866279602,-0.13225223124027252
1789022127035217200,8.470217041015625,0.9882264733314514,0.37552911043167114,-0.11514800786972046
1789022127045142300,8.480142333984375,0.9112575054168701,0.3205513060092926,-0.11759147047996521
1789022127055067100,8.490067138671876,0.8391754627227783,0.24724751710891724,-0.14691297709941864
1789022127064992300,8.4999921875,0.7964149713516235,0.19104796648025513,-0.16279546916484833
1789022127074917000,8.509917236328125,0.7646499872207642,0.1715002804994583,-0.1542433500289917
1789022127084842200,8.51984228515625,0.7267763614654541,0.14462223649024963,-0.1444695144891739
1789022127094767400,8.529767333984376,0.6779071688652039,0.1153007298707962,-0.13591741025447845
1789022127104692200,8.539692138671874,0.6351466774940491,0.10797034949064255,-0.12614357471466064
1789022127114617300,8.549617431640625,0.5936078429222107,0.09453132748603821,-0.12247838824987411
1789022127124542500,8.55954248046875,0.5508472919464111,0.03588830679655075,-0.15179990231990814
1789022127134467600,8.569467529296874,0.4958694875240326,-0.016646064817905426,-0.1945604383945465
1789022127144392400,8.579392333984375,0.4335612654685974,-0.07651081681251526,-0.22266021370887756
1789022127154317600,8.589317626953125,0.3627009689807892,-0.1107192412018776,-0.2360992431640625
1789022127164242700,8.59924267578125,0.29672756791114807,-0.05818486958742142,-0.20311254262924194
1789022127174167600,8.60916748046875,0.24663665890693665,0.07376192510128021,-0.13103049993515015
1789022127184092700,8.6190927734375,0.21120649576187134,0.17516547441482544,-0.06383536756038666
1789022127194017500,8.629017578125,0.17333288490772247,0.2533561587333679,-0.024740023538470268
1789022127203942400,8.6389423828125,0.14401137828826904,0.25579962134361267,-0.03451386094093323
1789022127213867300,8.6488671875,0.1207985132932663,0.18616104125976562,-0.05894844979047775
1789022127223792000,8.658792236328125,0.0902552679181099,0.0896444097161293,-0.0772743970155716
1789022127233717000,8.668717041015626,0.053603384643793106,0.022449281066656113,-0.08093958348035812
1789022127243641900,8.678641845703124,0.01206457894295454,0.00045814859913662076,-0.06994401663541794
1789022127253566700,8.688566650390625,-0.05146535858511925,0.005345067009329796,-0.07605266571044922
1789022127263491800,8.698491943359375,-0.1003345400094986,-0.061850059777498245,-0.13225223124027252
1789022127273416700,8.708416748046876,-0.1418733447790146,-0.04230238497257233,-0.13469567894935608
1789022127283341800,8.718341796875,-0.16386447846889496,-0.0007635809597559273,-0.08826996386051178
1789022127293267000,8.728266845703125,-0.16386447846889496,0.024892739951610565,-0.022296564653515816
1789022127303192300,8.7381923828125,-0.1663079410791397,0.005345067009329796,0.010690134018659592
1789022127313117400,8.748117431640624,-0.1821904182434082,-0.0435241162776947,-0.016187917441129684
1789022127323042600,8.75804248046875,-0.21151192486286163,-0.09850194305181503,-0.07849612087011337
1789022127332968000,8.767968017578125,-0.2530507445335388,-0.12660172581672668,-0.12614357471466064
1789022127342893000,8.77789306640625,-0.2945895493030548,-0.11804962158203125,-0.12736530601978302
1789022127352818400,8.787818359375,-0.3165806829929352,-0.052076224237680435,-0.07971785217523575
1789022127362743600,8.79774365234375,-0.305585116147995,0.034666575491428375,-0.000305432389723137
1789022127372668700,8.807668701171876,-0.27259841561317444,0.07620538026094437,0.08155044913291931
1789022127382593800,8.81759375,-0.25549420714378357,0.04810560122132301,0.11575887352228165
1789022127392519000,8.827518798828125,-0.25549420714378357,-0.010537417605519295,0.10965022444725037
1789022127402443800,8.83744384765625,-0.264046311378479,-0.05696314200758934,0.0766635313630104
1789022127412369000,8.847368896484374,-0.2652680277824402,-0.0691804364323616,0.03390299528837204
1789022127422294000,8.8572939453125,-0.25671592354774475,-0.0386371985077858,0.003359756199643016
1789022127432219100,8.86721923828125,-0.23961171507835388,0.034666575491428375,-0.003970621153712273
1789022127442144000,8.87714404296875,-0.212733656167984,0.12140937149524689,0.0204639695584774
1789022127452069000,8.887069091796874,-0.18096868693828583,0.15439607203006744,0.06811141967773438
1789022127461994200,8.896994140625,-0.15409064292907715,0.08842267841100693,0.09132428467273712
1789022127471919400,8.90691943359375,-0.13332124054431915,-0.02764163166284561,0.05955931544303894
1789022127481844200,8.91684423828125,-0.11621702462434769,-0.07773254066705704,-0.0015271619195118546
1789022127491769000,8.92676904296875,-0.10888664424419403,-0.07284562289714813,-0.03451386094093323
1789022127501694200,8.936694091796875,-0.12354740500450134,-0.03375028073787689,-0.03695731982588768
1789022127511619300,8.946619384765626,-0.13209950923919678,0.03222311660647392,-0.025961752980947495
1789022127521544400,8.95654443359375,-0.1052214577794075,0.08842267841100693,0.003359756199643016
1789022127531469300,8.96646923828125,-0.058795735239982605,0.09575305134057999,0.032681263983249664
1789022127541394400,8.97639453125,-0.017256930470466614,0.06154462695121765,0.021685699000954628
1789022127551319600,8.986319580078124,0.009621120058000088,0.0383317656815052,-0.032070402055978775
1789022127561244700,8.99624462890625,0.02916879393160343,0.07131846249103546,-0.06505709886550903
1789022127571169500,9.00616943359375,0.037720900028944016,0.08353576064109802,-0.051618073135614395
1789022127581094700,9.0160947265625,0.047494735568761826,0.08353576064109802,-0.02107483521103859
1789022127591019800,9.026019775390624,0.06582067906856537,0.0639880821108818,-0.0015271619195118546
1789022127600944600,9.035944580078125,0.08903354406356812,0.0334448479115963,-0.019853105768561363
1789022127610869800,9.045869873046875,0.11468986421823502,0.04199695214629173,-0.06261363625526428
1789022127620795000,9.055794921875,0.1415679156780243,0.0798705667257309,-0.08582650125026703
1789022127630720000,9.065719970703125,0.15500694513320923,0.09330959618091583,-0.08338304609060287
1789022127640644900,9.075644775390625,0.1562286615371704,0.056657709181308746,-0.07605266571044922
1789022127650570000,9.085570068359376,0.15256348252296448,-0.004428769461810589,-0.08949168771505356
1789022127660495000,9.0954951171875,0.14767655730247498,-0.020311253145337105,-0.12370011955499649
1789022127670420200,9.105420166015625,0.15867212414741516,0.022449281066656113,-0.13958260416984558
1789022127680345000,9.115344970703125,0.16355904936790466,0.09819651395082474,-0.12003492563962936
1789022127690270000,9.12527001953125,0.1611155867576599,0.1519526094198227,-0.08460476994514465
1789022127700195000,9.135195068359375,0.1562286615371704,0.15561780333518982,-0.047952886670827866
1789022127710120000,9.145119873046875,0.1623373180627823,0.14340050518512726,-0.0308486707508564
1789022127720044800,9.155044921875,0.18310672044754028,0.13240493834018707,-0.018631376326084137
1789022127729969700,9.1649697265625,0.19532401859760284,0.125074565410614,-0.023518294095993042
1789022127739894500,9.17489453125,0.19654574990272522,0.11285726726055145,-0.032070402055978775
1789022127749819400,9.1848193359375,0.1721111536026001,0.10674861818552017,-0.04673115536570549
1789022127759744300,9.194744140625,0.13301581144332886,0.1055268943309784,-0.06872228533029556
1789022127769669000,9.204669189453124,0.10980294644832611,0.11407899856567383,-0.06872228533029556
1789022127779594200,9.21459423828125,0.10980294644832611,0.12751802802085876,-0.04306596517562866
1789022127789519400,9.224519287109375,0.12446369975805283,0.13484840095043182,-0.008857538923621178
1789022127799444500,9.234444580078126,0.15012001991271973,0.13484840095043182,0.02412915788590908
1789022127809369900,9.244369873046875,0.1672242283821106,0.11896591633558273,0.03023780696094036
1789022127819295000,9.254294921875,0.1562286615371704,0.10308343172073364,0.004581485874950886
1789022127829220000,9.26422021484375,0.11957678198814392,0.09208786487579346,-0.03695731982588768
1789022127839145500,9.2741455078125,0.07681624591350555,0.06765327602624893,-0.08826996386051178
1789022127849070600,9.284070556640625,0.03527744114398956,0.07254019379615784,-0.0772743970155716
1789022127858995700,9.29399560546875,0.007177661173045635,0.08109229803085327,-0.032070402055978775
1789022127868921000,9.303921142578124,0.003512472379952669,0.1153007298707962,0.005803215317428112
1789022127878846200,9.31384619140625,0.02672533318400383,0.14340050518512726,0.04734202101826668
1789022127888771300,9.323771240234375,0.04260781779885292,0.13851359486579895,0.060781046748161316
1789022127898696400,9.333696533203126,0.04993819445371628,0.11407899856567383,0.035124726593494415
1789022127908621300,9.343621337890625,0.03405570983886719,0.0847574844956398,-0.013744457624852657
1789022127918546400,9.35354638671875,0.009621120058000088,0.05787943676114082,-0.06505709886550903
1789022127928471600,9.363471435546876,-0.007483093533664942,0.054214250296354294,-0.09437860548496246
1789022127938396400,9.373396484375,-0.014813470654189587,0.06765327602624893,-0.08949168771505356
1789022127948321500,9.383321533203125,-0.017256930470466614,0.09086613357067108,-0.057726722210645676
1789022127958246700,9.39324658203125,-0.017256930470466614,0.09453132748603821,-0.028405211865901947
1789022127968171800,9.403171875,-0.016035201027989388,0.0798705667257309,-0.003970621153712273
1789022127978096600,9.4130966796875,-0.023365577682852745,0.06520981341600418,0.008246674202382565
1789022127988021800,9.423021728515625,-0.030695954337716103,0.03955349326133728,0.007024944759905338
1789022127997946600,9.432946533203125,-0.04169152304530144,0.005345067009329796,-0.01740964688360691
1789022128007871700,9.442871826171874,-0.06001746281981468,-0.005650499369949102,-0.06994401663541794
1789022128017796900,9.452796875,-0.05757400393486023,0.016340631991624832,-0.12125665694475174
1789022128027721700,9.4627216796875,-0.0539088174700737,0.05787943676114082,-0.14202606678009033
1789022128037646800,9.472646728515626,-0.042913250625133514,0.10308343172073364,-0.11759147047996521
1789022128047571700,9.48257177734375,-0.03191768378019333,0.12751802802085876,-0.05406153202056885
1789022128057496800,9.492496826171875,-0.03436114266514778,0.09330959618091583,-0.007635809946805239
1789022128067421700,9.502421630859375,-0.04657844081521034,0.006566796451807022,-0.022296564653515816
1789022128077346800,9.512346923828124,-0.058795735239982605,-0.0435241162776947,-0.07116574794054031
1789022128087271700,9.522271728515625,-0.05635227635502815,-0.0019853105768561363,-0.09682206809520721
1789022128097196800,9.53219677734375,-0.0539088174700737,0.05177079141139984,-0.0870482325553894
1789022128107121700,9.54212158203125,-0.05024362727999687,0.06276635825634003,-0.07605266571044922
1789022128117046800,9.552046875,-0.036804601550102234,0.050549060106277466,-0.08338304609060287
1789022128126972000,9.561971923828125,-0.02458730712532997,0.028557928279042244,-0.10537417232990265
1789022128136897000,9.57189697265625,-0.016035201027989388,0.031001387163996696,-0.12736530601978302
1789022128146822000,9.58182177734375,-0.0038179049734026194,0.056657709181308746,-0.1127045527100563
1789022128156747000,9.5917470703125,0.007177661173045635,0.06643154472112656,-0.07360920310020447
1789022128166672100,9.601672119140625,0.002290742937475443,0.028557928279042244,-0.05406153202056885
1789022128176597000,9.611596923828126,-0.01847865991294384,0.006566796451807022,-0.0870482325553894
1789022128186522000,9.621522216796874,-0.03436114266514778,0.056657709181308746,-0.11881320178508759
1789022128196447000,9.631447021484375,-0.04535670951008797,0.11163553595542908,-0.09682206809520721
1789022128206371800,9.641371826171875,-0.03802633285522461,0.11652245372533798,-0.03695731982588768
1789022128216297000,9.651296875,-0.02825249545276165,0.0798705667257309,-0.011300998739898205
1789022128226221800,9.661221923828125,-0.005039634648710489,0.060322895646095276,-0.041844237595796585
1789022128236146700,9.671146728515625,0.007177661173045635,0.06887500733137131,-0.09315688163042068
1789022128246071600,9.681071533203125,0.004734201822429895,0.11896591633558273,-0.13591741025447845
1789022128255996400,9.690996337890626,0.005955931730568409,0.1727220118045807,-0.11636973917484283
1789022128265921300,9.70092138671875,0.0206166859716177,0.1776089370250702,-0.041844237595796585
1789022128275846100,9.71084619140625,0.043829549103975296,0.13240493834018707,0.016798781231045723
1789022128285771000,9.72077099609375,0.07681624591350555,0.07498364895582199,0.010690134018659592
1789022128295696100,9.730696044921874,0.10125083476305008,0.06276635825634003,-0.04062250629067421
1789022128305621000,9.74062109375,0.1000291109085083,0.0896444097161293,-0.09315688163042068
1789022128315546000,9.750546142578125,0.08048143237829208,0.12018764764070511,-0.09682206809520721
1789022128325471200,9.76047119140625,0.064598947763443,0.12385283410549164,-0.0565049909055233
1789022128335396600,9.770396728515625,0.06215549260377884,0.1311832070350647,-0.028405211865901947
1789022128345321700,9.78032177734375,0.08170316368341446,0.145843967795372,-0.029626941308379173
1789022128355246800,9.790246826171876,0.09636391699314117,0.15561780333518982,-0.04917461425065994
1789022128365172200,9.800172119140624,0.10369429737329483,0.15317434072494507,-0.05406153202056885
1789022128375097300,9.810097412109375,0.1000291109085083,0.1519526094198227,-0.04550942778587341
1789022128385022500,9.8200224609375,0.09880737960338593,0.14828743040561676,-0.03451386094093323
1789022128394947800,9.82994775390625,0.1000291109085083,0.13851359486579895,-0.0308486707508564
1789022128404873000,9.839873046875,0.09880737960338593,0.12996147572994232,-0.032070402055978775
1789022128414798000,9.849798095703125,0.09269873052835464,0.125074565410614,-0.032070402055978775
1789022128424723200,9.85972314453125,0.07315105944871902,0.125074565410614,-0.029626941308379173
1789022128434648000,9.86964794921875,0.07070759683847427,0.1409570425748825,-0.02107483521103859
1789022128444573200,9.8795732421875,0.06582067906856537,0.1055268943309784,-0.008857538923621178
1789022128454498300,9.889498291015625,0.051159925758838654,0.06887500733137131,-0.03329212963581085
1789022128464423400,9.89942333984375,0.03405570983886719,0.0847574844956398,-0.08460476994514465
1789022128474348300,9.909348388671875,0.03283398225903511,0.15561780333518982,-0.1285870373249054
1789022128484273400,9.9192734375,0.0487164668738842,0.19837833940982819,-0.12370011955499649
1789022128494198500,9.929198486328126,0.04260781779885292,0.16539163887500763,-0.08949168771505356
1789022128504123400,9.939123291015624,0.02306014485657215,0.10797034949064255,-0.07605266571044922
1789022128514048500,9.949048583984375,0.010842849500477314,0.09086613357067108,-0.08949168771505356
1789022128523973600,9.9589736328125,-0.0062613640911877155,0.10797034949064255,-0.12370011955499649
1789022128533898800,9.968898681640624,-0.030695954337716103,0.1104138121008873,-0.14813470840454102
1789022128543823600,9.97882373046875,-0.06246092543005943,0.10674861818552017,-0.1493564397096634
1789022128553748700,9.988748779296875,-0.08323032408952713,0.10919208079576492,-0.12980876863002777
1789022128563673900,9.998673828125,-0.0844520553946495,0.125074565410614,-0.12980876863002777
1789022128573599000,10.008598876953124,-0.06612611562013626,0.13240493834018707,-0.14080433547496796
1789022128583523800,10.01852392578125,-0.05513054504990578,0.12873975932598114,-0.17623448371887207
1789022128593449000,10.028448974609375,-0.05146535858511925,0.11652245372533798,-0.20433427393436432
1789022128603374000,10.0383740234375,-0.05146535858511925,0.10308343172073364,-0.20433427393436432
1789022128613299200,10.04829931640625,-0.04657844081521034,0.08842267841100693,-0.19700388610363007
1789022128623224000,10.05822412109375,-0.030695954337716103,0.09086613357067108,-0.17745621502399445
1789022128633149200,10.068149169921876,-0.02825249545276165,0.05787943676114082,-0.16035200655460358
1789022128643074300,10.07807421875,-0.03802633285522461,0.060322895646095276,-0.18845178186893463
1789022128652999200,10.087999267578125,-0.04657844081521034,0.07131846249103546,-0.2055560052394867
1789022128662924300,10.09792431640625,-0.06001746281981468,0.06887500733137131,-0.20189081132411957
1789022128672849400,10.107849365234374,-0.07345648854970932,0.05543597787618637,-0.18112140893936157
1789022128682774500,10.1177744140625,-0.0746782198548317,0.05543597787618637,-0.15668681263923645
1789022128692699400,10.127699462890625,-0.06979130208492279,0.05543597787618637,-0.16035200655460358
1789022128702624500,10.13762451171875,-0.05635227635502815,0.06643154472112656,-0.1957821547985077
1789022128712549600,10.147549560546874,-0.04780016839504242,0.06887500733137131,-0.22754712402820587
1789022128722474500,10.157474609375,-0.04657844081521034,0.05177079141139984,-0.2214384824037552
1789022128732399600,10.167399658203125,-0.06856957077980042,0.0102319847792387,-0.1798996776342392
1789022128742324500,10.177324462890626,-0.08811724185943604,-0.0032070400193333626,-0.1542433500289917
1789022128752249600,10.18724951171875,-0.08323032408952713,0.021227551624178886,-0.1493564397096634
1789022128762174500,10.197174560546875,-0.049021899700164795,0.06520981341600418,-0.16279546916484833
1789022128772099600,10.207099609375,-0.01359174121171236,0.06887500733137131,-0.16523891687393188
1789022128782024400,10.2170244140625,0.013286309316754341,0.056657709181308746,-0.168904110789299
1789022128791949600,10.226949462890625,0.019394956529140472,0.0334448479115963,-0.17256930470466614
1789022128801874400,10.23687451171875,0.024281874299049377,0.05787943676114082,-0.19822561740875244
1789022128811799600,10.246799560546876,0.02916879393160343,0.08720094710588455,-0.20922118425369263
1789022128821724700,10.256724609375,0.02672533318400383,0.0847574844956398,-0.1945604383945465
1789022128831649800,10.26664990234375,0.019394956529140472,0.06643154472112656,-0.14569124579429626
1789022128841574700,10.27657470703125,0.003512472379952669,0.05299251899123192,-0.10048725455999374
1789022128851499800,10.286499755859374,-0.0062613640911877155,0.03955349326133728,-0.07971785217523575
1789022128861425000,10.2964248046875,-0.012370011769235134,0.034666575491428375,-0.09193515032529831
1789022128871350000,10.30635009765625,-0.02825249545276165,0.013897174037992954,-0.11392628401517868
1789022128881275000,10.31627490234375,-0.06123919412493706,-0.0032070400193333626,-0.12247838824987411
1789022128891200000,10.326199951171875,-0.07834340631961823,0.002901607658714056,-0.12125665694475174
1789022128901125000,10.336125,-0.06612611562013626,0.046883873641490936,-0.12492185086011887
1789022128911050000,10.346050048828126,-0.025809036567807198,0.09575305134057999,-0.09926552325487137
1789022128920975000,10.35597509765625,0.002290742937475443,0.11896591633558273,-0.051618073135614395
1789022128930900000,10.36589990234375,0.003512472379952669,0.08231402933597565,-0.007635809946805239
1789022128940825000,10.3758251953125,-0.005039634648710489,0.016340631991624832,-0.000305432389723137
1789022128950750000,10.38575,0.004734201822429895,-0.016646064817905426,-0.007635809946805239
1789022128960675000,10.395675048828124,0.025503603741526604,0.012675444595515728,-0.028405211865901947
1789022128970600200,10.40560009765625,0.0487164668738842,0.05787943676114082,-0.05528326332569122
1789022128980525000,10.415525146484375,0.057268574833869934,0.05787943676114082,-0.09193515032529831
1789022128990450200,10.4254501953125,0.04260781779885292,0.05543597787618637,-0.14813470840454102
1789022129000375000,10.435375,0.02672533318400383,0.0896444097161293,-0.18112140893936157
1789022129010300200,10.445300048828125,0.021838415414094925,0.1360701322555542,-0.14080433547496796
1789022129020225300,10.455225341796876,0.02916879393160343,0.12751802802085876,-0.04062250629067421
1789022129030150100,10.465150146484374,0.03894263133406639,0.07742711156606674,0.038789913058280945
1789022129040075300,10.4750751953125,0.05971203371882439,0.03222311660647392,0.04245510324835777
1789022129050000400,10.48500048828125,0.07803797721862793,0.018784092739224434,-0.01740964688360691
1789022129059925500,10.494925537109374,0.07192932814359665,0.03222311660647392,-0.09437860548496246
1789022129069850400,10.504850341796875,0.047494735568761826,0.040775224566459656,-0.12003492563962936
1789022129079775500,10.514775390625,0.02306014485657215,0.06154462695121765,-0.10415244847536087
1789022129089700600,10.52470068359375,0.013286309316754341,0.0896444097161293,-0.0772743970155716
1789022129099625500,10.53462548828125,0.013286309316754341,0.12140937149524689,-0.07360920310020447
1789022129109550600,10.544550537109375,0.031612250953912735,0.15561780333518982,-0.07605266571044922
1789022129119475700,10.554475830078125,0.027947064489126205,0.16050471365451813,-0.04306596517562866
1789022129129400600,10.564400634765626,0.013286309316754341,0.16416990756988525,-0.010079269297420979
1789022129139325700,10.57432568359375,-0.0038179049734026194,0.1409570425748825,0.004581485874950886
1789022129149250600,10.58425048828125,-0.039248060435056686,0.06887500733137131,-0.029626941308379173
1789022129159175700,10.59417578125,-0.08323032408952713,-0.01908952370285988,-0.09682206809520721
1789022129169100500,10.6041005859375,-0.13209950923919678,-0.055741410702466965,-0.15179990231990814
1789022129179025700,10.614025634765625,-0.17852523922920227,0.007788525894284248,-0.16157373785972595
1789022129188950500,10.623950439453125,-0.22250749170780182,0.12751802802085876,-0.08949168771505356
1789022129198875600,10.633875732421876,-0.28237223625183105,0.20693044364452362,0.01435532234609127
1789022129208800500,10.643800537109374,-0.3459021747112274,0.1776089370250702,0.03023780696094036
1789022129218725600,10.6537255859375,-0.4240928590297699,0.08231402933597565,-0.06017018109560013
1789022129228650500,10.663650390625,-0.5181660652160645,0.0102319847792387,-0.16523891687393188
1789022129238575600,10.67357568359375,-0.5914698243141174,0.01511890348047018,-0.20189081132411957
1789022129248500700,10.683500732421875,-0.6391173005104065,0.08353576064109802,-0.18600831925868988
1789022129258425900,10.69342578125,-0.6708822250366211,0.1922696828842163,-0.16646064817905426
1789022129268350700,10.703350830078126,-0.6940951347351074,0.2643517255783081,-0.17867794632911682
1789022129278275800,10.71327587890625,-0.7099775671958923,0.2386954128742218,-0.20799945294857025
1789022129288201000,10.723200927734375,-0.7405208349227905,0.15561780333518982,-0.231212317943573
1789022129298126000,10.7331259765625,-0.7612902522087097,0.05543597787618637,-0.2556469142436981
1789022129308051000,10.743051025390624,-0.7832813858985901,0.00045814859913662076,-0.2519817352294922
1789022129317975800,10.752975830078125,-0.7759509682655334,-0.011759147047996521,-0.23365578055381775
1789022129327901000,10.76290087890625,-0.7649554014205933,0.016340631991624832,-0.231212317943573
1789022129337825800,10.77282568359375,-0.7576250433921814,0.06765327602624893,-0.22388194501399994
1789022129347750700,10.782750732421874,-0.7466294765472412,0.13240493834018707,-0.1957821547985077
1789022129357675500,10.792675537109375,-0.7246383428573608,0.15317434072494507,-0.1493564397096634
1789022129367600400,10.802600341796875,-0.7050906419754028,0.07254019379615784,-0.09193515032529831
1789022129377525200,10.812525146484376,-0.6708822250366211,-0.10461059212684631,-0.06994401663541794
1789022129387450000,10.8224501953125,-0.6159043908119202,-0.29397866129875183,-0.13469567894935608
1789022129397375000,10.832375,-0.5694786906242371,-0.3098611533641815,-0.18600831925868988
1789022129407300000,10.842300048828125,-0.5120574235916138,-0.21212279796600342,-0.19822561740875244
1789022129417225200,10.85222509765625,-0.44608399271965027,-0.12171480804681778,-0.1957821547985077
1789022129427150300,10.862150390625,-0.36911505460739136,-0.07406735420227051,-0.18112140893936157
1789022129437075500,10.872075439453125,-0.25671592354774475,-0.06795870512723923,-0.15302163362503052
1789022129447000600,10.88200048828125,-0.12476912885904312,-0.10094540566205978,-0.1383608728647232
1789022129456925700,10.89192578125,0.002290742937475443,-0.1253799945116043,-0.15546508133411407
1789022129466850800,10.901850830078125,0.12690715491771698,-0.09239330142736435,-0.19089524447917938
1789022129476776200,10.911776123046875,0.2503018379211426,0.0102319847792387,-0.22266021370887756
1789022129486701300,10.921701416015624,0.37369653582572937,0.12018764764070511,-0.21899501979351044
1789022129496626400,10.93162646484375,0.48731738328933716,0.145843967795372,-0.18356487154960632
1789022129506551600,10.941551513671875,0.5813905596733093,0.08597921580076218,-0.16157373785972595
1789022129516476700,10.9514765625,0.6644681692123413,0.054214250296354294,-0.1701258420944214
1789022129526401500,10.961401611328125,0.7609847784042358,0.10797034949064255,-0.1750127524137497
1789022129536326700,10.97132666015625,0.8929315805435181,0.23258677124977112,-0.14691297709941864
1789022129546251800,10.981251708984376,1.0456477403640747,0.3572031855583191,-0.12125665694475174
1789022129556177000,10.991177001953124,1.1812597513198853,0.41218101978302,-0.14569124579429626
1789022129566101800,11.001101806640625,1.2680025100708008,0.4085158109664917,-0.19822561740875244
1789022129576027000,11.01102685546875,1.281441569328308,0.4390590488910675,-0.21899501979351044
1789022129585952000,11.020951904296876,1.2753329277038574,0.3975202441215515,-0.231212317943573
1789022129595877000,11.030877197265625,1.2875502109527588,0.36453354358673096,-0.20433427393436432
1789022129605802000,11.040802001953125,1.3376411199569702,0.34987279772758484,-0.1591302752494812
1789022129615727000,11.05072705078125,1.4243839979171753,0.35475972294807434,-0.11881320178508759
1789022129625652000,11.06065185546875,1.5331178903579712,0.33887723088264465,-0.11392628401517868
1789022129635577000,11.0705771484375,1.632077932357788,0.32788166403770447,-0.11759147047996521
1789022129645502000,11.080501953125,1.7041599750518799,0.3523162603378296,-0.12247838824987411
1789022129655427000,11.090427001953126,1.7383683919906616,0.38652467727661133,-0.14691297709941864
1789022129665352000,11.10035205078125,1.7493640184402466,0.38530296087265015,-0.1701258420944214
1789022129675277000,11.110277099609375,1.732259750366211,0.3474293351173401,-0.17134757339954376
1789022129685202200,11.1202021484375,1.6870558261871338,0.3058905303478241,-0.1701258420944214
1789022129695127000,11.130126953125,1.6210824251174927,0.228921577334404,-0.1957821547985077
1789022129705052200,11.14005224609375,1.5490003824234009,0.11163553595542908,-0.2153298407793045
1789022129714977000,11.14997705078125,1.4830269813537598,0.046883873641490936,-0.18356487154960632
1789022129724902100,11.159902099609376,1.4549272060394287,0.1104138121008873,-0.12125665694475174
1789022129734827000,11.169826904296874,1.4781399965286255,0.2838993966579437,-0.06627883017063141
1789022129744752000,11.179752197265625,1.5123485326766968,0.4390590488910675,-0.04673115536570549
1789022129754677000,11.189677001953125,1.4659227132797241,0.46838057041168213,-0.06261363625526428
1789022129764602000,11.19960205078125,1.3498584032058716,0.34376415610313416,-0.09682206809520721
1789022129774527000,11.20952685546875,1.2142465114593506,0.08720094710588455,-0.12614357471466064
1789022129784452000,11.2194521484375,1.1201733350753784,-0.05940660089254379,-0.09804379940032959
1789022129794377000,11.229376953125,1.0554215908050537,-0.0154243353754282,-0.04062250629067421
1789022129804302000,11.239302001953124,1.0175479650497437,0.09575305134057999,-0.000305432389723137
1789022129814227000,11.24922705078125,0.9821178317070007,0.1617264449596405,0.013133592903614044
1789022129824151800,11.25915185546875,0.957683265209198,0.18127411603927612,0.04001164436340332
1789022129834076700,11.26907666015625,0.9234748482704163,0.11652245372533798,0.07422006875276566
1789022129844001500,11.27900146484375,0.8819360136985779,0.009010255336761475,0.10476330667734146
1789022129853926700,11.2889267578125,0.7805324792861938,-0.12415826320648193,0.10354158282279968
1789022129863851500,11.2988515625,0.6107120513916016,-0.22434009611606598,0.07910698652267456
1789022129873776400,11.3087763671875,0.43600472807884216,-0.1925751268863678,0.06811141967773438
1789022129883701200,11.318701171875,0.30772313475608826,-0.13271036744117737,0.0766635313630104
1789022129893626000,11.328626220703125,0.20631958544254303,-0.1107192412018776,0.10965022444725037
1789022129903551000,11.338551025390625,0.08659008145332336,-0.15470150113105774,0.1279761642217636
1789022129913476000,11.34847607421875,-0.06368265300989151,-0.2658788859844208,0.09498947113752365
1789022129923401200,11.358401123046875,-0.2237292230129242,-0.39538222551345825,0.01435532234609127
1789022129933326600,11.36832666015625,-0.37400195002555847,-0.47845983505249023,-0.06872228533029556
1789022129943251700,11.378251708984376,-0.49861836433410645,-0.4857902228832245,-0.12247838824987411
1789022129953176800,11.3881767578125,-0.6024653911590576,-0.48823368549346924,-0.15546508133411407
1789022129963102000,11.39810205078125,-0.6867647171020508,-0.5151117444038391,-0.17134757339954376
1789022129973027000,11.408027099609376,-0.7502946853637695,-0.4943423271179199,-0.15546508133411407
1789022129982952200,11.4179521484375,-0.7796161770820618,-0.39538222551345825,-0.11759147047996521
1789022129992877300,11.427877197265625,-0.7845031023025513,-0.2548833191394806,-0.12247838824987411
1789022130002802700,11.437802734375,-0.808937668800354,-0.162031888961792,-0.1945604383945465
1789022130012727600,11.4477275390625,-0.8626937866210938,-0.21945317089557648,-0.30573782324790955
1789022130022652700,11.457652587890625,-0.9262236952781677,-0.3513999581336975,-0.3741546869277954
1789022130032577500,11.46757763671875,-1.0166317224502563,-0.3917170464992523,-0.37659814953804016
1789022130042502700,11.477502685546876,-1.1009310483932495,-0.31719154119491577,-0.3546070158481598
1789022130052427500,11.487427490234374,-1.1473567485809326,-0.17058399319648743,-0.3399462401866913
1789022130062352600,11.4973525390625,-1.1730130910873413,0.018784092739224434,-0.3277289569377899
1789022130072277500,11.507277587890625,-1.2206605672836304,0.18005239963531494,-0.28008151054382324
1789022130082202600,11.51720263671875,-1.2768601179122925,0.2692386507987976,-0.2055560052394867
1789022130092127500,11.52712744140625,-1.3623812198638916,0.2692386507987976,-0.1383608728647232
1789022130102052600,11.537052490234375,-1.4601194858551025,0.228921577334404,-0.12614357471466064
1789022130111977500,11.5469775390625,-1.5627448558807373,0.187382772564888,-0.17134757339954376
1789022130121902600,11.556902587890624,-1.6494876146316528,0.15317434072494507,-0.22754712402820587
1789022130131827500,11.566827392578125,-1.6482658386230469,0.11407899856567383,-0.21655155718326569
1789022130141752600,11.576752685546875,-1.634826898574829,0.09941824525594711,-0.15302163362503052
1789022130151677700,11.586677734375,-1.615279197692871,0.07742711156606674,-0.1334739476442337
1789022130161602600,11.5966025390625,-1.6128357648849487,-0.011759147047996521,-0.14080433547496796
1789022130171527700,11.606527587890625,-1.616500973701477,-0.08017600327730179,-0.1542433500289917
1789022130181452500,11.61645263671875,-1.615279197692871,-0.08384118974208832,-0.16646064817905426
1789022130191377700,11.626377685546874,-1.6042835712432861,-0.016646064817905426,-0.14080433547496796
1789022130201302500,11.636302490234375,-1.6470441818237305,0.04932733252644539,-0.07116574794054031
1789022130211227400,11.646227294921875,-1.705687165260315,0.1262962967157364,-0.008857538923621178
1789022130221152500,11.656152587890626,-1.6910264492034912,0.09575305134057999,0.026572618633508682
1789022130231077600,11.66607763671875,-1.6482658386230469,0.002901607658714056,0.05833758786320686
1789022130241002800,11.676002685546875,-1.5664100646972656,-0.07528908550739288,0.12675444781780243
1789022130250927600,11.685927734375,-1.4564543962478638,-0.1510363221168518,0.20861032605171204
1789022130260852700,11.695852783203126,-1.3025164604187012,-0.13759729266166687,0.2782489061355591
1789022130270777900,11.70577783203125,-1.16079580783844,-0.0691804364323616,0.3087921440601349
1789022130280702700,11.71570263671875,-1.0728312730789185,-0.05451968312263489,0.29046618938446045
1789022130290627800,11.7256279296875,-1.023962140083313,-0.1107192412018776,0.2672533392906189
1789022130300553000,11.735552978515624,-0.9640973210334778,-0.20479241013526917,0.2770271897315979
1789022130310478000,11.74547802734375,-0.828485369682312,-0.21578797698020935,0.30634868144989014
1789022130320403000,11.75540283203125,-0.6440041661262512,-0.16081015765666962,0.3087921440601349
1789022130330327800,11.765327880859376,-0.4864010810852051,-0.17913609743118286,0.28069236874580383
1789022130340252700,11.775252685546874,-0.3361283540725708,-0.24755294620990753,0.2831358313560486
1789022130350177500,11.785177490234375,-0.18463388085365295,-0.20967933535575867,0.291687935590744
1789022130360102400,11.795102294921875,0.0010690133785828948,-0.07162389904260635,0.2611446976661682
1789022130370027300,11.80502734375,0.21120649576187134,0.145843967795372,0.23915356397628784
1789022130379952400,11.814952392578125,0.43233954906463623,0.3767508566379547,0.19272783398628235
1789022130389877200,11.824877197265625,0.6265945434570312,0.4598284661769867,0.11453714966773987
1789022130399802000,11.834802001953125,0.8049670457839966,0.4231765866279602,0.06566796451807022
1789022130409727000,11.84472705078125,0.9796743988990784,0.37919431924819946,0.026572618633508682
1789022130419652000,11.854652099609375,1.1372774839401245,0.33276858925819397,-0.005192350596189499
1789022130429577200,11.8645771484375,1.2655590772628784,0.28267768025398254,-0.016187917441129684
1789022130439502300,11.87450244140625,1.3657408952713013,0.2655734717845917,-0.01740964688360691
1789022130449427500,11.884427490234375,1.4353795051574707,0.34498587250709534,-0.05039634555578232
1789022130459352600,11.8943525390625,1.5025746822357178,0.40118545293807983,-0.10903936624526978
1789022130469277700,11.904277587890626,1.5880956649780273,0.4964803457260132,-0.12614357471466064
1789022130479202600,11.91420263671875,1.6931644678115845,0.6834049820899963,-0.1078176349401474
1789022130489127700,11.924127685546875,1.7860158681869507,0.8874338269233704,-0.10903936624526978
1789022130499052800,11.934052734375,1.8580979108810425,0.9912807941436768,-0.10415244847536087
1789022130508978000,11.94397802734375,1.9069671630859375,0.9179770350456238,-0.05894844979047775
1789022130518903000,11.953903076171875,1.9118540287017822,0.836121141910553,-0.019853105768561363
1789022130528828000,11.963827880859375,1.908188819885254,0.7053961157798767,-0.02718348242342472
1789022130538753000,11.9737529296875,1.8874194622039795,0.6039925217628479,-0.07605266571044922
1789022130548678000,11.983677978515624,1.8678717613220215,0.5465712547302246,-0.11148282140493393
1789022130558603000,11.99360302734375,1.8507676124572754,0.5062541961669922,-0.11636973917484283
1789022130568528000,12.00352783203125,1.81778085231781,0.47815442085266113,-0.14569124579429626
1789022130578453000,12.013452880859376,1.7481422424316406,0.43050694465637207,-0.2055560052394867
1789022130588378000,12.023378173828124,1.6870558261871338,0.4659371078014374,-0.210442915558815
1789022130598303000,12.033302978515625,1.6381865739822388,0.6113229393959045,-0.16279546916484833
1789022130608228000,12.04322802734375,1.5722131729125977,0.7567087411880493,-0.11392628401517868
1789022130618153000,12.053153076171874,1.5172353982925415,0.7163916826248169,-0.11881320178508759
1789022130628078000,12.063078125,1.4170535802841187,0.5367974042892456,-0.14080433547496796
1789022130638003000,12.0730029296875,1.281441569328308,0.35475972294807434,-0.1798996776342392
1789022130647928000,12.082927978515626,1.1653772592544556,0.24602578580379486,-0.20677772164344788
1789022130657853000,12.09285302734375,1.0615302324295044,0.22769984602928162,-0.17745621502399445
1789022130667778000,12.102778076171875,0.9503529071807861,0.2484692484140396,-0.13958260416984558
1789022130677703000,12.112702880859375,0.8611665964126587,0.30833399295806885,-0.12003492563962936
1789022130687628000,12.1226279296875,0.7841976881027222,0.24113887548446655,-0.09926552325487137
1789022130697553000,12.132552978515625,0.7096721529960632,0.08109229803085327,-0.057726722210645676
1789022130707478000,12.14247802734375,0.6131555438041687,-0.06062832847237587,-0.016187917441129684
1789022130717403000,12.15240283203125,0.4958694875240326,-0.16569706797599792,0.0021380267571657896
1789022130727328000,12.162327880859374,0.3822486400604248,-0.24266603589057922,-0.016187917441129684
1789022130737252900,12.1722529296875,0.2551887631416321,-0.3355174660682678,-0.05406153202056885
1789022130747178000,12.182177978515625,0.11835505068302155,-0.4943423271179199,-0.1078176349401474
1789022130757103000,12.19210302734375,-0.014813470654189587,-0.5920807123184204,-0.13469567894935608
1789022130767028000,12.202028076171874,-0.11866047978401184,-0.6177369952201843,-0.13591741025447845
1789022130776953000,12.211953125,-0.2237292230129242,-0.6042979955673218,-0.13713914155960083
1789022130786878000,12.2218779296875,-0.3630063831806183,-0.5969675779342651,-0.17623448371887207
1789022130796803000,12.231802978515624,-0.5377137064933777,-0.5725330114364624,-0.2764163017272949
1789022130806728000,12.24172802734375,-0.7331904768943787,-0.41492989659309387,-0.3436114490032196
1789022130816652800,12.25165283203125,-0.9188933372497559,-0.014202605932950974,-0.2666424810886383
1789022130826577700,12.26157763671875,-1.0691660642623901,0.2338084876537323,-0.14569124579429626
1789022130836502800,12.271502685546874,-1.142469882965088,0.20693044364452362,-0.07483093440532684
1789022130846427600,12.281427734375,-1.1559088230133057,0.0334448479115963,-0.011300998739898205
1789022130856352500,12.2913525390625,-1.1302525997161865,-0.10461059212684631,0.08765909820795059
1789022130866277400,12.30127734375,-1.0911571979522705,-0.2292270064353943,0.15607595443725586
1789022130876202200,12.3112021484375,-1.022740364074707,-0.28664830327033997,0.14996729791164398
1789022130886127000,12.321127197265625,-0.9653190970420837,-0.3672824501991272,0.0461202897131443
1789022130896052000,12.331052001953125,-0.9457713961601257,-0.5114465355873108,-0.08826996386051178
1789022130905976800,12.340976806640626,-0.9921970963478088,-0.6702713966369629,-0.19944734871387482
1789022130915902000,12.35090185546875,-1.0862703323364258,-0.6849321126937866,-0.2617555558681488
1789022130925827000,12.3608271484375,-1.1546871662139893,-0.5554288029670715,-0.2764163017272949
