time,seconds_elapsed,z,y,x
1789799505031215600,0.050215576171875,-0.6754840171158313,-0.24809973155558107,0.3393366573382169
1789799505041186800,0.060186767578125,-0.33260581471323963,-0.5870020160645246,-0.11481527843726798
1789799505051157800,0.07015771484375,-0.31501638200879095,-0.9752934776425362,-0.231482651014626
1789799505061129700,0.080129638671875,-0.48842999815344806,-1.2742793468266724,-0.22259072136562316
1789799505071100700,0.0901005859375,-0.2809077761799097,-1.1375386340409517,-0.22265658967606722
1789799505081071900,0.10007177734375,-0.020184709894657135,-0.8824217171996831,-0.012180486332997679
1789799505091043600,0.110043701171875,0.1336357325077057,-0.7915092741310596,0.05388144698701799
1789799505101014800,0.120014892578125,0.021837737798690793,-0.8845949695855378,0.045052572636865074
1789799505110985700,0.12998583984375,-0.25389409704804417,-0.9726707279235124,-0.11735325421597807
1789799505120958000,0.1399580078125,-0.48968905830383297,-1.1377759499281643,-0.27853995107002555
1789799505130928600,0.1499287109375,-0.47393151720166204,-1.1097937180250883,-0.3838291484069079
1789799505140900900,0.15990087890625,-0.025871523359417913,-0.9247434401005507,-0.3515413282644003
1789799505150871800,0.169871826171875,0.4731985267519951,-0.8481032680124044,0.029716581415012478
1789799505160842800,0.1798427734375,1.0292343266665935,-0.9056284052640199,0.5306307980883866
1789799505170814700,0.189814697265625,1.4547645087927579,-0.9987480029881,1.126569788520038
1789799505180785700,0.19978564453125,1.3852771310687064,-0.6883131035506725,1.7935732697993516
1789799505190756900,0.2097568359375,0.8045049493044615,-0.03353285176753998,2.4787732097655533
1789799505200728600,0.219728515625,0.2768593775719404,0.9122177205264568,2.350935057620704
1789799505210699800,0.22969970703125,0.0859083511710167,1.6156430530130863,1.4756469916932284
1789799505220670700,0.239670654296875,-0.09167056795954703,1.4844845242738722,0.8808674734950065
1789799505230642700,0.249642578125,-0.38503859726190565,0.12514146040678023,0.13608473309502006
1789799505240613600,0.259613525390625,-0.3001175035625696,0.5069359611809253,-0.1704078584574163
1789799505250584800,0.269584716796875,-1.1617308260113,1.711096646642685,-0.5683776873543859
1789799505260556800,0.279556884765625,-2.657278011569381,1.5583809506118296,-1.3573024979501962
1789799505270527700,0.28952783203125,-3.0524411124825477,1.160166060912609,-0.5820560840949416
1789799505280498700,0.299498779296875,-2.7010382428407667,0.723329471874237,0.27779285902976986
1789799505290471000,0.309470947265625,-2.489295772823691,-0.20799860731363295,0.5255407084077597
1789799505300441900,0.31944189453125,-1.9995371564149855,-1.0464420665770768,0.5595784409575164
1789799505310413800,0.329413818359375,-1.9857441933840512,-0.9846206934362649,-0.2756577466972172
1789799505320384800,0.339384765625,-3.0431612429618835,-2.527832716488838,-1.310196463382244
1789799505330355700,0.349355712890625,-4.120452036789059,-3.3638463182568548,-2.5222958328887817
1789799505340327700,0.35932763671875,-3.0030203712314365,-2.316322886183858,-3.1662308655306695
1789799505350298600,0.369298583984375,1.2749527160435914,-1.473696003755927,-2.4080551212027665
1789799505360269800,0.379269775390625,0.7083569436699152,-4.246839113342761,-1.9480390243679284
1789799505370241500,0.389241455078125,1.2485463551551104,-4.2234857102841135,-2.1037547789976
1789799505380212700,0.399212646484375,1.8603940586626528,-3.5990135030031203,-2.690000131475925
1789799505390183700,0.40918359375,2.3141081327438355,-2.398505494830012,-2.6355732525005937
1789799505400156000,0.419156005859375,2.490459555906057,-0.9058598759323357,-2.279299415821582
1789799505410126600,0.429126708984375,2.218987716591358,0.31580987047404047,-2.0742767555788157
1789799505420098800,0.439098876953125,2.4002298344045876,0.41935880001485343,-4.1879520400881765
1789799505430069800,0.44906982421875,1.3896318191468715,-2.037246417084336,-8.64790082014799
1789799505440040700,0.459040771484375,-1.0208008448421955,2.3396929481163617,-5.012353529995679
1789799505450012700,0.4690126953125,0.8155155881404876,5.218457117342949,0.3315723800122738
1789799505459984000,0.47898388671875,4.7424967246621845,3.4126764001384378,3.5697552598148583
1789799505469954800,0.488954833984375,6.280802270972728,0.5125754283726215,3.3353277875199914
1789799505479926800,0.4989267578125,4.070802747479081,-0.8391057225644588,1.4162737423568963
1789799505489897700,0.508897705078125,2.7631220663100478,-0.5258008206486702,0.26226678859591485
1789799505499868700,0.51886865234375,2.141850700896978,-0.16929858204126358,0.43280514156520367
1789799505509841200,0.528841064453125,0.3755570676892996,0.05596095667481422,1.114113627050817
1789799505519812400,0.538812255859375,-0.173771928063035,0.39993572214245793,1.1262202444300056
1789799505529783300,0.548783203125,0.8420984746396541,0.7697673979222774,1.3343357561215758
1789799505539755300,0.55875537109375,1.9230366850584744,0.8061217368513345,1.314101946388185
1789799505549726200,0.568726318359375,2.1941788540273905,0.5817670380204916,1.1647662481844425
1789799505559697200,0.578697265625,2.212103802296519,0.2797305490940809,1.237026890014112
1789799505569669000,0.588669189453125,2.215528516048193,0.1482049406081438,1.5890788712143897
1789799505579640000,0.59864013671875,1.8583207595199345,0.2516232295066118,1.5161261554673313
1789799505589612300,0.6086123046875,1.3589245461940764,0.4537707727044821,1.3518892407298086
1789799505599583200,0.618583251953125,0.8351280511051415,0.5249129318982363,1.0676438445597887
1789799505609554200,0.62855419921875,0.4080249205738306,0.34928339326977725,0.5556713505163788
1789799505619526100,0.638526123046875,0.6710702923268079,-0.11570786162912845,0.4541492506280541
1789799505629497300,0.648497314453125,1.3769699059724807,-0.15254852277040482,0.7307809569239616
1789799505639468300,0.65846826171875,1.0954898828625679,0.5364432106941938,0.8783195425778627
1789799505649440300,0.668440185546875,0.2001923174768686,1.030161962905526,0.8813897438034415
1789799505659411200,0.6784111328125,-0.502350386956334,1.0644663835674524,0.7170996375739574
1789799505669382400,0.68838232421875,-1.1262497627854346,0.9839368028253316,0.1273299103617668
1789799505679354000,0.69835400390625,-1.496247442781925,0.5244038133323192,-0.46616000641733407
1789799505689325300,0.7083251953125,-1.162883503177762,0.062386021286249156,-0.6999389516755938
1789799505699296300,0.718296142578125,-0.5386556260466575,-0.24546119974553585,-0.5499944739237428
1789799505709268200,0.728268310546875,0.3161246355116367,-0.36674481568038464,-0.0894479234740138
1789799505719239200,0.7382392578125,1.2281623232960701,-0.41927988955974577,0.4958262458845973
1789799505729211400,0.74821142578125,1.8394366108298301,-0.4265384823858738,1.0227595776945353
1789799505739182300,0.758182373046875,1.7895149343192576,-0.3638438335418701,1.4116820306524633
1789799505749153000,0.768153076171875,1.5689163731515408,-0.23822189614176748,1.83302089856863
1789799505759125200,0.778125244140625,1.4703274041056633,0.1591401761204004,1.6741121931165457
1789799505769096200,0.78809619140625,0.004493804287910461,0.39798809520602224,0.6765294345155358
1789799505779067400,0.7980673828125,-3.045699821528792,0.4243956251382828,-0.7796195143729447
1789799505789039000,0.8080390625,-6.023650633433461,0.2879091793745756,-1.6633841706141828
1789799505799010300,0.81801025390625,-6.848085441088676,0.26801556138098237,-1.440237678529322
1789799505808981200,0.827981201171875,-4.8354134932905435,0.4354430888533592,-0.31226065355986354
1789799505818953200,0.837953125,-0.6869359699785709,0.452036496257782,1.0596692124187945
1789799505828924200,0.847924072265625,2.1709745040506125,-0.05192541754841804,1.117979654829204
1789799505838895400,0.857895263671875,1.729490965989232,-0.7819166853994131,0.13498276320248842
1789799505848867000,0.8678671875,-0.40908348971605296,-1.0096388148367403,-0.9100006289988756
1789799505858838300,0.87783837890625,-2.3492127638727425,-0.9895675021886825,-1.4058885419428349
1789799505868809200,0.887809326171875,-3.5791526182353492,-0.7592343134701252,-1.3761620967209338
1789799505878781400,0.897781494140625,-3.755391228672862,-0.25561083783805366,-1.4381605799943207
1789799505888752000,0.907752197265625,-2.936975827437639,-0.15523556989729403,-1.486754807293415
1789799505898723000,0.91772314453125,-1.520904914176464,-0.5546539901673794,-1.299720662075281
1789799505908695300,0.9276953125,-0.15700374861359595,-1.120654134735465,-0.9429998122811317
1789799505918666200,0.937666259765625,0.5781196214288473,-1.4872522354215383,-0.6159358496040106
1789799505928638200,0.94763818359375,0.46008886981010433,-1.4275935932725667,-0.36034634681493044
1789799505938609200,0.957609130859375,-0.5408054975569248,-1.1110089390337468,-0.09247691590636968
1789799505948580400,0.967580322265625,-1.5554571721196173,-0.9252081350028515,0.2860623824641108
1789799505958552000,0.977552001953125,-1.1703367417931556,-0.7087462352484464,0.7414438052356243
1789799505968523300,0.987523193359375,0.9829770178824663,-0.13912205496430397,2.1776859843879937
1789799505978494200,0.997494140625,3.5364591394126412,-1.069584457233548,2.9564214094027874
1789799505988466200,1.007466064453125,5.174512761676311,-1.9677701452761887,2.5828064156919717
1789799505998437000,1.01743701171875,5.448485185635089,-1.9608371311426163,1.7030498260483145
1789799506008408300,1.027408203125,3.7004970244467255,-1.8743109403342006,0.962055810406804
1789799506018380300,1.03738037109375,1.267791738373041,-1.6437930426985023,0.3545055118322372
1789799506028351200,1.047351318359375,-0.47381402830183506,-1.2059902389764785,-0.12818740397393702
1789799506038322200,1.057322265625,-1.5081769500285387,-0.9048644351541996,-0.3826727449133992
1789799506048294400,1.06729443359375,-2.0153437973558903,-0.6717413234561681,-0.5837336619183421
1789799506058265000,1.07726513671875,-2.2619068208634854,-0.5841074636667967,-0.6139671798795461
1789799506068236300,1.087236328125,-1.7596318372309208,-0.46471068439185614,-0.49561757156997915
1789799506078208300,1.097208251953125,-0.15469371810555457,-0.22052549593150614,-0.04161415915340185
1789799506088179500,1.107179443359375,1.4787620549738407,-0.10404255827665328,0.8914999266684055
1789799506098150100,1.117150146484375,1.8752011671721933,-0.07724106059074401,1.6011948409438133
1789799506108122400,1.127122314453125,0.5571960758656263,0.08284194933772086,1.3419970845296978
1789799506118093300,1.13709326171875,-1.6440929024279116,0.7356956169724465,0.24106238026469945
1789799506128065300,1.147065185546875,-2.080017052796483,0.866864082583785,-0.09186696731448173
1789799506138036200,1.1570361328125,0.5468611443340778,0.30574118866324423,0.6701984779283404
1789799506148007200,1.167007080078125,3.962418360605836,-0.6766068836659193,2.0549132989391685
1789799506157979100,1.176979248046875,6.17277794958353,-1.3717431112349032,2.973926963216066
1789799506167950000,1.1869501953125,6.160111360234022,-1.4111667746067047,2.8862969028189775
1789799506177921300,1.19692138671875,4.297680827307701,-1.100978543406725,2.072577842706442
1789799506187893200,1.206893310546875,2.608331902092695,-0.6795762548655271,0.753654467511177
1789799506197864200,1.2168642578125,1.9800012658178805,-0.3784305772989988,-0.5712482743546367
1789799506207835100,1.226835205078125,2.5103975975632666,-0.41787469893693924,-1.6568158981397747
1789799506217807400,1.236807373046875,3.7943496126204725,-0.41782150744497776,-2.2335168849423526
1789799506227778300,1.2467783203125,4.814693945866823,-0.38251930791735644,-1.9167557050928472
1789799506237749200,1.256749267578125,4.776723988434672,-0.3170639621883631,-1.0746411561012268
1789799506247721200,1.26672119140625,3.749439626792073,-0.09997370140254497,-0.4757677927181124
1789799506257692400,1.2766923828125,2.2840111006438732,0.0768757344096899,-0.5233943440288304
1789799506267663400,1.286663330078125,0.7812596827954054,-0.09803834942579269,-0.968415408566594
1789799506277635300,1.29663525390625,-0.6130827982604503,-0.3173199827760458,-1.6535960593104362
1789799506287606300,1.306606201171875,-1.912099111458659,-0.355380541101098,-2.3388375003308055
1789799506297577200,1.3165771484375,-2.733007498553395,-0.3715554308325052,-2.6453108026608825
1789799506307549200,1.326549072265625,-2.5887358057409524,-0.4574748879194259,-2.6340102409675716
1789799506317520100,1.33652001953125,-1.7606226018339395,-0.7576981899440288,-2.54025877508074
1789799506327492400,1.346492431640625,-1.0413824450999498,-1.1175614294171332,-2.3356585780337453
1789799506337463000,1.356463134765625,-0.8605471545219421,-1.2821516876369714,-2.087442818883061
1789799506347434200,1.366434326171875,-1.1538964791238306,-1.1715069546163082,-1.7642969064325094
1789799506357406200,1.37640625,-1.6150374883353709,-0.9194412420392036,-1.2647227061912416
1789799506367377400,1.38637744140625,-1.9349153389006852,-0.6974053415447473,-0.8379571370512247
1789799506377348000,1.39634814453125,-2.132240576508641,-0.6988017643392086,-0.6463555377870798
1789799506387320300,1.4063203125,-2.37256733597517,-1.0048170937687158,-0.5972726501882076
1789799506397291300,1.416291259765625,-2.715418650370836,-1.419551156592369,-0.518663808375597
1789799506407262200,1.42626220703125,-2.8818109895765778,-1.9837480511307715,-0.08608575356453657
1789799506417234200,1.436234130859375,-2.688554024320841,-2.8265836078733204,0.5979498187974095
1789799506427205400,1.446205322265625,-2.5354151344418523,-3.7811084382534026,0.9676151980996132
1789799506437176300,1.45617626953125,-2.6093027929514645,-4.680729712057113,0.8428957624971866
1789799506447148300,1.466148193359375,-2.7258582113206384,-5.386495470190048,0.32406390407830477
1789799506457119200,1.476119140625,-3.109344902965426,-6.059402330294251,-0.17882511979937551
1789799506467090200,1.486090087890625,-3.7451498206436633,-6.738242672100663,-0.38772973604202265
1789799506477062100,1.496062255859375,-4.801646248245239,-6.923471813723444,-1.0278262134343386
1789799506487033000,1.506033203125,-5.8140089350879185,-7.134756018579006,-2.4635268330559135
1789799506497004300,1.51600439453125,-6.2357455701500175,-7.6934952322334045,-3.083804511256516
1789799506506976300,1.525976318359375,-5.709774653631448,-8.508139298236369,-3.2117712582170963
1789799506516947200,1.535947265625,-5.025713362306356,-9.48173064813614,-3.153208594611287
1789799506526918100,1.545918212890625,-4.228382250154018,-10.541477017444372,-2.8383278216809034
1789799506536890400,1.555890380859375,-3.269842338913679,-11.386329759228229,-2.3385656976521014
1789799506546861000,1.565861083984375,-2.8626357489854097,-11.85539454717636,-2.6921254530668257
1789799506556832300,1.575832275390625,-2.9664404068529606,-11.392622721892595,-3.4629081655114886
1789799506566804200,1.58580419921875,-3.0969983393505216,-11.54988833631277,-4.39156731775105
1789799506576775400,1.595775390625,-3.098749859192967,-11.60429329571724,-4.839905544012785
1789799506586747100,1.6057470703125,-3.1578701566815375,-11.688985841357708,-4.858381111901998
1789799506596718300,1.61571826171875,-2.78592660331428,-12.013133624327182,-4.365193690088391
1789799506606689300,1.625689208984375,-1.9412410347908735,-13.226334525334835,-2.1966420292705298
1789799506616661200,1.6356611328125,-1.2356067940831184,-13.164184650892018,-0.8018143950462341
1789799506626632200,1.645632080078125,-0.8579423788510262,-10.092744238907098,-1.8559405863851308
1789799506636603400,1.655603271484375,0.21361944287009535,-9.018638504856824,-0.1494464651018381
1789799506646575000,1.6655751953125,1.36649425079599,-9.288903890991211,2.4074311440855265
1789799506656546300,1.67554638671875,2.319498593610525,-9.086545919913053,4.194624357458949
1789799506666517200,1.685517333984375,2.9726819315910338,-8.223533252060413,5.556411307346821
1789799506676489500,1.695489501953125,3.426971175211668,-7.131756252241134,6.534117691349983
1789799506686460200,1.705460205078125,3.9119033943772314,-6.412071274349093,7.112763382479548
1789799506696431400,1.715431396484375,4.397040196204185,-5.8241287625640625,7.432623697388172
1789799506706403300,1.7254033203125,4.659066161781549,-5.040107798361778,8.231769750007986
1789799506716374300,1.735374267578125,4.480976370519399,-4.758330838131904,9.65409154035747
1789799506726345200,1.74534521484375,4.8762955387771125,-3.4801398708194493,12.28582243821621
1789799506736317400,1.7553173828125,5.433333209210634,-1.6651690082043409,15.301840822708606
1789799506746288400,1.765288330078125,5.71486350120306,0.1916556675389409,17.464106535124778
1789799506756259300,1.77525927734375,5.301514170736074,1.7274737809479235,17.434008333981037
1789799506766231300,1.785231201171875,3.8663328988134857,1.943940356877446,16.5962049261868
1789799506776202200,1.7952021484375,1.3112287290394304,3.0780075154155493,15.204263076531886
1789799506786173400,1.80517333984375,0.31491701328754423,3.5197453204989433,13.993283358705042
1789799506796145200,1.815145263671875,-1.338541098856926,3.9428286939948793,14.481747259128094
1789799506806116400,1.825116455078125,-3.8969928254932165,3.7357472015261646,14.649264218449591
1789799506816087300,1.83508740234375,-6.394952966287732,3.809771053636074,13.997618173038958
1789799506826059300,1.845059326171875,-6.902906580078602,5.327021536958218,13.117877657747268
1789799506836030200,1.8550302734375,-4.462293297359347,6.115853116312623,12.008442251640558
1789799506846001400,1.86500146484375,1.0297761053930967,5.102943316981196,11.357399432820081
1789799506855973000,1.87497314453125,2.635945300683379,4.830022447901964,10.452671775788069
1789799506865944300,1.8849443359375,-0.8934137244004756,4.004147378310561,9.42251390453577
1789799506875915300,1.894915283203125,-2.8182886577367783,3.3998937831938263,7.739107228851318
1789799506885887500,1.904887451171875,-4.364954620635509,2.811003761425614,6.427634754183888
1789799506895858200,1.914858154296875,-5.369843026074767,2.1475608952373264,6.298663506355881
1789799506905830400,1.924830322265625,-3.7168063542127605,1.1299053626835345,6.21048896381855
1789799506915801300,1.93480126953125,-1.2491934208869933,0.9066834672749042,6.121612995013594
1789799506925772300,1.944772216796875,0.7858657152861356,1.230383506476879,6.523876867842674
1789799506935743200,1.9547431640625,1.122213054615259,1.2357424031615256,6.864037627980113
1789799506945715200,1.964715087890625,3.2924323563843965,-0.6648837126463651,7.253089552536606
1789799506955686400,1.974686279296875,7.423364286133647,-1.802539251065254,6.690137105101346
1789799506965658000,1.984658203125,0.29361820467114447,-1.1306886220157146,2.115667627370357
1789799506975629300,1.99462939453125,-4.894361356821656,-1.8653484661996365,-1.277424659115076
1789799506985600300,2.004600341796875,-4.950995682713389,-0.29251053569018837,-2.1239275061935183
1789799506995572200,2.014572265625,-3.4643823297172784,1.3283955524176358,-0.7449117736071348
1789799507005543200,2.024543212890625,-1.8043072836510836,1.6852835754722355,0.22689503096342087
1789799507015514400,2.034514404296875,-2.246278459098935,2.3209464543312786,-0.360045025780797
1789799507025486300,2.044486328125,-4.126539247748256,3.132262252694368,-2.445589317566156
1789799507035457300,2.054457275390625,-4.369271899312734,3.826902805700898,-3.5553777748942372
1789799507045428200,2.06442822265625,-2.779960972908139,4.726799973836541,-1.8115303667724132
1789799507055400400,2.074400390625,-0.5580629948932677,5.63899372896552,0.5460784695237875
1789799507065371400,2.084371337890625,0.16444398161694407,6.841583804109693,0.5876040736109018
1789799507075342000,2.094342041015625,-1.0897686556715518,6.929845440408587,-0.6580202566176653
1789799507085314300,2.104314208984375,-2.553167064231634,5.855325864860415,-0.9126578655093908
1789799507095285200,2.11428515625,-2.8812650461316105,5.0532595408797265,-0.053715223574638364
1789799507105256200,2.124256103515625,-2.9481185682207345,4.864397011190652,1.028489061257243
1789799507115228200,2.134228271484375,-2.607434660992026,4.800845453256368,1.7224211737334727
1789799507125199400,2.144199462890625,-2.820211150231957,2.2040353543922304,-3.646230012208223
1789799507135170300,2.15417041015625,-0.5214005398631095,1.9339108380332588,-4.5451387538284065
1789799507145142300,2.164142333984375,0.7359142281591892,2.455987669722736,-1.4965420418143272
1789799507155113200,2.17411328125,1.3582710507214069,0.784962336705625,-1.918846832153201
1789799507165084400,2.18408447265625,0.9974048447508365,-1.4408315527692437,-4.98055378563106
1789799507175056100,2.19405615234375,0.9127450323361903,-0.7757534865945577,-4.41137384198308
1789799507185027300,2.20402734375,1.98142896053344,2.868316132709384,0.012851298266649245
1789799507194999300,2.213999267578125,0.15701441613808273,1.077465858133137,-0.24884967314004897
1789799507204970200,2.22397021484375,-1.377046916731447,-0.6614081454902887,-0.41927988955974577
1789799507214941200,2.233941162109375,-2.7855191915571687,1.0124214312925934,2.176772961196303
1789799507224913400,2.243913330078125,-1.7182229913912712,0.7176639934584498,3.317439371868968
1789799507234884400,2.25388427734375,0.1500479381263256,-1.3617641535341738,3.782377435275912
1789799507244855000,2.26385498046875,-1.1239432394087314,-3.4422648981943724,3.0866338894635437
1789799507254827300,2.2738271484375,-1.401512811076641,-1.7031110547162591,0.8702075477927923
1789799507264798200,2.283798095703125,0.25333061794638634,-3.3425089311957357,1.972005006366968
1789799507274769400,2.293769287109375,-1.2283072847247123,-6.671036098790168,4.706657349517942
1789799507284741000,2.3037412109375,-1.3595102371275425,-3.641626902326941,4.996527599832415
1789799507294712300,2.31371240234375,-0.9240624720990658,-3.2938013066500424,4.469519156959652
1789799507304683300,2.323683349609375,0.10406666980460286,-3.6899563412100074,2.6773995930999517
1789799507314655200,2.3336552734375,0.7229167994201183,-4.132015633332729,1.8991157112449406
1789799507324626200,2.343626220703125,1.1717150444090365,-3.6664509624600408,1.0415250684410333
1789799507334597400,2.353597412109375,1.3520201736330986,-2.5696722088307142,0.012898060017824172
1789799507344569000,2.363569091796875,0.3803310040928423,-0.83709876665622,-1.2767431065917014
1789799507354540300,2.373540283203125,-0.9883306538701057,0.4388876763492822,-3.1390134805202483
1789799507364511200,2.38351123046875,-1.630128966744244,0.659072688280046,-4.580467256841064
1789799507374483500,2.3934833984375,2.481818861071765,1.1273524633303285,-5.98726706840992
1789799507384454100,2.4034541015625,8.442032210600376,0.9010314328625798,-7.988363144704699
1789799507394425300,2.41342529296875,6.239066239005327,-1.0643304822281003,-6.330970031198859
1789799507404397300,2.423397216796875,-0.003568944527953863,3.0236382118463516,-4.378783239501715
1789799507414368500,2.433368408203125,-4.149591037511826,2.735943844266236,-2.274144955667853
1789799507424339200,2.443339111328125,-2.2909974523998797,2.5981594676464796,-1.4773749845296145
1789799507434311400,2.4533115234375,-0.6272106192689388,1.541000484482944,1.0327180771291256
1789799507444282400,2.463282470703125,-0.7518903073828667,1.2526733719572425,0.6235194366008043
1789799507454253300,2.47325341796875,-0.6622340018551797,0.7163476501628756,-1.7667057211399078
1789799507464225300,2.483225341796875,0.6252584622878581,0.1938876643747091,-0.8769061686486005
1789799507474196200,2.4931962890625,1.3551438586115836,-0.544042872042954,1.8010434595495461
1789799507484167400,2.50316748046875,1.056838884363696,-2.1491145544201133,2.6866256866067646
1789799507494139100,2.51313916015625,1.4840660066008566,-3.586475216208398,2.001017750361562
1789799507504110300,2.5231103515625,1.6656617601573467,-4.825025662527978,1.907423520863056
1789799507514081800,2.533081787109375,1.239790801769495,-4.771947567813098,3.8282355156093835
1789799507524053500,2.543053466796875,0.5149181921064854,-4.944892689663171,5.843740641006827
1789799507534024700,2.553024658203125,1.276397069633007,-5.373615530350804,6.627983139005303
1789799507543995600,2.56299560546875,2.087132437759638,-4.438118056523799,6.973156174346804
1789799507553967600,2.572967529296875,1.5751508836269377,-4.492505480271578,2.9412977822899817
1789799507563938600,2.5829384765625,0.5249509258210658,-4.615042311137914,0.815421480116248
1789799507573910800,2.592910888671875,-0.03688208913020789,-3.991258086121082,1.5597206747829913
1789799507583881700,2.6028818359375,-0.4517676161885261,-2.4275898427560922,0.4780991582751274
1789799507593852700,2.612852783203125,-0.21566972646340726,0.0008744447469711303,-0.7074842524886131
1789799507603824600,2.62282470703125,2.03011466550827,1.6490695217967033,-3.477969541043043
1789799507613795800,2.6327958984375,2.5258067636191845,3.612080489847064,-2.3083611135244366
1789799507623766800,2.642766845703125,1.4787097402647136,3.920673560810089,-1.9751257687360046
1789799507633738800,2.65273876953125,0.4766835923887789,2.162420318455994,-2.909474657049775
1789799507643709700,2.662709716796875,0.29042642289251086,0.08028992676734924,-3.470354389864206
1789799507653680600,2.6726806640625,1.1850222697496413,-0.3137698890790343,-3.1990695975542067
1789799507663652600,2.682652587890625,1.1618392548218368,0.2047740923091769,-2.9333184739738702
1789799507673623600,2.69262353515625,0.7334630356147885,0.1655000665411353,-3.931000309035182
1789799507683594800,2.7025947265625,0.5047124399125575,-0.5007385678455233,-3.9888270595818756
1789799507693566500,2.71256640625,-0.2797216351352632,0.23530513191223143,-2.536082073917985
1789799507703537700,2.72253759765625,-0.668920859207958,1.3256401162296534,-1.16790396168828
1789799507713508600,2.732508544921875,0.5291442858576775,0.9504895835146308,-2.495439682406187
1789799507723480600,2.74248046875,2.137693581217527,-0.38117578435391186,-5.418598581415415
1789799507733451500,2.752451416015625,1.4313247426249085,-0.6544163869068026,-5.853823643603921
1789799507743422700,2.762422607421875,-0.03271086786016822,0.1369634156256914,-4.306572574293614
1789799507753394700,2.772394775390625,-0.14524419110640882,0.4746919801801443,-3.1954964152425527
1789799507763365600,2.78236572265625,-0.16881942022219298,15.039521427142619,-0.47863691841363903
1789799507773336600,2.792336669921875,0.643563276720047,19.97772134116888,-1.5672814654260874
1789799507783308800,2.802308837890625,0.43344051685929297,7.378308754354715,-0.38236908579170703
1789799507793279700,2.81227978515625,-1.0613806925117968,9.194976484015584,1.0768220072716475
1789799507803250400,2.82225048828125,-2.316986318528652,10.337490568381547,-0.23336218115091323
1789799507813222700,2.83222265625,-2.343295648783445,7.396864986264705,-0.7158066751539707
1789799507823193600,2.842193603515625,-2.6433155371904373,6.119191320824623,-0.8766875574618578
1789799507833164800,2.852164794921875,0.04116320051550865,4.003620724087954,-0.7481798354923724
1789799507843136500,2.862136474609375,-0.2995744644607417,3.257427386237681,-0.2796247506320476
1789799507853107700,2.872107666015625,-2.985583498740196,1.9765853198945522,-1.0262211163252593
1789799507863078700,2.88207861328125,-2.883547604110837,-0.07861965546756983,-2.013530610454082
1789799507873050600,2.892050537109375,-0.562118334698677,1.1363961860075593,-0.5235018960565329
1789799507883021600,2.902021484375,-1.2478577883690596,-3.1857442520350214,-1.9311194537490606
1789799507892993800,2.911993896484375,-1.087500053152442,-7.219752515602111,-2.2809598963797093
1789799507902964500,2.921964599609375,1.1301491083115338,-10.592849477285146,-2.0188608655661344
1789799507912935700,2.931935791015625,6.839353853100538,-21.16802067453861,-4.0167718820840115
1789799507922907600,2.94190771484375,0.8020978881627321,-24.9591899035573,-5.4436675562202925
1789799507932878800,2.95187890625,-4.947900054785609,-13.142397181975841,-5.931861992052197
1789799507942849500,2.961849609375,-2.085548967960477,-5.980225917726755,-1.9538333898603915
1789799507952821800,2.97182177734375,-0.4659282800206914,-7.521302097794413,0.5982160685181618
1789799507962792700,2.981792724609375,0.3052414224475622,-6.047834057575464,1.226685236480832
1789799507972763600,2.991763671875,1.8110586576074361,-4.398507346147299,-0.43931963802576063
1789799507982735600,3.001735595703125,0.4709609769582748,-3.617561551606655,-0.3519973284035921
1789799507992706600,3.01170654296875,-1.1971551175486295,-2.780902637672424,0.19127602057158946
1789799508002677800,3.021677734375,-1.8585949002861974,-1.491861190521717,0.31094167991578575
1789799508012649700,3.031649658203125,-0.9618032969504594,-0.614756284430623,-0.0059200376987457275
1789799508022620700,3.04162060546875,0.8308651329636574,-0.17532500272393226,0.4868652330547571
1789799508032591600,3.051591552734375,2.0020026697456834,1.4363222586512565,1.415789173710346
1789799508042563600,3.0615634765625,0.892856601974368,2.3137381303876636,1.9400275673478842
1789799508052534500,3.071534423828125,-1.662481376555562,3.147044811284542,2.8770003744244574
1789799508062505700,3.081505615234375,-2.4014286888003347,3.474181839197874,3.5749563355892895
1789799508072477700,3.091477783203125,-0.8424830900430679,2.4733465085417032,4.068856874108314
1789799508082448600,3.10144873046875,0.024078210201859473,-0.14775310518741608,3.977649247485399
1789799508092419600,3.111419677734375,0.277072728061676,-1.8238176014155147,3.869676364022493
1789799508102391800,3.121391845703125,0.6587228519290685,-2.0100392612069844,3.9021524002134798
1789799508112362500,3.131362548828125,0.9419242920041083,-2.054846955704689,3.1685061169862747
1789799508122333700,3.141333740234375,0.6870885301917791,-1.719936371180415,1.9892238521933554
1789799508132305700,3.1513056640625,0.35938802317678925,-1.250945232990384,0.43505262823104857
1789799508142276900,3.16127685546875,0.6149772337049245,-0.6829752496540547,-1.1584387987285851
1789799508152247600,3.17124755859375,0.27218729410767556,0.21189912188351154,-1.3629571627110242
1789799508162219800,3.1812197265625,-0.21956629551053045,1.0517518634229899,-0.4287123192936182
1789799508172190700,3.191190673828125,-0.37820612089335914,1.6354022309720515,0.955267173179984
1789799508182161700,3.20116162109375,-0.09440554588139057,1.410854639917612,2.317071074202657
1789799508192133600,3.211133544921875,0.4880687636256218,0.23890754031836986,3.2475621180444953
1789799508202104600,3.2211044921875,0.6356453432023524,-1.0712661267101764,3.9278322003930803
1789799508212075800,3.23107568359375,0.8877765222311019,-1.7162784331947565,3.8408150111973285
1789799508222047500,3.241047607421875,0.8246762151956558,-1.4243401444345711,3.204672824388742
1789799508232018700,3.251018798828125,-0.04825812721252441,-0.6506266392350196,3.287918093830347
1789799508241990700,3.26099072265625,-0.9585270517587661,-0.23560616068542004,3.717190385094285
1789799508251961600,3.270961669921875,-0.6134720898389816,-0.578659135133028,3.484515017163753
1789799508261932500,3.2809326171875,0.6422644690811634,-1.2405395743101835,3.284430251714587
1789799508271904800,3.29090478515625,1.2235586288928986,-1.5051228231549263,3.482068208533525
1789799508281875700,3.300875732421875,1.3757716360986232,-1.0923094992607831,3.640345045822859
1789799508291846700,3.3108466796875,1.6202093380153177,-0.6290373232394456,2.7459225097060203
1789799508301818600,3.320818603515625,1.6232944445490836,-0.20487141520380972,0.7036468662828207
1789799508311789800,3.330789794921875,1.2833715848207472,0.00265431390106678,-1.2799211521059275
1789799508321760800,3.3407607421875,0.8127683352589606,0.24674714790284633,-1.6806752048939466
1789799508331732700,3.350732666015625,1.3427274446308612,0.08465455171763897,-0.9676204587966203
1789799508341703700,3.36070361328125,2.3859622395992277,-1.0312614485800267,-1.043571479576826
1789799508351674600,3.370674560546875,2.027118406301737,-1.6807511927396057,-1.1268640952914952
1789799508361646600,3.380646484375,0.20426585052609442,-1.156204756066203,-0.583521188211441
1789799508371617500,3.390617431640625,-0.8172071944892406,-0.449856229609251,-0.3345394131243229
1789799508381588700,3.400588623046875,-1.0308896926581859,0.19289748429358006,-0.3811152863383293
1789799508391560400,3.410560546875,-1.0402642547249794,0.9420148928970098,-0.20585691910982132
1789799508401531600,3.42053173828125,-0.9768377844750881,1.3388982417315245,0.40320729115903375
1789799508411502600,3.430502685546875,-0.7685480852603912,1.5589210488379002,0.7720522939890623
1789799508421474800,3.440474853515625,0.09375848014950752,1.5523773262828588,0.9208078542172908
1789799508431445500,3.450445556640625,0.8625356979906559,1.2227286078095436,0.9061030370384454
1789799508441416700,3.460416748046875,1.520090090662241,0.7507213366687298,0.6137684424370526
1789799508451388700,3.470388671875,1.614429585570097,0.16640110703408717,0.21346154889464378
1789799508461359600,3.480359619140625,1.3137982872664928,-0.3543237255245447,0.47656069666147227
1789799508471330600,3.49033056640625,0.6087830552399158,-0.5294809704661368,1.417145264494419
1789799508481302800,3.500302734375,0.23725045729372649,-0.6078349607348442,2.018788969373703
1789799508491273700,3.510273681640625,0.2355331319818273,-0.613777210265398,1.9657909541577099
1789799508501245700,3.52024560546875,-0.09117251877691596,-0.5442991848915815,1.069377536484599
1789799508511216400,3.53021630859375,-1.1672913827478886,-0.2505810269773006,0.5377706599056721
1789799508521187600,3.5401875,-1.5652350542902946,0.04210018910467624,0.7733820812880993
1789799508531159300,3.5501591796875,-0.9793032247405499,0.20446867962181567,1.7581775467693805
1789799508541130500,3.560130615234375,-0.26067922714352604,0.1085948147535324,2.6641882293492554
1789799508551101400,3.570101318359375,0.13441548470854758,-0.22960662800967693,2.78174960989058
1789799508561073700,3.58007373046875,0.3668809362154454,-0.8803969333738088,2.039969704568386
1789799508571044400,3.59004443359375,0.8155401380598545,-1.1810323233306408,0.584146042111516
1789799508581015600,3.600015625,0.06931026759147643,-1.3861404698997735,-0.2587725167393684
1789799508590987500,3.609987548828125,-0.7408685626309365,-1.8369944783747194,0.39957857926785945
1789799508600958500,3.61995849609375,0.037025881515070795,-2.597538705399632,1.1886755315601825
1789799508610929400,3.629929443359375,0.26918168255090713,-3.1274574827611445,1.5662275724589825
1789799508620901600,3.639901611328125,-0.6187210964083671,-3.275446150270104,1.2235545372396708
1789799508630872600,3.64987255859375,-0.8397136253297328,-2.866545615905523,-0.015181787040829658
1789799508640843300,3.65984326171875,-0.1777333059746772,-2.1413000812768934,-1.2228536954939364
1789799508650815500,3.6698154296875,0.23584877380225805,-1.2692273241341114,-1.575812562406063
1789799508660786400,3.679786376953125,0.058846156722307204,-0.44705987688899035,-1.0614584339231252
1789799508670757600,3.689757568359375,-0.3373251713853329,-0.02623421919196844,-0.05578267749845981
1789799508680729300,3.699729248046875,0.07818908203057945,-0.20625293269008396,0.356240372800827
1789799508690700500,3.709700439453125,0.1531120749372989,-0.829910900978744,0.4220663054078817
1789799508700671500,3.71967138671875,-0.014296309443190693,-1.5652245328962802,0.22863047645390033
1789799508710643500,3.7296435546875,0.033037177205085755,-2.0310914015859365,0.06191080498993396
1789799508720614400,3.739614501953125,0.31655140955634414,-1.835069063270092,0.20506196933984755
1789799508730585600,3.749585693359375,0.4318366618592292,-1.4334610240012406,0.42505438130795953
1789799508740557300,3.759557373046875,0.23040435425862668,-1.6238786741778253,0.15573182898163795
1789799508750528500,3.769528564453125,1.116335175557807,-1.8222291631802916,-1.7994032911270856
1789799508760500500,3.77950048828125,1.5053506405614316,-1.1753387878641486,-3.0825960122495886
1789799508770471700,3.7894716796875,1.6317371325932442,-0.8312056169643998,-3.6088328862279653
1789799508780442400,3.7994423828125,1.4599743523955344,-0.6203311619535088,-4.685049913343787
1789799508790414600,3.80941455078125,1.7138719565749168,-0.1518593714624643,-5.01488918595314
1789799508800385500,3.819385498046875,3.0059833126902578,0.6106695996388792,-4.305801005399227
1789799508810356500,3.8293564453125,2.935616229522228,1.1409618864879012,-3.766102007779479
1789799508820328400,3.839328369140625,2.2393958599783477,1.078704752278328,-3.5041847632735967
1789799508830299400,3.84929931640625,0.43689621027112,1.028366311660409,-1.8272697876960038
1789799508840270600,3.8592705078125,-1.4889270367659628,0.21998218283504245,-0.5852659860521554
1789799508850242300,3.8692421875,-1.4825076712429524,-1.0782631459906697,-1.1203449226558209
1789799508860213500,3.879213623046875,-0.6408230381011962,-1.7336653290644286,-1.7585685919135807
1789799508870184400,3.889184326171875,-0.3991898722112179,-1.441888076084852,-2.5121523322761057
1789799508880156400,3.899156494140625,-0.06775777745246887,-0.955203752554953,-3.0308465357899665
1789799508890127400,3.90912744140625,0.4512348244860768,-0.1810150310590863,-3.174838827139139
1789799508900098600,3.9190986328125,0.28411972396373747,1.1457315851077436,-3.083548782929778
1789799508910070500,3.929070556640625,0.3088416388966143,2.0057146760061384,-2.8583301607459783
1789799508920041500,3.93904150390625,0.0928301132582128,1.5338231401994824,-3.2791233774781223
1789799508930012400,3.949012451171875,0.08363587619438767,0.6550909251675009,-3.831735048162937
1789799508939984600,3.958984619140625,-0.09864493701681494,0.8556216808184981,-3.5673727485924958
1789799508949955600,3.96895556640625,-0.05432188423089683,1.297792324361205,-2.968113893023133
1789799508959926500,3.978926513671875,0.09202245013713836,0.9568141103610396,-4.190005465486646
1789799508969898500,3.9888984375,-0.11062303264550864,0.953430313141644,-5.188225060686468
1789799508979869700,3.99886962890625,-0.09417465973496436,1.5006015463382005,-4.456781840461492
1789799508989841400,4.00884130859375,-0.5036731599926948,1.8594842503413558,-3.564432603487372
1789799508999812600,4.0188125,-0.005374094253778458,1.7037050750866531,-3.33578751398623
1789799509009783600,4.028783447265625,0.40052850040383636,1.244516661247611,-3.283969648465514
1789799509019755500,4.038755615234375,-0.07002097314409911,0.9304372678279876,-2.420039281246066
1789799509029726500,4.0487265625,-0.9201134422123431,0.5660086201354861,-1.61802322614789
1789799509039697400,4.058697509765625,-0.8791841235179454,-0.15299392845034598,-2.2694354628026483
1789799509049669600,4.068669677734375,-0.06942249579429625,-1.068157931561768,-3.0655080993264914
1789799509059640300,4.078640380859375,-0.4387175804793834,-1.352722476683557,-1.0160480973571537
1789799509069611500,4.088611572265625,-1.86966808296442,-1.0832406421422958,2.7855799818336964
1789799509079583500,4.09858349609375,-1.238804128819704,-1.0626613799721003,4.75815314347744
1789799509089554400,4.108554443359375,-0.6971358769536018,-1.643079341471195,4.484180134996771
1789799509099525400,4.118525390625,-0.9458545441251247,-3.053253597909212,2.340404018995166
1789799509109497600,4.12849755859375,-0.27631405518148094,-3.373648165825009,0.9732131642371415
1789799509119468500,4.138468505859375,-0.42349432891700417,-2.393861468416452,0.04115151007771492
1789799509129439500,4.148439453125,-0.3136989062020555,-0.7701742251574992,-1.2165320912569761
1789799509139411500,4.158411376953125,-0.06332123804343864,0.5250315898418426,-2.6276895135134457
1789799509149382700,4.168382568359375,-0.4330723046014085,1.347436937496066,-2.89532864279747
1789799509159354400,4.178354248046875,-0.3281014890313148,1.8637147275179624,-1.4511398885548115
1789799509169325600,4.18832568359375,0.3497358132123947,1.374852767688036,0.5306956069529056
1789799509179296500,4.198296630859375,1.1486509796857833,-0.0865787977784872,1.173829260084033
1789799509189268500,4.2082685546875,1.864438950139284,-1.8080892864078282,1.0938234109550713
1789799509199239400,4.218239501953125,1.4338918166339396,-2.975158550837636,1.161981001380086
1789799509209210400,4.22821044921875,-0.08566577458679675,-3.4004473254233596,1.6388754600405693
1789799509219182600,4.2381826171875,-1.0152414571493864,-2.5156255613446232,1.8179431564241646
1789799509229153300,4.2481533203125,-0.5779945337444543,-0.38456221192181106,1.0704974804252385
1789799509239124500,4.25812451171875,-0.22897826697826384,1.3667711680412291,-0.010839958444237708
1789799509249096400,4.268096435546875,-0.3803098151743412,2.1206325563013553,-0.5194453141421079
1789799509259067600,4.278067626953125,-0.23536241505742073,1.7393109337359667,-0.7572785032272339
1789799509269038300,4.288038330078125,0.02026537391543388,0.6678700349807739,-0.203168118417263
1789799509279010600,4.298010498046875,0.5736661491513252,-0.05853460655510425,1.8508569995105266
1789799509288981500,4.3079814453125,0.9431821831107139,-0.24055004682838915,2.970588758704066
1789799509298952700,4.31795263671875,0.361052156996727,0.10262392365038395,2.6160019983291622
1789799509308924400,4.32792431640625,-0.6608651246547699,0.1498778422564268,2.3805823001265525
1789799509318895600,4.3378955078125,-1.329848089313507,-0.15746084473133087,2.4585154346346854
1789799509328866600,4.347866455078125,-2.013034935891628,-1.17073889285326,3.552188623464107
1789799509338838500,4.357838623046875,-0.2590600832427852,-3.2621067762255667,5.043306886664032
1789799509348809500,4.3678095703125,3.1275977680146694,-5.1693362358212465,5.822158923795819
1789799509358780400,4.377780517578125,3.650736675977707,-4.1810576043993235,5.162945658001304
1789799509368752400,4.38775244140625,1.4522925657212733,-1.7591846779853104,3.2008623261898754
1789799509378723300,4.397723388671875,-0.6326900005280971,-0.18186638719141482,1.8300889367699622
1789799509388695600,4.407695556640625,-1.7512766813397407,0.8212082468241453,1.3464847513377665
1789799509398666500,4.41766650390625,-0.9933107803702353,1.438645148640871,0.07397066061794758
1789799509408637400,4.427637451171875,-0.3683843995809555,1.742290241807699,-0.5719231048762798
1789799509418609400,4.437609375,-0.7976420777976513,1.9190321255922316,0.05462181702554226
1789799509428580600,4.44758056640625,-1.0763958908140658,1.538057124507427,1.1121855815976858
1789799509438551600,4.457551513671875,-0.4320096072733402,1.0096662873655557,2.098848009994626
1789799509448523500,4.4675234375,1.0363678318083285,0.5481739804983139,2.1585750412046907
1789799509458494500,4.477494384765625,2.3298563214957713,0.23223288486003874,1.3625064963340758
1789799509468465700,4.487465576171875,2.737068172121048,-0.02812777785360813,0.30538404578864575
1789799509478437400,4.497437255859375,1.3351660694658756,-0.49412850205600256,0.7498749489724635
1789799509488408600,4.50740869140625,-0.034174675068724895,-0.8710895913243293,2.814239674606919
1789799509498379500,4.517379638671875,-0.470115758305788,-1.287042382287979,4.337601334285736
1789799509508351500,4.5273515625,1.1339116757154464,-1.7983949908673762,3.3482682253748175
1789799509518322000,4.537322021484375,2.55608382846117,-1.7242735236018896,1.707213667729497
1789799509528292900,4.54729296875,1.3585925377607344,-0.8352168984323739,0.9319470878690481
1789799509538265000,4.55726513671875,-0.5635644418537616,0.13087971179783345,0.8332733631491661
1789799509548235800,4.56723583984375,-0.4041898724555969,0.33605741647183895,-0.14229776239097117
1789799509558207000,4.57720703125,0.33236849882602687,0.07684417022764682,-1.0941536658227442
1789799509568179000,4.587178955078125,-0.3053682636976242,-0.08324936109483241,-1.5442577327132223
1789799509578150100,4.597150146484375,-1.2570540712594984,-0.023562661895155906,-1.3766665391117334
1789799509588121900,4.607121826171875,-1.0209329467892647,0.022551439025998113,-0.9724299049049615
1789799509598093000,4.617093017578125,-0.21757307586669922,-0.015113397979736327,-0.45523850716948505
1789799509608064000,4.62706396484375,0.3385410865137353,-0.06653086600601672,0.49127603523433205
1789799509618036000,4.637035888671875,1.0756827741086483,-0.1854705491632223,1.1489420715868472
1789799509628007000,4.6470068359375,1.9552397495269773,-0.2451934887200594,1.4692109672963618
1789799509637978000,4.65697802734375,1.3588883058369159,-0.2305664129525423,1.443040753251314
1789799509647949800,4.66694970703125,-0.11099840529654174,-0.42663083684444425,0.551299419042468
1789799509657921000,4.676921142578125,-0.9264975902915,-0.5169096581846475,-0.17945523439645766
1789799509667892000,4.68689208984375,-0.7093056226968765,-0.16337445268929005,0.3810749543279409
1789799509677864200,4.6968642578125,-0.4435048147559166,0.48090778595507144,1.498802972483635
1789799509687835000,4.7068349609375,-0.49934415434505786,1.0081821862876414,2.3565689718544482
1789799509697805800,4.716805908203125,-0.6036790100991726,1.0992232241719961,2.4597610507816077
1789799509707778000,4.726778076171875,-0.4640986899733543,1.1430004065781831,2.393404956820607
1789799509717749000,4.7367490234375,-0.10416406576447189,1.0209481443583965,2.08641990557611
1789799509727720000,4.746719970703125,0.08652677533030509,0.555419129320979,1.8204513398528097
1789799509737692000,4.75669189453125,0.26514146724939347,0.021698621588945387,2.1693080321431157
1789799509747663000,4.7666630859375,0.7267441756885499,-0.6409206532567739,2.052407161337137
1789799509757634000,4.776634033203125,1.0003787459950892,-1.2654571579456328,0.6645242316842078
1789799509767606000,4.78660595703125,0.2018483410555869,-1.3779928192794322,-0.0004278700232505798
1789799509777577000,4.796576904296875,-0.2130032837331295,-1.2337865929186342,0.6963011796951294
1789799509787549000,4.806548828125,-0.1403928055524826,-1.4172715212225913,1.6567273430734872
1789799509797520000,4.816519775390625,0.014503157126903534,-1.6949626734435557,1.8409335713893173
1789799509807491000,4.826490966796875,-0.2446878772854805,-1.932372084158659,1.3066191894173622
1789799509817463000,4.836463134765625,-0.5261595709584653,-2.2835250706925985,0.21284721638858317
1789799509827434000,4.84643408203125,-0.13650105881094932,-2.5453815249219534,-1.2089350602567195
1789799509837405000,4.856405029296875,0.873576147443056,-2.566075353382528,-1.9980565624684095
1789799509847377200,4.866377197265625,1.725520308792591,-2.4385467055782675,-1.8939701650500296
1789799509857347800,4.876347900390625,1.500792684996128,-1.908529728539288,-0.7746510783106089
1789799509867319000,4.886319091796875,1.0733845071036368,-0.9735369893640279,1.166122923490405
1789799509877291000,4.896291015625,1.0847755966246126,-0.8338529166027903,2.0395757368147374
1789799509887262200,4.90626220703125,1.1263865409076212,-1.8957725382968782,1.3553367508351801
1789799509897233000,4.91623291015625,1.297236444044113,-2.4272648485854265,0.5641647458344697
1789799509907205000,4.926205078125,1.6684522676587104,-1.8308809639304875,-0.7346931619316339
1789799509917176000,4.936176025390625,1.0679178391955793,-0.5092395619481802,-2.0072230347424744
1789799509927147000,4.94614697265625,0.7781294219456613,0.12028086863309144,-2.7277508931994436
1789799509937119000,4.956118896484375,1.1824516886092722,-1.0384694802626966,-3.9024031601041553
1789799509947090000,4.96608984375,1.2650165745712816,-1.5521017242118715,-5.117207989177108
1789799509957061000,4.97606103515625,0.9389971525110303,-0.39124534294754265,-5.520337538924813
1789799509967032800,4.98603271484375,0.6241767314657568,1.438303787857294,-5.066016731122136
1789799509977004000,4.996004150390625,2.106000950489193,1.9962588653966784,-5.298457705774903
1789799509986976000,5.00597607421875,3.1025895834863184,1.122114562676847,-5.9949307349056005
1789799509996947000,5.015947021484375,2.4594798957526685,0.48974634144902224,-5.417638796472549
1789799510006918000,5.02591796875,0.8156067735552788,0.9179851980119943,-4.1230034748375415
1789799510016890000,5.03589013671875,-0.044433015966415405,0.47588469709604975,-5.1468169454991815
1789799510026861000,5.045861083984375,0.07900880091562866,-0.5717658684879541,-6.348242653039097
1789799510036832000,5.05583203125,0.4507131386995315,-0.6771843912929296,-5.900256308954954
1789799510046804000,5.065803955078125,0.6223427940368652,0.42813831879794595,-4.860961191523074
1789799510056775200,5.075775146484375,0.2842940576173365,0.9202510971173643,-5.684819660595059
1789799510066746000,5.08574609375,-0.2147579453807324,1.2023016135916114,-6.57843672554791
1789799510076718000,5.095718017578125,0.08704831498637795,1.7045006093785167,-6.158572898620367
1789799510086689000,5.10568896484375,-0.1852255614262074,2.299651152846217,-3.275723213645816
1789799510096660000,5.115659912109375,-0.7955974932927637,2.2467992681026456,-0.11629004543125629
1789799510106632000,5.1256318359375,-0.8748562503814696,0.9788447403833269,1.4762731607675552
1789799510116603000,5.135602783203125,-1.2296586993336678,-0.16607348251491785,2.4443530537694693
1789799510126574000,5.145573974609375,-1.8888614437341689,-1.1841010632514952,2.709363588115573
1789799510136545800,5.1555458984375,-1.9212895491302013,-2.143864086546004,2.330973927348852
1789799510146517000,5.16551708984375,-1.3609306253194808,-2.802223658120632,1.5414602109491824
1789799510156488000,5.175488037109375,-1.3372563197433949,-2.851291932672262,1.2500029837042093
1789799510166460200,5.185460205078125,-1.5455553713083265,-2.577624921400845,0.5934025307565927
1789799510176430800,5.195430908203125,-1.0999427706182003,-2.3453590110540388,-1.670116401478648
1789799510186403000,5.205403076171875,-0.07713818473815917,-1.897441932813823,-4.033158368739485
1789799510196374000,5.2153740234375,0.36821722632050513,-0.8608747790411114,-4.683074229356646
1789799510206345000,5.225344970703125,-0.23454759154319763,0.5018260708212852,-3.43692616751492
1789799510216317000,5.23531689453125,-1.1255167723357677,1.585560633960366,-1.8909417571395635
1789799510226288000,5.2452880859375,-1.0212824908792972,1.628088693088293,-2.4579630614489316
1789799510236259000,5.255259033203125,-0.4731166936874389,1.0973211899429558,-3.3963451508015394
1789799510246231000,5.26523095703125,-0.38872050064504143,0.8733855933070183,-2.6187936748743055
1789799510256202000,5.275201904296875,-1.4337182136327027,0.9064198479026555,-0.1018897641569376
1789799510266173000,5.2851728515625,-2.581556123369932,0.25810966891646386,1.5133043760448692
1789799510276145000,5.295144775390625,-1.2048895842581986,-0.9451286410033702,0.6994353860676288
1789799510286115800,5.30511572265625,-0.11585751749919727,-1.4068307912290094,0.4541185632288456
1789799510296087000,5.315087158203125,-0.4828998730877414,-1.3485399303019046,0.6531207941383123
1789799510306059000,5.32505908203125,-0.8020973036408424,-1.0706021098434924,0.7635188589215278
1789799510316030000,5.335030029296875,-0.6113321917334571,-0.7477174786776304,0.8681979615360498
1789799510326001000,5.3450009765625,-0.03725800977051258,-0.1949596775203943,0.983760861736536
1789799510335973000,5.35497314453125,0.06352287982907145,0.2792997564613819,1.0063748446047305
1789799510345943800,5.36494384765625,-0.20646482187509535,0.30688159087002276,1.3988544055223464
1789799510355915000,5.3749150390625,0.016797990065813062,-0.0039998832911252976,2.3351976825237273
1789799510365887000,5.384886962890625,0.8401175299555063,-0.7279869422912597,3.1812031014740465
1789799510375858200,5.394858154296875,0.6526257040977478,-1.5065525636970996,3.532767299157381
1789799510385830000,5.404829833984375,-0.09923895738720893,-1.9024153373122215,3.7628818766891956
1789799510395801000,5.414801025390625,-0.6377063673853873,-2.58454419927001,4.49941978970468
1789799510405772000,5.42477197265625,-0.7214554946959019,-3.2275024958342313,5.961307866767048
1789799510415744000,5.434743896484375,-0.4300105424106121,-3.579776303091645,6.4741819858253
1789799510425715000,5.44471484375,0.1396592123146169,-2.930694555211067,6.077898356449603
1789799510435686000,5.454685791015625,0.5963830078721046,-1.6926257549285888,5.610034760984778
1789799510445657900,5.464657958984375,0.4086129495948553,-0.7947253135681152,4.596818672183156
1789799510455628800,5.47462890625,0.9089169254153966,-0.16509119347929954,3.4858214235872027
1789799510465600000,5.48460009765625,1.009016883546114,-0.09082534930706024,2.3548317727982995
1789799510475572000,5.494572021484375,0.7513385917842388,-0.12588789485991,1.315244978943467
1789799510485543000,5.50454296875,0.8317606204986572,0.14068682006299496,0.6080997491508722
1789799510495513900,5.514513916015625,1.0537708020299672,0.5731377413630485,-0.172294841247797
1789799510505486000,5.524486083984375,0.3222030786424875,1.2109873166114091,0.07726970216333866
1789799510515457500,5.53445751953125,-0.321357275468111,1.6804150926530361,0.3816284965574741
1789799510525428500,5.544428466796875,-0.28435177915394305,2.013120860609412,0.2299947505444288
1789799510535400700,5.554400634765625,0.2840484122931957,2.357230650633573,-0.4760422257453203
1789799510545371600,5.56437158203125,0.45844519425630564,2.512989367622137,-1.0326561178088187
1789799510555342600,5.574342529296875,-0.40464053883254525,2.507270989975333,-0.6490875930994748
1789799510565314600,5.584314453125,0.15369011228727175,1.908192167147994,-1.0026847579151392
1789799510575285800,5.59428564453125,-0.060115153744816775,1.0096411529242992,-0.6550017855793238
1789799510585257500,5.604257568359375,-0.7794657851159572,0.2818102779775858,0.9644546882420778
1789799510595228700,5.614228759765625,-0.6918442002862691,-0.6936351753562688,2.7162521785855294
1789799510605199600,5.62419970703125,0.6036731648802757,-1.5568477496951818,4.053813034233451
1789799510615171600,5.634171630859375,1.7562234900921583,-1.8802777397841215,5.137784913259744
1789799510625142500,5.644142578125,1.3401649006664753,-1.7681459830760955,6.003163725721835
1789799510635113700,5.65411376953125,0.3319102336645126,-1.3727590102791785,6.1245946411728855
1789799510645085700,5.664085693359375,0.12878420082330702,-1.0364765528798103,4.458130332460999
1789799510655056600,5.674056640625,0.20758184320628642,-0.7598965767711401,1.9716513706237075
1789799510665027600,5.684027587890625,-0.20895137799382207,-0.688845602992177,0.2749889075249433
1789799510674999800,5.693999755859375,-1.1935434298574923,-0.5733107598423958,-0.20552666424214838
1789799510684970500,5.703970458984375,-1.90616679880023,-0.41130701098442074,0.14818682042956352
1789799510694941400,5.71394140625,-0.7098281852662562,-0.8036603151738643,0.1799240209519863
1789799510704913700,5.72391357421875,0.08875672633945941,-1.1804209134340287,0.40790976976156235
1789799510714884600,5.733884521484375,-0.10918167473077774,-1.3199369361519813,0.9564788870573043
1789799510724855600,5.74385546875,-0.6545616405963898,-1.1659715323209763,1.71039697394073
1789799510734827500,5.75382763671875,-0.7952467070937156,-0.4600158045738935,2.5722411825358864
1789799510744798700,5.763798828125,0.03167874833345413,-0.1619154860526323,2.2444085735738275
1789799510754769700,5.773769775390625,0.7728641218286008,-0.04050619791150093,0.7408511000394821
1789799510764741600,5.78374169921875,0.5802957964241504,0.621602789324522,-0.15194062000513076
1789799510774712600,5.793712646484375,0.5167454075336456,1.0476806684613227,-0.21668343355059622
1789799510784683800,5.803683837890625,0.675736530572176,0.6978367186993361,-0.5796241807729006
1789799510794655500,5.813655517578125,0.09241871944572776,0.1953039609134197,-0.14441139354407787
1789799510804626700,5.823626708984375,-0.19852003688309341,-0.6596592559963464,0.21579788288772106
1789799510814597600,5.83359765625,0.7538333312094211,-1.6086510021686553,-0.3669838851332664
1789799510824569600,5.843569580078125,0.6697732382535934,-1.7010171511769294,-0.8397475275993347
1789799510834540500,5.85354052734375,-0.13095281356666236,-1.0754320142179727,-0.2946048776209354
1789799510844511500,5.863511474609375,-0.11654084185454994,-0.546221092864871,1.1825620171159505
1789799510854483700,5.873483642578125,0.13914550890512764,-0.8451450027287006,1.8486808245152233
1789799510864454400,5.883454345703125,-0.13460362769179046,-1.5160948835462331,1.4353425999641418
1789799510874426600,5.893426513671875,-0.7108662230771035,-1.7520900435492395,0.8778875809013843
1789799510884397600,5.9033974609375,-0.7356301505208015,-1.5071160427987575,0.9877578224182129
1789799510894368800,5.91336865234375,-0.11264204431772232,-1.2697867115825414,1.146878124794364
1789799510904340500,5.923340576171875,0.5434335079729556,-1.3561600499168038,1.0859598379731177
1789799510914311700,5.933311767578125,0.728673244054988,-1.6534309318765996,1.4730571213304995
1789799510924282600,5.94328271484375,0.5793932215612382,-2.2880030928894874,1.624976114025712
1789799510934254600,5.953254638671875,0.13091763265542686,-3.0132354757755992,1.7701690133363008
1789799510944225500,5.9632255859375,-0.7437526666998863,-3.4185122666850685,1.686202443882823
1789799510954196700,5.97319677734375,-0.7169768879771232,-3.108257984511554,0.5416659137785435
1789799510964168400,5.98316845703125,0.4955027130186557,-2.4288395505562423,-1.9255957218915223
1789799510974139600,5.9931396484375,1.183932574816793,-1.8791484434932468,-4.30980556486547
1789799510984110600,6.003110595703125,1.8710346951425074,-2.100902896697819,-5.546308431005477
1789799510994082800,6.013082763671875,2.6156699898958204,-1.6384361918404697,-5.832781440097094
1789799511004053500,6.023053466796875,2.6420260819017884,0.471039010630548,-4.832834582713246
1789799511014024400,6.0330244140625,2.4875088894069193,2.4450375289022923,-3.2454099084466694
1789799511023996700,6.04299658203125,2.6845968111276624,2.126418153965473,-4.807863807585835
1789799511033967600,6.052967529296875,1.8752866534985602,1.7266539889976382,-7.21277916945815
1789799511043938600,6.0629384765625,1.3783224896252155,3.147051825547218,-6.812889624544978
1789799511053910800,6.072910888671875,1.4387493396677076,3.127789783455431,-6.328903746318817
1789799511063881700,6.0828818359375,0.7012834981523454,0.6704585901692509,-7.370441089719534
1789799511073852400,6.092852294921875,-0.009966025153920054,-1.1324427722066641,-7.533585825306177
1789799511083824600,6.10282470703125,0.6614953853823244,-0.5614572404414415,-5.5368187181264155
1789799511093795600,6.112795654296875,1.0316298435010016,0.6215861304506659,-3.822141290387511
1789799511103766800,6.122766845703125,-0.0978547364871949,0.7327659932613373,-2.8209154991090295
1789799511113738500,6.132738525390625,-0.32743155388049777,0.06575052928328513,-3.2494916248023507
1789799511123709700,6.142709716796875,-0.09205861742906273,-0.19254940150827168,-4.320467828655243
1789799511133681400,6.152681396484375,-0.8302350914318114,0.09425707732141017,-3.4076574029326436
1789799511143652600,6.162652587890625,-1.0591010571420192,0.5844412256658077,-1.1853823352336883
1789799511153623600,6.17262353515625,-1.1621055045425892,0.6104147480949759,1.1163953082472085
1789799511163595800,6.182595703125,-1.0699369239330292,-0.06317337227165698,2.4641233376443386
1789799511173566500,6.19256640625,-1.8132663967847824,-1.0668486025288701,1.8408610906749963
1789799511183537700,6.20253759765625,-2.3323300181329247,-1.5009972676575183,0.7419009013533592
1789799511193509600,6.212509521484375,-1.9073370116233825,-1.431843359671533,0.7236825230956078
1789799511203480800,6.222480712890625,-1.5098223791480063,-1.3890341455146669,0.6610334669589996
1789799511213451500,6.232451416015625,-1.0899696581363678,-1.3983911719247697,-0.6186462776064873
1789799511223423700,6.242423828125,-0.7244669514715671,-1.1257242776066063,-1.7617998289197683
1789799511233394700,6.252394775390625,-0.5603448952853679,-0.4931926825106144,-2.04102535110116
1789799511243365600,6.26236572265625,-0.9000187486886978,0.1837079234048724,-2.029277630162239
1789799511253337600,6.272337646484375,-1.1153390771925449,0.6681944446295499,-2.858312040567398
1789799511263308500,6.28230859375,0.10764904006971046,0.8157187094971537,-5.308460628873109
1789799511273279700,6.29227978515625,1.2963549850344658,0.9580828151226043,-7.716102200838923
1789799511283251500,6.30225146484375,1.0339864896297455,1.8039637309104204,-7.501255335065722
1789799511293222700,6.31222265625,0.15638766254186628,3.2323055122017856,-5.317210337039828
1789799511303193600,6.322193603515625,-0.7505950799405574,3.823614870071411,-3.1991631210565563
1789799511313165600,6.33216552734375,-0.7061521271020174,2.7425591707527635,-2.607067581245303
1789799511323136500,6.342136474609375,-0.21438100182712078,0.7328355513662099,-2.2867688749194146
1789799511333107700,6.352107666015625,-0.8822785093367099,-0.6373603304266929,0.14568565126359462
1789799511343079700,6.36207958984375,-2.128952640879154,-1.3904244308292866,3.698936935523152
1789799511353050600,6.372050537109375,-2.174432535549998,-2.9650130043983456,5.705636238652468
1789799511363021600,6.382021484375,-0.8378150982320308,-5.008050864365696,6.504342146289348
1789799511372993800,6.391993896484375,-0.10407470698058605,-5.7174628700464964,7.099850124892592
1789799511382964700,6.40196484375,-0.18328735990524292,-4.067090448957681,7.043863449254632
1789799511392936700,6.411936767578125,-0.6304904446572065,-1.5440736083179711,6.257956232914328
1789799511402907600,6.42190771484375,-0.8312801435053349,-0.11606851163506507,4.950978731578588
1789799511412878600,6.431878662109375,-0.33563831427693364,0.4355126469582319,3.659704410809278
1789799511422850600,6.4418505859375,-0.20857319233119487,0.46050563391745086,2.6762375635832547
1789799511432821500,6.451821533203125,0.2559288177460432,0.38398879594802854,1.9972095902502536
1789799511442792700,6.461792724609375,0.9453618652373552,-0.20409049395918846,1.5006903936654328
1789799511452764400,6.471764404296875,1.0069038369148968,-0.6104267307937145,1.479870892998576
1789799511462735600,6.481735595703125,0.5928700313150882,-1.1663017871886492,1.6776052959293126
1789799511472706600,6.49170654296875,0.8334580720663071,-1.5726666655957697,1.9248434422194958
1789799511482678500,6.501678466796875,1.527259251639247,-1.9048411031544208,2.5710160246551035
1789799511492649500,6.5116494140625,1.8501672636806963,-1.6697072361558676,2.666871184822917
1789799511502620700,6.52162060546875,1.3806383653521537,-0.6164969906181097,2.4897388404160736
1789799511512592000,6.531591796875,0.20389526364803312,0.916430369785428,2.6461668349683283
1789799511522563000,6.54156298828125,-0.10592588780522345,2.2177561289697882,2.20042680850625
1789799511532533800,6.55153369140625,0.08423544952273368,2.9977205112576484,1.585076065313816
1789799511542506000,6.561506103515625,-0.16974983294010162,3.2408389472693204,1.4589789116173981
1789799511552477000,6.571476806640625,-0.43635961917638777,3.147889445415139,2.0059061069250106
1789799511562448100,6.5814482421875,-0.2609212192058563,2.1784856103330847,3.0617262427002188
1789799511572419800,6.591419921875,0.9561714285433291,0.44850773760974405,4.033185841268301
1789799511582391000,6.60139111328125,3.0599405283272265,-0.6402250722080469,3.3217554815024135
1789799511592362000,6.611362060546875,3.332700653886795,-1.007726259213686,2.1926807244241235
1789799511602334000,6.621333984375,1.9365163443565367,-0.9028355596750974,1.7030869431883096
1789799511612305000,6.631304931640625,0.38739305143356323,-0.8081289850205182,1.7515525756716728
1789799511622275800,6.64127587890625,-0.11939794831871986,-0.836859989464283,1.9633920763224362
1789799511632247800,6.651247802734375,-0.0808323630809784,-0.8303074990808963,2.088486190456152
1789799511642218800,6.66121875,-0.029435353320837018,-0.3722130179584026,2.2568816861778496
1789799511652190000,6.67118994140625,-0.1663128442287445,0.15199790315032005,1.6963135035306214
1789799511662162000,6.681161865234375,-0.6344453197628259,0.7360276254057884,0.7401280464619397
1789799511672132900,6.6911328125,-1.2288573198229074,0.9771960963934659,-0.13834814798235892
1789799511682103800,6.701103759765625,-2.19197871363461,0.8636761001974343,0.05371054739952087
1789799511692076000,6.711075927734375,-2.0850544624418017,0.37284780873060225,1.2065800215631723
1789799511702047000,6.721046875,-1.004870869782567,-0.42949850123524663,2.4647972913831473
1789799511712018000,6.731017822265625,0.7409861245959997,-1.1349456949383019,3.2918910891145465
1789799511721990000,6.740989990234375,1.511182561585307,-1.4565017078489064,3.6724288678258654
1789799511731961000,6.750961181640625,0.9970271705448627,-1.6413474031120538,3.6611581167489287
1789799511741932800,6.760932861328125,-0.0019131584112532436,-2.1169471457868814,2.9510394241034983
1789799511751904000,6.770904052734375,-0.8084902195483445,-2.4515023410022256,2.285720827171206
1789799511761875000,6.780875,-0.6781997058153152,-2.5711627396494148,2.1642992640703915
1789799511771847000,6.790846923828125,-0.3247299667716026,-2.4658470926970244,2.4334943906247615
1789799511781817900,6.80081787109375,-0.09808567743254824,-2.33493114054203,2.4669658675938844
1789799511791788800,6.810788818359375,-0.5103215119659901,-2.119074220943451,2.0964321810245514
1789799511801761000,6.820760986328125,-0.7334113054275512,-1.965054456576705,1.8098855221748351
1789799511811731700,6.830731689453125,-0.4360188429147005,-1.2952934932827949,2.257138291287422
1789799511821703000,6.840702880859375,-0.09809797065854071,-0.8910334782004355,2.630772281959653
1789799511831675000,6.8506748046875,0.042051673787832256,-0.7638648958802223,2.8045769432485104
1789799511841646000,6.86064599609375,-0.14981646745800972,-1.0392752436876296,3.276836143323779
1789799511851616800,6.87061669921875,0.02037526403069496,-2.18865862930119,3.824204652658105
1789799511861589000,6.880589111328125,0.8822469451546668,-3.8429973236724733,3.640777007499337
1789799511871560000,6.890559814453125,0.9900210911750793,-4.967217334195971,1.9745605360686778
1789799511881531000,6.90053076171875,1.2239619489967821,-4.303590635873377,0.41996962538957594
1789799511891502800,6.9105029296875,1.680430290222168,-2.3540900145202874,-0.8919792346179485
1789799511901474000,6.92047412109375,1.5503846911609171,-1.3514356517434118,-2.130730171945691
1789799511911445000,6.930445068359375,1.4809236169219016,-1.5462193881750106,-2.7999270716160534
1789799511921417000,6.9404169921875,1.5511597671866415,-1.51671623031497,-3.1183003628373145
1789799511931388000,6.950387939453125,1.6336907508790492,-1.0351663470640777,-3.0692303347200154
1789799511941358800,6.96035888671875,1.98708917825222,-0.18112316760867833,-2.25126735342741
1789799511951330800,6.970330810546875,2.7033295686483383,0.495304560098052,-0.3656424073964357
1789799511961301800,6.9803017578125,3.94001188300848,-0.07631722374409437,1.6898182962924242
1789799511971273000,6.99027294921875,4.103259494447708,-2.025196498328447,2.5566017148554323
1789799511981245000,7.000244873046875,0.7820246758185326,-4.310450877031684,1.4176812710672617
1789799511991215900,7.0102158203125,-2.220356666857004,-5.448325026637315,-1.769377570697665
1789799512001186800,7.020186767578125,-1.500447817081213,-5.378387567058205,-4.142720567220449
1789799512011159000,7.030158935546875,-0.6121335347115993,-4.2675908094704145,-6.108511521378159
1789799512021129700,7.040129638671875,-0.7826289253219961,-1.9050597143411636,-6.752737645921111
1789799512031101000,7.050100830078125,-0.16550839597806333,0.44055911669284104,-6.477392764565348
1789799512041073000,7.060072998046875,0.7791691402569413,2.365519463290274,-5.881368653133511
1789799512051044000,7.070044189453125,1.4879728047810494,2.645796832612157,-6.495338171100616
1789799512061014800,7.080014892578125,1.9638617396607994,1.4078639336690306,-9.55160907100439
1789799512070987000,7.089987060546875,1.5379693000935017,2.0499407712236044,-9.586097616061569
1789799512080958000,7.0999580078125,1.0136077184677124,3.6259660995975134,-5.575296040558815
1789799512090929000,7.109928955078125,1.0284101508021355,2.7404502157747745,-5.884618594840169
1789799512100900900,7.11990087890625,-0.0490296961069107,0.7823249739393592,-7.921845138180255
1789799512110871800,7.129871826171875,0.6158792240459472,-0.269290111361444,-8.82539381456077
1789799512120843000,7.139843017578125,0.5343314061719924,-0.17489508687406777,-7.557500953900814
1789799512130814700,7.149814697265625,-1.5944693320810794,1.1191630193948745,-3.6337229973345995
1789799512140786000,7.159785888671875,-2.629595639395714,1.2459668600559235,-0.7472662277787924
1789799512150756900,7.1697568359375,-1.1577624338369816,-1.1744181658878923,-1.3204589141994714
1789799512160728800,7.179728759765625,0.4912251818299293,-1.7046625219419598,-2.928800119766593
1789799512170699800,7.18969970703125,0.29133040426122025,-0.833810538765788,-3.0741724672973154
1789799512180671000,7.1996708984375,-1.449766262114048,-0.5847881394073366,-1.0347907917499541
1789799512190643000,7.209642822265625,-2.4975591587781905,-0.430148781837523,1.4485457804083823
1789799512200614000,7.21961376953125,-1.8333558296114205,-0.7917334382757544,2.0901146684408185
1789799512210585900,7.2295859375,-0.2986410012692213,-1.5569234452798961,-0.9844505975663661
1789799512220557000,7.23955712890625,0.06419047689232975,-1.8114380123138427,-3.2344606444090602
1789799512230528000,7.249528076171875,-0.4334650667786598,-1.0094207881718873,-2.509668114244938
1789799512240500000,7.2595,-1.4795657725721596,0.06936930430233477,-0.02290682833492756
1789799512250471000,7.269470947265625,-1.8292600847303866,0.15244740048348904,0.921568317195773
1789799512260442000,7.279442138671875,-1.0269424163371323,-0.8870949697077274,-0.7249030048012733
1789799512270413800,7.289413818359375,-0.9835364783961326,-1.7107734060376882,-1.537096755042672
1789799512280385000,7.299385009765625,-1.1767033542156218,-2.0349439853608606,-0.24392390717566012
1789799512290356000,7.30935595703125,-0.5251197795819491,-2.063147751060128,3.1049919684529304
1789799512300328000,7.319327880859375,-0.24935177744328973,-2.2843659054309127,5.386399608600139
1789799512310299000,7.329298828125,0.20241649633236228,-3.47372298951447,4.9093625265985725
1789799512320269800,7.339269775390625,0.49741943336017425,-4.735673600643873,4.445924346360564
1789799512330241800,7.34924169921875,0.5107604879051446,-5.025272632801532,4.4230414834231135
1789799512340212700,7.359212646484375,-0.47051323319077487,-3.3414515310972925,3.7561546142607924
1789799512350184000,7.369183837890625,-0.9699187988668679,-0.8064233501464128,2.3479542882442472
1789799512360156000,7.379156005859375,-0.7790045242797583,0.9843599966734647,2.4357588284254073
1789799512370126800,7.389126953125,-0.17126085855755954,1.22105687520504,3.6504812399119135
1789799512380097800,7.399097900390625,0.8296884903997183,0.5082470437794924,3.9890433326810597
1789799512390070000,7.409070068359375,1.4269009348332882,0.27979309293627735,3.2250615324229
1789799512400041000,7.419041015625,1.9415134219914674,0.37485154976844787,2.210056222116947
1789799512410012000,7.429011962890625,2.6552356920868156,0.05396598346531391,1.4605787480294703
1789799512419984000,7.43898388671875,2.9875404780268666,-0.4312076432406902,1.083449316456914
1789799512429955000,7.448955078125,2.4060943425238133,-0.44143093109130854,0.6123685125112533
1789799512439926000,7.458926025390625,0.38598844533264637,0.10441372967660427,-0.023159341791272162
1789799512449898000,7.46889794921875,-1.419261818256974,1.102872978851199,-0.07080489006340503
1789799512459869000,7.478868896484375,-2.3381267217129467,1.9155431144326924,1.5756600021928548
1789799512469840000,7.48883984375,-1.414748724746704,2.3115485113888976,3.001318243488669
1789799512479811800,7.498811767578125,0.10700433069169521,1.6172463965564965,2.39399590845108
1789799512489782800,7.50878271484375,0.10368599992394446,0.4283621906816959,2.0615467456042764
1789799512499754000,7.51875390625,-0.37617545531596985,-0.3571767768681049,2.4527117167919874
1789799512509725700,7.5287255859375,-1.3238280983716249,-0.6506365761071443,3.426702295142412
1789799512519698200,7.5386982421875,-2.7721961841255425,-1.1120201619029044,5.2018403290629385
1789799512529669000,7.548669189453125,-1.192947217530012,-1.2324936304986476,5.220782929942011
1789799512539641000,7.55864111328125,1.1379086363971234,-1.183702419322729,2.741396556714177
1789799512549612000,7.568612060546875,2.5744384003192184,-0.8600105634272098,0.19917466486692428
1789799512559583200,7.578583251953125,2.2234704149633644,0.26075930664241315,-0.9376730643004179
1789799512569555000,7.588554931640625,-0.024046682552434504,1.7983973289549349,-0.41739480646550653
1789799512579526100,7.598526123046875,-0.551905568242073,2.4227613996863364,-0.8828782287955284
1789799512589497000,7.6084970703125,0.10241349577009677,1.9614181459009645,-2.0228367834597827
1789799512599469300,7.61846923828125,0.8457803780227899,0.7823287733316421,-3.0438620847076177
1789799512609440000,7.62843994140625,0.06990067123267799,-0.4399783941954374,-2.6578379835397
1789799512619411200,7.6384111328125,-1.298448742443323,-1.7855799329578876,-0.9286655819803475
1789799512629383200,7.648383056640625,-1.9419436301022768,-3.018516046527028,1.853409022080898
1789799512639354000,7.65835400390625,-0.26962124301195145,-3.4191239688426256,4.4066912371248
1789799512649325000,7.668324951171875,1.1282961739212274,-2.6943805385172364,5.959903260666132
1789799512659297300,7.67829736328125,1.5144588067770004,-1.7970774785280226,5.511108522808551
1789799512669268200,7.688268310546875,1.0988141319144518,-1.3454904796034097,1.9913532654374837
1789799512679239200,7.6982392578125,-0.9941208546441048,-0.20802666436433792,0.7446236043155193
1789799512689211100,7.708211181640625,-3.62922685495913,0.1819756927847862,2.5067332298368212
1789799512699182300,7.718182373046875,-3.474771037262678,-0.7551461673736571,4.997125565725565
1789799512709153300,7.7281533203125,-1.3005384081989526,-1.4105425052285194,7.091847435700893
1789799512719125200,7.738125244140625,0.8990139555603265,-1.1680530147701502,6.352411463156342
1789799512729096200,7.74809619140625,2.0808926665872334,-1.3416431565254925,0.17213059059679509
1789799512739067100,7.758067138671875,0.15449848779439926,-0.09175532363355159,-1.6073802515804767
1789799512749039000,7.7680390625,-0.8038549609631299,1.0036638320803641,-1.2138438750863074
1789799512759010000,7.778010009765625,0.33594694183468815,0.12410685666203498,-1.061800379228592
1789799512768981200,7.787981201171875,1.1216022292405365,-1.7538655287891625,-0.2894458874225616
1789799512778953000,7.797952880859375,2.237789447695017,-3.5230215656906365,1.0104144753843545
1789799512788924200,7.807924072265625,2.688494987609982,-5.0341252168208355,1.7996978901594876
1789799512798895000,7.81789501953125,2.450037529146671,-5.514977473196387,0.8707727804601192
1789799512808867300,7.827867431640625,1.155695637500286,-4.550084393537044,-0.08611936357319354
1789799512818838000,7.837838134765625,0.5195289007723332,-3.1922096486568448,0.37403672625422474
1789799512828809200,7.847809326171875,1.1107669469714163,-2.154048211430013,1.1416489919692276
1789799512838781200,7.85778125,2.2557108888328075,-1.2071537297978996,1.9114356791138647
1789799512848752400,7.86775244140625,2.1232862856805323,-0.12126491123437881,3.011083850699663
1789799512858723000,7.87772314453125,-0.24719430714845655,0.17322393879145384,2.520506903645396
1789799512868695300,7.8876953125,-2.0725614760935307,-0.6441723485291003,-0.23986790978312492
1789799512878666200,7.897666259765625,-2.5194202774524688,-1.092990759523213,-2.3945938743442294
1789799512888637200,7.90763720703125,-0.9334403951667248,-0.8590019709065556,-3.1831764473736284
1789799512898609200,7.917609130859375,1.0681074434835462,-0.7767977349504828,-3.9571073947161435
1789799512908580000,7.927580078125,1.9655156443476676,-0.5174722605034708,-4.90194377477467
1789799512918551300,7.93755126953125,1.7799100706279276,-0.285176247279346,-5.523749977716803
1789799512928523000,7.94752294921875,0.8596050513662398,-0.3708841074422002,-5.956858486142754
1789799512938494200,7.957494140625,0.23457805974669754,-1.0519336497306824,-7.404243990600109
1789799512948465200,7.967465087890625,1.2491339457847177,-1.142560553856194,-8.94619169280529
1789799512958437000,7.97743701171875,2.687179228836298,-0.21733985163271427,-9.206080646353959
1789799512968408000,7.987407958984375,3.384952234649658,1.5881731545463202,-6.889205971506238
1789799512978379300,7.997379150390625,1.359208623832464,3.2255402558505533,-0.9650269351720809
1789799512988351200,8.007351318359374,-0.6501788954675197,2.3369842736795543,4.440731453892588
1789799512998322200,8.017322265625,-0.7232067222774028,-2.1161080646142363,3.1131437107264994
1789799513008293000,8.027293212890624,-1.0185516776759176,-4.442909674714506,1.0676491052567958
1789799513018265300,8.037265380859376,-1.7644576499521731,-4.446040373955666,-1.2998621163725852
1789799513028236000,8.047236083984375,-1.4125322177410125,-3.8709026909470556,-3.495064468228817
1789799513038207000,8.05720703125,-0.616136340612173,-2.263410795685649,-3.231266816803813
1789799513048179200,8.06717919921875,0.4629121836025268,-0.2049807207971811,-1.6598510280519723
1789799513058150100,8.077150146484374,0.34859482648372647,1.080834165522456,-0.602997457575798
1789799513068121000,8.08712109375,-0.2674327930569649,1.2647393650650978,-1.7463631903350352
1789799513078093000,8.097093017578125,-0.3285831350684166,0.7989616359636187,-4.130660127070546
1789799513088064300,8.107064208984376,0.5458896689534187,0.5244239793375134,-6.703508627849817
1789799513098035200,8.11703515625,1.1423463265836238,0.9486921787038445,-8.234699958240986
1789799513108007200,8.127007080078124,1.3516975175499915,1.7122154215395449,-9.367694519111513
1789799513117978000,8.13697802734375,0.666034636247158,2.5198332421675325,-9.592032851329446
1789799513127949300,8.14694921875,0.23332243366241454,3.598609013855457,-8.000673175701499
1789799513137920300,8.156920166015626,0.14689495398811994,4.283109573380649,-6.818953454628586
1789799513147892200,8.166892333984375,0.6698609165370464,3.979405735763907,-7.165770165523886
1789799513157863200,8.17686328125,1.4921733252108096,3.1258047471180554,-7.455053555861115
1789799513167834000,8.186834228515625,0.966220528870821,2.2638085628315805,-4.899162035101652
1789799513177806000,8.19680615234375,0.431827236443758,1.0782435645073651,-0.8950281007945537
1789799513187777000,8.206777099609376,-0.12655834146738051,-0.5397241320610046,1.8859803353399036
1789799513197748200,8.216748291015625,-0.4973737675875425,-2.8755303018718954,3.7101352058857677
1789799513207720000,8.226719970703124,0.11539338885247706,-6.405187944576144,3.8458115043103693
1789799513217691100,8.236691162109375,0.364976052442193,-8.775272816085815,5.567648740676045
1789799513227662000,8.246662109375,0.22334638030482454,-8.717035146650671,6.590026625576615
1789799513237634300,8.25663427734375,0.5499737233966588,-7.008363681328296,5.265687070551515
1789799513247605000,8.26660498046875,1.3191191900283097,-5.429342093747854,2.9630472572833297
1789799513257576200,8.276576171875,1.0844704761981963,-4.327928666055202,2.4176848270744085
1789799513267548200,8.286548095703125,-0.182089638020657,-3.537192129862308,4.478651142442226
1789799513277519000,8.29651904296875,-0.4701555423269048,-3.5248721619933843,6.579192512351274
1789799513287490000,8.306489990234375,0.6159615685671568,-3.526509992328286,5.890699376058578
1789799513297462300,8.316462158203125,0.7092571073800324,-2.4725024589329956,4.283202804622054
1789799513307433200,8.32643310546875,0.5963502746462822,-0.8085960180103778,3.1272634214937685
1789799513317404200,8.336404052734375,0.8721779710829257,1.0099556257009505,2.5777374418646097
1789799513327376100,8.346376220703124,0.646655397516489,2.4357944842606782,2.037155231669545
1789799513337347300,8.356347412109375,-0.44067923594117164,3.453688501745462,1.2770447198867798
1789799513347318300,8.366318359375,-0.35972295421957967,4.220238691186904,-0.13559212727248668
1789799513357290200,8.376290283203126,0.6735819828867912,4.612182830053568,-1.6116384935468435
1789799513367261200,8.38626123046875,0.8788286611437797,4.415190185400843,-2.5872137107402087
1789799513377232100,8.396232177734374,0.5738508580684661,3.6000633043169974,-2.965364886575937
1789799513387204000,8.4062041015625,0.39900516329407687,2.065271903607249,-2.691080912449956
1789799513397175000,8.416175048828125,1.606482425957918,0.5010317055732012,-0.8358709784269333
1789799513407146200,8.426146240234376,1.4765876335442065,-0.7870406042844057,1.349048464345932
1789799513417118000,8.436117919921875,0.22076631895005702,-1.588800638794899,1.990690417614579
1789799513427089200,8.446089111328124,-0.9307885654836893,-1.4899872133433818,2.8419530264407395
1789799513437060000,8.45606005859375,-0.5939654253363609,-0.5217968457043171,3.13531754861176
1789799513447032300,8.4660322265625,-0.008939093258976936,0.03000175503194332,2.6545640764355656
1789799513457003000,8.4760029296875,-0.8738011883705854,0.30524551410079,3.27974355520308
1789799513466974200,8.48597412109375,-2.042788853642344,0.19623568880558012,4.866735098749399
1789799513476946200,8.4959462890625,-1.3728238922089337,-1.1117308235675096,6.317050811439752
1789799513486917400,8.50591748046875,1.6137807662725447,-1.6941706462830304,6.283907251250744
1789799513496888000,8.51588818359375,4.416289671075344,-1.644526617670059,3.7206133452802894
1789799513506860300,8.5258603515625,3.86501947812736,-1.6017366927355527,1.5075468354314565
1789799513516831000,8.5358310546875,-0.010122202096320688,-1.0402326905429362,1.3598054206818342
1789799513526802200,8.54580224609375,-2.2207214085161686,-0.814050776284933,0.9679460374891757
1789799513536774000,8.55577392578125,-1.897209000840783,-1.2080062549740076,-0.15634674600958823
1789799513546745000,8.5657451171875,-1.1199643989056347,-1.3254127372145652,-0.6595043576955795
1789799513556716000,8.575716064453125,0.20205805654982104,-1.2342238152921199,-1.3342150523513554
1789799513566688000,8.58568798828125,0.473567944586277,-1.4491028297692536,-1.649329049515724
1789799513576659000,8.595658935546876,-1.1079735168606042,-1.9552970326721668,-0.30598785690069197
1789799513586630100,8.605630126953125,-2.459784431657195,-2.927845010998845,1.8719968181729316
1789799513596601000,8.61560107421875,-1.6505553764402865,-3.7907542184770104,3.6210797888606785
1789799513606573000,8.625572998046875,0.9997311688065529,-3.1633383589595554,3.9733495044648643
1789799513616544000,8.6355439453125,2.091583571949601,-1.373188633868098,3.8702357514709234
1789799513626515000,8.645514892578126,0.3670341540157795,-0.04554302303493023,3.1830612965613603
1789799513636487000,8.65548681640625,-1.3461498202949762,0.0793722274005413,1.9139386018455027
1789799513646457900,8.665457763671874,-2.397361000970006,-0.8135463338941336,1.2030775664001703
1789799513656429000,8.675428955078125,-1.3052788807243108,-2.0229016653895378,1.2115350136220455
1789799513666401000,8.685401123046875,-0.569680878907442,-2.5704852787792682,1.3619944551587104
1789799513676372000,8.6953720703125,-0.4575491221994161,-2.407950199523568,0.581290652680397
1789799513686343000,8.705343017578125,-0.46649873685240745,-1.491885740441084,-1.5684470020741224
1789799513696315100,8.715315185546874,-0.6711877812266349,-0.12135843473672867,-3.318884309980273
1789799513706286000,8.7252861328125,-1.234527766674757,0.8057569951921701,-2.5256483581870794
1789799513716257000,8.735257080078124,-0.24862755482196808,0.5220768316894769,-0.7901280489057302
1789799513726229000,8.74522900390625,1.2397697589814662,-0.1383756205111742,1.3087035944759844
1789799513736200200,8.7552001953125,2.1790146026432513,-0.5116337636083365,2.610228675624728
1789799513746171000,8.7651708984375,2.513061848336458,-1.1203630428344011,1.4224486315995455
1789799513756143000,8.77514306640625,1.1139525912702084,-1.2927134136617182,0.22205051354169844
1789799513766114000,8.785114013671874,-0.7897895376663655,-1.2172642049238085,1.6766326515048742
1789799513776085000,8.7950849609375,0.2918985412716865,-1.934373194848001,4.254661769792437
1789799513786057000,8.805056884765625,2.5214064828336236,-3.2317227438777683,5.908316281291842
1789799513796028000,8.81502783203125,3.3369840302944183,-4.496866890351474,4.412074099206924
1789799513805999000,8.8249990234375,1.2651461923003195,-4.18913920404613,1.2898609468400477
1789799513815970800,8.834970703125,-1.6030466062903403,-1.6757392097964883,0.392328169748187
1789799513825942000,8.84494189453125,-1.7766507765710353,-1.846954731374979,-1.333099200063944
1789799513835913000,8.854912841796875,0.17642865311689673,-2.9865955983921886,-2.6145342638641593
1789799513845884200,8.86488427734375,1.4996914457559585,-2.800275154401362,-2.52165548915863
1789799513855855900,8.87485595703125,1.7090191097162664,-1.704277614277601,-2.80605052293241
1789799513865827000,8.8848271484375,1.5618518415927887,-0.056585226052999496,-1.9864654933959245
1789799513875798000,8.894798095703125,2.029802384688705,0.8575736916691065,-0.17710370283424853
1789799513885770000,8.90477001953125,1.9656746343016622,-0.11715104617476463,-0.48246202965974805
1789799513895741000,8.914740966796876,2.420180297151953,-1.6860805710688231,-2.34703600435555
1789799513905711900,8.9247119140625,1.7231274223066866,-0.9644050038814544,-3.9016684160888193
1789799513915684000,8.93468408203125,0.7712976762294769,0.2511655488669872,-6.611037264901399
1789799513925654800,8.94465478515625,1.7306022882319987,0.7154761280253529,-8.319728019446135
1789799513935626000,8.9546259765625,1.5108429543673991,0.7771949175745249,-9.086167734250425
1789799513945598000,8.964597900390626,0.5821485846839844,0.4333002316057682,-9.83984616715908
1789799513955569200,8.974569091796875,0.26900515694022176,1.570017904652655,-8.083316387596726
1789799513965539800,8.984539794921876,1.2585633067786692,2.932884758731723,-7.213412206664681
1789799513975512000,8.994511962890625,2.4833283888518807,2.383716214238107,-8.815349390408397
1789799513985483000,9.00448291015625,2.534045015132427,1.3239131463065743,-9.579424129647016
1789799513995454000,9.014453857421875,1.3691186079502105,0.5184627328455448,-7.7784543198555705
1789799514005426000,9.024426025390625,0.6682710169970989,0.7735197361931204,-4.232126697379351
1789799514015397000,9.034397216796876,0.36461993248090147,1.2513438769191503,-1.1250661059588194
1789799514025368000,9.0443681640625,1.081384200620651,0.30812633023411035,-3.5390140845924614
1789799514035340000,9.054340087890624,0.3896985518969595,0.20947890899926422,-6.240957167318463
1789799514045311000,9.06431103515625,-0.993118984125182,0.5943576395243406,-5.850398345330357
1789799514055282000,9.074281982421875,-1.1449041943728924,0.13758826952576636,-3.8818864417761563
1789799514065254000,9.08425390625,-0.856252087676525,0.003322130160033703,-0.7465045957565307
1789799514075224800,9.094224853515625,-0.796747832371667,0.28928192903250455,1.1252297720879316
1789799514085196000,9.104196044921874,-0.6644996817648411,-0.13302256904542445,0.5381406622618436
1789799514095167000,9.1141669921875,-0.06562427255511283,-1.131747191157937,-0.6320663156718015
1789799514105139000,9.124138916015625,-0.43685646278262136,-1.9515549235343932,-0.04855623337626457
1789799514115110000,9.13410986328125,-1.1091688641250133,-2.1485417229682207,2.375835982382297
1789799514125081000,9.1440810546875,-1.5770201846301555,-2.1538222937196494,4.027243591737747
1789799514135052800,9.154052734375,-1.589350673893094,-2.777396967639029,2.8760324061751366
1789799514145024000,9.16402392578125,-0.6389110670000314,-3.58880278237313,0.1470282980442047
1789799514154995000,9.173994873046874,0.5280827941060066,-3.6844513140529394,-1.8413608568906783
1789799514164967200,9.18396728515625,0.22359421758605166,-2.8331664933949705,-1.2954215035766363
1789799514174937900,9.193937744140625,-0.7604150476872921,-2.020903185048699,1.0749661502718926
1789799514184909000,9.203908935546876,-0.41907063072323797,-2.460990884837508,1.370316877824068
1789799514194881000,9.213881103515625,0.4761631852438673,-3.0688416276633737,-0.29260347467064857
1789799514204852200,9.223852294921874,0.4910877826532349,-2.3918238251090047,-1.5562649813711642
1789799514214823000,9.233822998046875,0.4530108942478895,-0.6115741472631693,-1.9517185896635054
1789799514224793900,9.2437939453125,0.5785773020684719,1.340944652867317,-0.9821440741896629
1789799514234766000,9.25376611328125,0.22721301087141035,2.2940257141798734,0.6727034464865923
1789799514244737000,9.263737060546875,-0.582182048562169,1.6823083590537309,1.7239005986362694
1789799514254708000,9.2737080078125,-0.709174105271697,0.5066676656335592,2.484375852078199
1789799514264680000,9.283679931640625,0.05956683567967266,-0.041269583499431606,2.2352572988688943
1789799514274651100,9.293651123046875,-0.048094461083412164,0.20081775589883327,2.048579712003469
1789799514284622000,9.3036220703125,-0.9741121589034795,-0.05993512100279331,2.6582529940813777
1789799514294594000,9.313593994140625,-1.4441554364949465,-1.2481623242735862,4.543073053470254
1789799514304565000,9.32356494140625,0.3764379421770572,-2.0913994475543496,5.162256506693363
1789799514314536200,9.3335361328125,0.4482628229379654,-1.194030921113491,4.401194393274188
1789799514324508000,9.3435078125,-1.5242553936481475,-0.08196692006886006,3.3347710304200646
1789799514334479000,9.35347900390625,-1.770582270312309,-0.1297404786348343,2.1821663446724413
1789799514344450000,9.363449951171875,-0.46049390694703907,-1.0860206282496452,1.3926964674144982
1789799514354422000,9.373422119140624,0.8819592873197049,-2.2851667004197833,1.6292103905946016
1789799514364393000,9.38339306640625,0.8327999004185199,-3.0731507230341433,2.038594909083843
1789799514374364000,9.393364013671874,0.6301181042134761,-3.010960516580939,2.357147648525238
1789799514384336000,9.4033359375,0.015756956580281256,-2.195550142380595,3.240449655690789
1789799514394306800,9.413306884765625,0.19404252614285797,-0.9659493107140064,3.087594258928299
1789799514404278000,9.423278076171876,0.20914602378308772,0.030882629519701003,2.5174282268524166
1789799514414249000,9.4332490234375,0.04197623393144458,0.2788321389496326,1.893570352077484
1789799514424221000,9.443220947265624,-0.3619797932356596,-0.3790899179905653,1.5214146172642706
1789799514434192000,9.45319189453125,-0.7560141823798417,-1.0464163476139305,1.4428531217247247
1789799514444163000,9.4631630859375,-0.9750520701020955,-1.2757061647593975,1.6317413703769446
1789799514454135000,9.473135009765626,-0.9790103792738168,-1.0944278065890074,1.855956952998042
1789799514464106000,9.48310595703125,-1.0191501550257205,-0.5653098242163658,2.1057897919565436
1789799514474077000,9.493076904296874,-0.5895704417804256,0.38494799636900423,2.0990034928172827
1789799514484049200,9.503049072265625,-0.019824096421338616,1.0983499484688044,1.5413403839617967
1789799514494020000,9.51302001953125,0.8105383842498064,1.537318873360753,0.39904257269501686
1789799514503990800,9.52299072265625,1.4625444951444864,1.6789210547029971,-1.074545294511318
1789799514513963000,9.532962890625,0.4415133121451363,2.1492022327035665,-0.4801543372392654
1789799514523933000,9.542932861328126,0.0718909317344427,2.0905852085620165,-0.1801373714417219
1789799514533904000,9.55290380859375,0.8620815244823694,0.9971458284884691,-0.8937544275969266
1789799514543875000,9.562875,0.1824609190184623,-0.43419045844376086,-1.0389397281229495
1789799514553846800,9.5728466796875,-1.390308110973239,-1.2173574361652135,0.7432482243090868
1789799514563818000,9.58281787109375,-1.9971897165060042,-1.5046955376535653,2.5276409933090207
1789799514573789000,9.592788818359375,-1.4126900386512278,-1.602799353531003,4.125366112315654
1789799514583761000,9.602760986328125,-0.49909343098700043,-1.2621142772585152,5.547772073817253
1789799514593731800,9.61273193359375,0.04690035592801869,-0.6684715080052613,5.695415288889408
1789799514603703000,9.622703125,0.7346639358371496,-0.43034021275639533,3.093241324904561
1789799514613674800,9.6326748046875,1.044735262659192,-0.3330927214473486,0.2028425397247076
1789799514623646000,9.64264599609375,-0.45410161209404465,-0.4555944810003042,-0.029292729979753494
1789799514633617000,9.652616943359375,-1.3240934713095425,-1.4010796803563832,0.49122050565481185
1789799514643589000,9.662589111328124,-0.8488596393376588,-2.846848397266865,1.6664491111427544
1789799514653559800,9.672559814453125,0.15759239868912844,-3.1063562425434585,2.3263129498004913
1789799514663530800,9.68253076171875,0.17815872831251472,-1.9113059152543543,2.3696324515670537
1789799514673502000,9.692501953125,0.2585620523264631,-0.7933060944199561,0.19251228436827658
1789799514683474000,9.702473876953125,0.535586886125803,-0.1672445721209049,-2.1823662511587143
1789799514693444900,9.71244482421875,-0.04140106439199298,-0.025301029995083806,-2.7320553123950955
1789799514703415800,9.722415771484375,-0.514743420061469,-0.1982628107190132,-2.782143577644229
1789799514713388000,9.732387939453124,-0.5036386732012034,-0.2753331909179687,-1.350688048246503
1789799514723359000,9.74235888671875,0.2845078282321803,-0.8487158469527959,1.1720768634587526
1789799514733330000,9.752329833984374,1.0685445927917956,-2.085600405886769,4.023100500583649
1789799514743302000,9.762302001953126,1.3665426199823618,-3.878636500069499,5.394333908730745
1789799514753273000,9.772273193359375,0.6494225241422653,-5.397804215189814,5.359545503944158
1789799514763244000,9.782244140625,-0.037799879828561096,-5.395342793512344,4.609145069792866
1789799514773216000,9.792216064453125,-0.22016952210068702,-3.7515517966404555,3.5781776357233523
1789799514783187000,9.80218701171875,0.24976152728796003,-3.075611267928779,1.5846704071223734
1789799514793158000,9.812157958984375,0.2628033614243381,-3.771692959654331,-0.27712358146607874
1789799514803128800,9.82212890625,-0.027556681701075284,-3.5105481608256697,-1.4740455478459595
1789799514813100800,9.832100830078126,0.08797522057294845,-2.556205409014225,-3.1759459115982054
1789799514823072000,9.842072021484375,0.7087785300828516,-0.8428665364027023,-3.4249142426818606
1789799514833043000,9.85204296875,1.6364368347167968,0.7060083347171544,-2.9463445442855356
1789799514843015000,9.862014892578125,1.9720260491549968,0.40182518915086984,-3.7899469937473533
1789799514852985900,9.87198583984375,1.708735178208351,-0.6200143510892987,-4.891995796734094
1789799514862957000,9.88195703125,1.838179888767004,-1.132491287523508,-6.551891832971572
1789799514872928800,9.8919287109375,1.6690366434179245,0.547770952655375,-6.952122738668322
1789799514882900000,9.90189990234375,2.2237552232541145,2.0819050585001704,-7.488962839725613
1789799514892871000,9.911870849609375,2.36853881111145,1.526005452185869,-8.29306680701375
1789799514902843000,9.9218427734375,2.0758920818209647,0.2314198149114847,-8.248142208138107
1789799514912813800,9.931813720703126,1.2506792755305767,0.18468436722159384,-7.168230418157577
1789799514922784800,9.94178466796875,-0.5210603481233119,1.5987831036269664,-4.82409831854999
1789799514932756000,9.951755859375,-0.902481923931837,2.655182792855799,-3.361945453071594
1789799514942727700,9.961727783203125,0.31536694901213047,1.2408172222077847,-4.07433033708334
1789799514952699000,9.971698974609374,0.8416213586471974,-0.6247738205760717,-5.442089347118139
1789799514962669800,9.981669921875,0.0830056154668331,-1.1886796232134103,-5.650876474460959
1789799514972642000,9.99164208984375,-0.888826323544979,0.35103111371994017,-4.029337349146604
1789799514982612700,10.00161279296875,-0.6290391498703509,1.9748183102220296,-2.396668927052617
1789799514992584000,10.011583984375,-0.45112106191329654,1.4975222850233316,-2.287698849245906
1789799515002556000,10.021555908203124,-0.3249520485570654,0.19993863497674463,-1.949625416776538
1789799515012527000,10.031527099609375,-0.4263328037459403,-0.33181875598877664,-0.8149719827830791
1789799515022497800,10.041497802734375,-1.4899708467304706,-0.48298429996818304,0.6406909361541271
1789799515032470000,10.051469970703126,-1.4770271940052508,-1.0861503921091555,0.15083879624307156
1789799515042441000,10.06144091796875,-0.3841699612012133,-1.6163590923279523,-1.9868524468868969
1789799515052412000,10.071411865234374,0.19217793784737586,-1.3413432967960834,-2.906149896541238
1789799515062382800,10.0813828125,0.0020551972304470837,-0.6949225848183035,-2.991547375580668
1789799515072354800,10.091354736328125,-0.8456441113572567,-0.15854104118347168,-2.827718164861202
1789799515082326000,10.101325927734376,-1.1628045927226542,0.10838906304836272,-2.3980852235913277
1789799515092297000,10.111296875,-0.4223299247801304,-0.21402765834480522,-2.5305992585927246
1789799515102269000,10.12126904296875,0.7944494192361832,-0.4964598676130175,-2.89890942389369
1789799515112239900,10.131239990234375,0.8526374043107032,-0.5056353999763726,-2.690872238135338
1789799515122211000,10.141211181640625,-0.5509446142554283,-0.6416662109270691,-2.0604086814850566
1789799515132182800,10.151182861328126,-1.1148562621116638,-1.1200859794586897,-1.5063403822511434
1789799515142154000,10.161154052734375,-0.45552959907054896,-1.703218460613489,-0.6381751539409161
1789799515152125000,10.171125,-0.2704752294927835,-2.241151617604494,-0.22606793248951434
1789799515162096000,10.18109619140625,0.1600695659250021,-2.406940730220079,-1.2192331669092178
1789799515172067800,10.19106787109375,0.6913736601650714,-2.0584972949057816,-2.3112895681917665
1789799515182039000,10.2010390625,0.5135679465413093,-1.2949860347688198,-2.2859406074017286
1789799515192010000,10.211010009765625,-0.4644651851981878,-0.47039632881283755,-0.6549427488684654
1789799515201982000,10.22098193359375,-1.4302952534466982,-0.032812136277556414,1.5302017348319292
1789799515211953000,10.230952880859375,-0.8884265105724334,-0.21452187160253525,2.4238971257179975
1789799515221923800,10.240923828125,0.6484189000576734,-0.4668009346693754,2.754664034566283
1789799515231895800,10.250895751953125,1.2843535815954208,-0.9822545488268136,4.026912752348184
1789799515241866800,10.26086669921875,1.6965210088014602,-2.6445781044721604,5.773897873973846
1789799515251838000,10.270837890625,0.8698580037027597,-4.795298925045133,7.099502334368228
1789799515261809000,10.280808837890625,0.3851279560457915,-5.4770121919393535,7.324747844558954
1789799515271780900,10.29078076171875,0.6268745922476053,-3.631258068525791,5.314252071756124
1789799515281751800,10.300751708984375,-0.07302139706909656,-1.3868945031374693,3.33403394831717
1789799515291723000,10.310722900390624,-0.8285153549671173,-0.28493805460929866,2.4343875400722026
1789799515301695000,10.320695068359376,-1.050433182039857,0.21593583005368708,2.382673719447851
1789799515311666000,10.330666015625,-1.2424608977615832,0.10484043065607547,3.375147464472055
1789799515321636900,10.340636962890626,0.09499474394619464,-0.5021370364665985,4.197716478255391
1789799515331607800,10.35060791015625,2.171137585657835,-0.8458551968246698,3.889251417586207
1789799515341580000,10.360580078125,3.4070442394703626,-1.044826448073983,2.776354472848773
1789799515351550700,10.37055078125,2.994647679683566,-1.5048475133448838,2.085361920955777
1789799515361522000,10.38052197265625,1.5386340476125477,-1.9087024547576903,2.1309178034722804
1789799515371494000,10.390493896484376,0.9046890785872935,-1.4026982214689254,2.217948436671495
1789799515381464800,10.40046484375,0.5665951878517865,0.24713234782814977,1.8425059352725743
1789799515391435800,10.410435791015624,0.38637072264850136,2.2228853085517883,0.5759264952987432
1789799515401408000,10.420407958984375,-0.3623135552346706,3.4605139638513323,-0.7255214289605617
1789799515411379000,10.43037890625,-1.0469126066982746,4.120308244404196,-1.672082148593664
1789799515421350000,10.440349853515626,-0.568338232126832,3.869817818319797,-3.4465357073813676
1789799515431321900,10.45032177734375,-1.1967962941735981,2.9761253500431772,-2.9327140783399344
1789799515441293000,10.46029296875,-2.5421160933852196,1.8731331287264823,-0.46386429669559
1789799515451264000,10.470263916015625,-2.118017989888787,0.25854981389939785,1.2958446974247693
1789799515461234700,10.480234619140624,-0.26746726158214734,-1.8881611865103243,2.109530732050538
1789799515471207000,10.49020703125,2.256013671171665,-3.248058377128839,3.5335026276946064
1789799515481177900,10.500177734375,3.5908857261270284,-3.3518530981242654,4.970023039266467
1789799515491149000,10.510149169921876,1.7461989396840334,-1.6992969032555818,6.694843090835214
1789799515501120800,10.520120849609375,0.28841068088961763,0.7303682844698429,6.373690982550382
1789799515511092000,10.530092041015624,-0.20652329233037306,1.6813778002053499,2.945221677735448
1789799515521063200,10.540063232421875,-0.25058630594061687,2.016492967391014,0.0960334393441677
1789799515531034000,10.5500341796875,-0.5820873560160398,2.0213088432401416,-1.5085054513305425
1789799515541006000,10.560006103515626,-2.1712889768272636,1.3599094655781983,-0.9875286898374557
1789799515550977000,10.56997705078125,-3.135761785247922,-0.28847850369513034,1.0628624555021524
1789799515560948000,10.579947998046874,-0.8428951779752969,-2.2809154727160927,1.9165970073997973
1789799515570920000,10.589919921875,2.121358532488346,-3.3684494281381365,1.99320678434968
1789799515580891000,10.599890869140625,2.41486626252234,-3.7340246155172583,2.116350933459401
1789799515590862000,10.609862060546876,1.4483084645211697,-3.676383158409595,2.110679317563772
1789799515600833800,10.619833740234375,0.4415408212065696,-2.9962510232269763,2.534279408410191
1789799515610805000,10.629804931640624,-0.3216711637228727,-1.9349691149145363,2.3772423420488833
1789799515620776000,10.63977587890625,-0.13695757040679454,-1.1368564969956874,1.2087836690872906
1789799515630747100,10.6497470703125,0.49780222213268277,-0.993690135076642,-0.5398176555633545
1789799515640718800,10.65971875,-0.7719283753484487,-1.239396834015846,-1.3119061899095772
1789799515650690000,10.66968994140625,-1.463513047915697,-1.3774533055752516,-0.22064766100645064
1789799515660661000,10.679660888671876,-0.48149873758554457,-1.725050353193283,1.3552373821139334
1789799515670633000,10.689633056640625,0.5253168365240096,-2.1081255414277313,2.724706118676066
1789799515680604000,10.69960400390625,0.8572855223774909,-2.536843121418357,2.9253000026911495
1789799515690574800,10.709574951171875,-0.02713233935876051,-2.5325036309093236,2.211382502284646
1789799515700546000,10.719546142578125,-1.0874433545291424,-1.9126386251628398,1.852090925219655
1789799515710517800,10.729517822265626,-1.0194225422263146,-1.43000270024091,1.9018629641264675
1789799515720489000,10.739489013671875,-0.06964110698103905,-1.646861782619357,1.4943465775966644
1789799515730460000,10.7494599609375,0.31480361604094503,-2.404154606632888,0.008661445361375808
1789799515740432100,10.75943212890625,-0.018878887993097303,-2.656205998423695,-0.9573287818849087
1789799515750402800,10.76940283203125,0.17418397946264594,-1.9517799644619225,-1.6363275291234254
1789799515760374000,10.7793740234375,0.7211983050644397,-0.867742618983984,-2.544843472522497
1789799515770345000,10.789344970703125,1.018675523251295,-0.004466916280984878,-3.0317285793215034
1789799515780317200,10.799317138671874,1.0950048758246005,-0.06694763011336326,-3.8337329439818855
1789799515790288000,10.809287841796875,0.6687796241063624,-0.5732584451332688,-4.3030823940902945
1789799515800258800,10.8192587890625,0.6463865905124694,-0.32478754217773675,-3.6021214058905837
1789799515810231000,10.82923095703125,1.575878028857708,0.12059826401919126,-3.8372687168926
1789799515820202000,10.839201904296875,2.3183622830569743,0.16684125201702116,-5.034437351509928
1789799515830173000,10.8491728515625,2.515529699754715,0.06799187846928835,-5.677761558777093
1789799515840145000,10.859144775390625,1.985998460406065,0.6843544290527701,-5.1741930282026525
1789799515850116000,10.8691162109375,0.4575963223420083,2.3836948791891337,-2.113698373124003
1789799515860087000,10.879087158203125,0.09990531234145164,1.8978075512558221,-0.5718979704350233
1789799515870058000,10.88905810546875,1.8326023808956144,-0.5215864178240299,-1.2511217586010694
1789799515880030000,10.899030029296876,2.368009234279394,-2.052039789329469,-1.7673931188821792
1789799515890001200,10.909001220703125,0.23539164115190506,-2.3419492026105524,-2.5845132196098564
1789799515899971800,10.918971923828124,-0.967846668767929,-0.8306625961288809,-1.5714759945064782
1789799515909944000,10.928944091796875,0.5989467939455062,-0.5430871787533164,-1.1430670420736073
1789799515919915000,10.9389150390625,2.1314939959250387,-1.432708744329214,-2.1913193729430436
1789799515929886200,10.94888623046875,1.567488970696926,-1.6810042907178402,-4.387409029027819
1789799515939857000,10.95885693359375,-0.011642433933541177,-0.7279609310671686,-6.447869148439168
1789799515949829000,10.9688291015625,-0.038549218624830246,1.1709902372658252,-6.3923144344776865
1789799515959800000,10.978800048828125,0.6853529385708272,2.209474038314819,-5.957504382830858
1789799515969771000,10.98877099609375,0.7566671663958578,1.8510951921805738,-6.283008841106295
1789799515979743000,10.998742919921876,0.37311091664619744,1.185120177166164,-6.121058283740282
1789799515989714000,11.0087138671875,0.20513810331597923,1.027786173684895,-5.53222379155159
1789799515999685000,11.01868505859375,-0.3536439265668392,1.2115864515483379,-5.574135180085897
1789799516009656000,11.028656005859375,-0.6313502032916992,1.3819427259489894,-5.889125258609652
1789799516019628000,11.0386279296875,-0.4137186752360314,1.3644193442180752,-6.015007308250666
1789799516029599000,11.048598876953125,-0.7594318818688393,1.400534029172361,-6.0347571338593955
1789799516039570200,11.058570068359375,-1.212921499544382,1.6616817506104706,-4.736595976185798
1789799516049542000,11.0685419921875,-0.7354980485737324,1.370854345701635,-2.5963164701282975
1789799516059513000,11.07851318359375,0.25731355010271073,0.12806260855048895,-0.9944359850078821
1789799516069484000,11.088484130859374,0.140218618029356,-0.2765945891559124,0.3108452338039875
1789799516079456000,11.0984560546875,-0.9331237304329871,-1.1317045210599899,0.29658173065185545
1789799516089427000,11.108427001953125,-1.655351378545165,-2.4266329804226756,0.5882523083865642
1789799516099398000,11.11839794921875,-1.5297475613236426,-3.3639123692303894,1.1437070935428142
1789799516109369000,11.128369140625,-1.378358729982376,-4.057403167679905,2.0486825878560544
1789799516119340800,11.1383408203125,-0.8405109131872653,-4.816032500994205,2.422851416057348
1789799516129312000,11.14831201171875,0.1766126679142937,-4.509270152589679,2.4499814150452615
1789799516139283000,11.158282958984374,0.6639186670064926,-3.349381155052781,2.51745979103446
1789799516149255000,11.1682548828125,0.10325929894447326,-2.5564748736053704,3.0047680916815995
1789799516159225900,11.178225830078125,-0.20963238252792507,-2.756040583616495,3.4764883625745773
1789799516169197000,11.188197021484376,-0.034788989308476445,-3.672206749507785,3.9587294429600237
1789799516179168000,11.19816796875,0.5611035681655631,-4.641295527291297,4.151272122466564
1789799516189140000,11.208139892578124,0.8380687807321548,-4.810014848139882,3.8743928711503743
1789799516199111000,11.21811083984375,0.7096306899327784,-4.093821804016828,3.3989573791265486
1789799516209081900,11.228081787109375,0.6675128921061754,-2.4861264951378104,2.624955120113492
1789799516219054000,11.23805419921875,-0.06600596534907817,-0.56757718462646,1.6703168924868106
1789799516229024800,11.248024658203125,-0.981785762271285,1.0998363876342774,0.8923451453208923
1789799516238996000,11.257995849609374,-1.1921551903694867,2.688484466215968,0.3014753479123115
1789799516248967000,11.267966796875,-0.48589262516293674,3.745045775747299,-0.9063181410938501
1789799516258939100,11.277939208984375,0.04474573517739772,3.9213703109025952,-1.7499544928252695
1789799516268909800,11.287909912109376,0.21559216771516948,3.2859704668939114,-1.723735178941488
1789799516278881000,11.297881103515625,-0.05804594625532627,2.3168349273592233,-0.9637380644053221
1789799516288853000,11.30785302734375,-0.3927642596105113,1.2911328664720059,1.0346242030113935
1789799516298824200,11.31782421875,-0.11199969129357486,-0.3064525518029928,3.1776649904757734
1789799516308795000,11.327794921875,1.7049293561846017,-1.5451315929383038,4.43662518761754
1789799516318765800,11.337765869140625,1.934667501619458,-1.4728127911806106,3.946429348835349
1789799516328738000,11.347738037109375,0.5722521907001733,-0.9285819953501224,3.052625236877799
1789799516338709000,11.357708984375,-1.4295517416030168,-0.7321107442229986,3.0136914028495547
1789799516348680000,11.367679931640625,-1.6967776139110327,-1.2143611769586802,3.325336847120523
1789799516358652000,11.37765185546875,-0.14555764096975327,-1.756494123727083,4.417341810476779
1789799516368623000,11.387623046875,0.36324469860494135,-2.025277162349224,4.412886584633589
1789799516378594000,11.397593994140625,-0.27090076142847536,-2.2463304815471172,4.048194025307893
1789799516388565000,11.40756494140625,-1.19834118552804,-1.9519442151129245,4.7625621920913455
1789799516398537000,11.417536865234375,-0.6209381879359483,-1.8731155930697916,4.327967244499922
1789799516408508200,11.427508056640624,0.19109306522011757,-1.4556816236376762,3.1710113778054714
1789799516418478800,11.437478759765625,0.24844638956878332,-0.6462994236856698,1.8445944319844245
1789799516428451000,11.447451171875,0.11433598875403403,0.03823766845762729,0.7490899360746145
1789799516438422000,11.457422119140626,0.2065115470936522,0.10474924524128436,-0.5680944864988327
1789799516448393200,11.467393310546875,0.31112638883292676,-0.3557230709284544,-1.7126082202494144
1789799516458364000,11.477364013671876,-0.019674422284960746,-1.2760878575533627,-2.2013380781322716
1789799516468336000,11.487336181640625,-1.3657868331789969,-2.033055395135283,-1.1451543697416782
1789799516478307000,11.49730712890625,-1.4559662857979536,-2.0852602141469716,-0.26385493457019327
1789799516488278000,11.507278076171875,-0.9524439324527978,-1.2207482476472853,0.14924538957178593
1789799516498250000,11.51725,-0.5329390019655227,0.06024316403865814,-0.002523380997776985
1789799516508221000,11.527220947265626,-0.6010872400403022,1.0865642336070538,-0.909181129309535
1789799516518193000,11.53719287109375,-1.337804016754031,1.8254963482826947,-1.6964397602587937
1789799516528163800,11.547163818359374,-1.7852058389484882,2.3691736018836496,-2.2381068430811166
1789799516538136000,11.557135986328126,-1.5282704745084046,2.7518337795764207,-2.45177414368093
1789799516548107000,11.56710693359375,-1.077241255597025,2.5986627409934995,-2.0998528031229973
1789799516558078000,11.577077880859376,-0.4926163439273834,1.653560987997055,-0.4613619584858417
1789799516568050000,11.5870498046875,-0.13011632620990277,-0.012450316250324249,2.9150755457967517
1789799516578021000,11.597021240234374,-0.32757015863358974,-2.432280923181772,6.86253248411417
1789799516587992000,11.606991943359375,-0.40437984206974503,-4.262213792607188,8.724616980081796
1789799516597963000,11.616962890625,-0.06454992132186889,-4.744878651362657,5.7822191275954244
1789799516607935000,11.62693505859375,0.7277122900683433,-3.1747891427785158,2.0785364588499067
1789799516617906200,11.63690625,0.14219956271350384,-1.7726742741554975,1.339016315153241
1789799516627877000,11.646877197265624,-0.5931015019834042,-2.10503225158751,1.3344500301510094
1789799516637847800,11.656847900390625,-0.5335627598870545,-2.865594014269113,2.321953001025319
1789799516647820000,11.666820068359375,0.02728898894190788,-3.384273020213842,4.127255287063122
1789799516657791000,11.676791015625,-0.09081248982548713,-3.415551371052861,5.4108641877710815
1789799516667762000,11.686761962890625,-0.6596217735301703,-3.5397418143451214,4.661403664818406
1789799516677734000,11.69673388671875,-0.6390916842639446,-3.6041257314503192,2.9297797784537076
1789799516687705000,11.706705078125,0.08839019458200782,-3.4896336753517385,1.78533268019855
1789799516697676000,11.716676025390624,0.3521095200737938,-2.990499620093405,0.9658499419927596
1789799516707647000,11.72664697265625,-0.175454182061553,-1.7355676555544137,0.4755453821390867
1789799516717619000,11.736618896484375,-0.6694412298202514,-0.6665913933470845,-0.38986090285181996
1789799516727590100,11.746590087890626,0.22936522046923635,-1.2257888721629977,-2.225142147567868
1789799516737561000,11.75656103515625,1.1806523841023444,-1.9192787938296794,-3.5175346587121483
1789799516747533000,11.766532958984374,1.5181939016520976,-1.5342591935291885,-5.4474611032843585
1789799516757504000,11.77650390625,2.0127695629537103,-0.2370744796723127,-6.294821443974971
1789799516767475000,11.786474853515625,2.2298856888331473,1.38077572799623,-5.1831362131148575
1789799516777446100,11.796446044921876,1.886533877569437,2.2326930013388395,-3.359688614055514
1789799516787417900,11.80641796875,1.6004314553558825,1.72198775075227,-3.1065023730158803
1789799516797389000,11.81638916015625,1.7336194440960884,-0.1771142242282629,-4.908066641569137
1789799516807360000,11.826360107421875,1.941213562262058,-1.131042257758975,-6.458232137021422
1789799516817331200,11.836331298828124,0.008901026270911097,0.7173226326748728,-4.729236261072755
1789799516827303000,11.846302978515626,-0.6278314545810222,1.5265435045853257,-2.7767952023535964
1789799516837274000,11.856274169921875,-0.5180675960481167,0.25517799937874075,-1.3468617679566144
1789799516847245000,11.8662451171875,-0.31707733312658964,-1.3504609614923595,-1.2087795774340628
1789799516857217000,11.876217041015625,-0.8112544235646725,-1.6679574698790907,-2.876439233410358
1789799516867188000,11.88618798828125,-1.5352701241374014,-0.4058256569638848,-3.075751260921359
1789799516877159000,11.896158935546875,-0.45835057477541263,0.020987842971086502,-2.206359705686569
1789799516887130000,11.906130126953125,1.2841045752704143,-1.3026903255358337,-2.0607839445382354
1789799516897101800,11.916101806640626,1.4293933361709117,-2.1874887087389827,-2.4488661472797393
1789799516907073000,11.926072998046875,0.05718260742425918,-1.8652485129565,-3.0588024642080067
1789799516917044000,11.9360439453125,-0.33380167343430217,-0.07320289111584424,-2.850508673340082
1789799516927016000,11.946015869140625,0.5409586422920226,-0.10994944423288107,-3.348013958352804
1789799516936987000,11.95598681640625,0.7160954289674758,-1.0842764149308204,-3.441611110460758
1789799516946958000,11.9659580078125,0.8631096254210918,-1.3796075609996914,-4.536456850200891
1789799516956929000,11.975928955078125,0.25583470972180367,-0.6868436155200004,-5.790947208452224
1789799516966901000,11.98590087890625,-0.5039069687485694,0.956914063604176,-5.401679010796546
1789799516976872000,11.995871826171875,-1.0370470462441443,2.0286630053952335,-4.856431731399893
1789799516986843000,12.0058427734375,-1.7582441822648047,1.790448708038032,-5.759367828840017
1789799516996814800,12.01581494140625,-1.206123509967327,0.9355869056761265,-6.917485725051164
1789799517006786000,12.0257861328125,0.3956897551357746,0.5536936207026243,-6.67808192564845
1789799517016757000,12.035757080078126,0.83039400832057,1.8458482314378022,-4.090518670818209
1789799517026728000,12.04572802734375,-0.012914428914024029,2.5913433578908442,-2.7367314875125883
1789799517036700000,12.055699951171874,-0.9579507131755352,1.9331798934102058,-2.3309394405573607
1789799517046670800,12.0656708984375,-0.8795897086441516,0.8006371679604053,-2.156332815235853
1789799517056642000,12.07564208984375,-0.5554705672472715,-0.011372165624797344,-2.8853368256151675
1789799517066613000,12.085613037109376,-1.2121247962087391,-0.22009148842841386,-2.784140304419398
1789799517076585000,12.0955849609375,-1.8478548950850961,-0.2867392588123679,-2.4844144305229188
1789799517086556000,12.105555908203126,-1.6093763938337564,-0.5234890365749597,-2.4611896222800014
1789799517096527000,12.115527099609375,-0.6015828415375203,-0.6534153931707143,-1.7849200077444314
1789799517106499000,12.1254990234375,0.211564848427847,-0.5295435143083334,0.40074470043778415
1789799517116470000,12.135469970703125,0.03150331870131194,-0.7325760236471891,3.4678222410380837
1789799517126441000,12.14544091796875,0.09012388650681823,-2.366815640580654,4.453919436767697
1789799517136412000,12.155411865234376,0.460561821084097,-4.785164484521746,3.203953277942538
1789799517146384100,12.165384033203125,0.943663244625926,-5.9153200225740665,2.742724590447545
1789799517156354800,12.175354736328124,0.7026199343878775,-5.673679257899522,4.086313620343804
1789799517166326000,12.185325927734375,-0.7363251470476389,-5.168348393827676,7.58984839527607
1789799517176297000,12.195296875,-0.8095347601652145,-5.828713752266764,10.145413168299198
1789799517186269000,12.20526904296875,0.42923195925354957,-6.189250945478677,8.437619070333241
1789799517196240000,12.215239990234375,0.7064981640607119,-3.1339386614739895,4.844803837448358
1789799517206211000,12.225211181640624,0.5826063749214634,0.6267226165562868,1.2309136678308248
1789799517216183000,12.23518310546875,0.2426390915295109,2.208475090405345,-0.5335784689128399
1789799517226154000,12.245154052734375,-0.5791495855310932,1.7574205909222362,-0.48793373906910414
1789799517236125000,12.255125,-0.3639911330580711,-0.06442424911558628,0.2373585573107004
1789799517246096000,12.265095947265625,0.6521785448521376,-1.7672744609385729,1.1852519868522882
1789799517256068000,12.275068115234374,1.7343869213372467,-1.760125758227706,0.8692828341633081
1789799517266038800,12.285038818359375,2.2787492345929143,-0.6652133829921484,-0.44780105064511294
1789799517276010000,12.295010009765624,1.610410413056612,0.8705787191927432,-0.4838233811408281
1789799517285981000,12.30498095703125,0.1485006721517071,2.307666701519489,-0.33143443284630775
1789799517295953200,12.314953125,-0.49182139415740966,3.1426141353607178,-1.0554378584593533
1789799517305923800,12.324923828125,-0.6919312940478325,3.64502355902791,-1.2817080355226993
1789799517315895000,12.33489501953125,-0.4539157341331243,3.5936715574532747,-1.9097405656337736
1789799517325867000,12.344866943359374,-0.821484725677967,2.8888614926099776,-2.0323715045243502
1789799517335838000,12.354837890625,-1.8665625181645153,2.4115280580103398,-0.542170356169343
1789799517345809000,12.364808837890624,-2.4143021988987923,1.4078355843573809,2.290195926758647
1789799517355779800,12.37477978515625,-1.0894605395704506,-0.9169915107995271,5.3682566336661575
1789799517365752000,12.384751953125,2.283192769998312,-2.519614338719845,6.858963977977633
1789799517375723000,12.394722900390626,3.7127842590898275,-3.230328659170866,7.093169039693475
1789799517385694000,12.40469384765625,2.4942431660979985,-3.486058154952526,7.616846876838803
1789799517395665000,12.414664794921874,1.4314607900947331,-3.28785613451004,7.3131357326984405
1789799517405637000,12.42463720703125,2.077944338175654,-2.281441542416811,5.340872367656231
1789799517415607800,12.43460791015625,2.166476608109474,-0.8713789296597242,2.658298002266884
1789799517425579000,12.4445791015625,0.6876707139939069,0.08431494449973106,0.25019231992065905
1789799517435551000,12.454551025390625,-1.9681267036288976,0.27259645943045613,-0.8172031028360128
1789799517445522200,12.464522216796874,-4.106217759731412,-0.12965747652649878,-0.46545127362608907
1789799517455492900,12.474492919921875,-3.738576287472248,-1.3901900375515222,0.5286766683459282
1789799517465463800,12.4844638671875,-1.1247294213503598,-2.685509834319353,1.3461755392581223
1789799517475436000,12.49443603515625,1.070841763818264,-2.1434967145383355,1.4564011700838804
1789799517485407000,12.504406982421875,1.493246507400274,-0.7634709281265735,1.009044940596819
1789799517495378000,12.5143779296875,0.9978910938978195,0.0954191068381071,0.37475861078798767
1789799517505348900,12.524348876953125,0.576437951952219,0.499540005710721,-0.16307400843799114
1789799517515321000,12.534321044921874,0.456495850286819,0.5208972665160894,-0.3754857560187578
1789799517525291500,12.54429150390625,0.3934662704000249,0.3557265780597925,-0.006033434945344925
1789799517535262500,12.554262451171875,-0.01766721064839512,0.22302549605369568,0.9312754722177982
1789799517545234400,12.564234375,-0.6241214941471814,0.15067863724529743,1.5726695882052182
1789799517555205600,12.57420556640625,-1.093361638662219,0.41545010213851924,1.8935785353839396
1789799517565176600,12.584176513671874,-1.1886252626776694,0.8560334764897822,1.7060370251655577
