time,seconds_elapsed,z,y,x
1789799505022490600,0.04149072265625,6.665607059478759,6.3895256805419915,0.6277297477722168
1789799505032461600,0.051461669921875,6.912209830474853,5.986401976013183,0.07900865478515624
1789799505042433800,0.061433837890625,7.204003157806396,5.5798366065979,-0.27832594299316404
1789799505052404700,0.07140478515625,7.092373505401611,5.139752413940429,-0.3468599655151367
1789799505062375700,0.081375732421875,7.165995206451416,4.9546506980895995,-0.45774142990112304
1789799505072347600,0.09134765625,7.492354820251465,5.130474882507324,-0.4149450752258301
1789799505082318800,0.10131884765625,7.783100684356689,5.260210684967041,-0.3254617881774902
1789799505092289800,0.111289794921875,7.85268217010498,5.15860675201416,-0.4026747917175293
1789799505102261800,0.12126171875,7.675211972045898,5.0008887176513666,-0.565031591796875
1789799505112232700,0.131232666015625,7.451653392028808,4.836137715911865,-0.8680477394104004
1789799505122204000,0.141203857421875,7.311891870117187,4.630086735534667,-1.0588356842041016
1789799505132175600,0.151175537109375,7.62268917312622,4.777479775238037,-1.2369044326782226
1789799505142146800,0.161146728515625,8.133252677154541,4.8427217704772945,-1.1008838508605956
1789799505152118800,0.171118896484375,8.677634279632567,4.839579380798339,-0.7498340324401855
1789799505162089700,0.18108984375,9.241768045806884,4.655225852966308,-0.33698388366699217
1789799505172060700,0.191060791015625,9.43524946746826,4.685003736114502,0.1304839904785156
1789799505182033000,0.201032958984375,9.08434928665161,5.165639719390869,0.6349123527526855
1789799505192003800,0.21100390625,8.40215145111084,5.931484975433349,0.8828618621826171
1789799505201974500,0.220974609375,8.067112856292724,6.851905876159668,0.0005985504150390625
1789799505211946800,0.23094677734375,7.823652474975585,7.192181787109375,-0.917428148651123
1789799505221917700,0.240917724609375,7.565527608489989,6.430227108764648,-1.6659154426574707
1789799505231889000,0.250888916015625,7.313986796569824,5.5169888130187985,-2.4322096115112304
1789799505241860600,0.260860595703125,7.15686731262207,6.948422130584716,-2.6598084068298338
1789799505251831800,0.270831787109375,5.575497116088867,7.407061386108398,-3.4029087471008297
1789799505261802800,0.280802734375,4.64101028060913,7.173477086639404,-3.6736031723022458
1789799505271774700,0.290774658203125,4.632032024383545,6.673986765289306,-2.1637597503662107
1789799505281745700,0.30074560546875,5.029918412780761,6.21863953704834,-1.8248305778503418
1789799505291718000,0.3107177734375,5.37558127746582,5.029918412780761,-1.232714579772949
1789799505301688600,0.3206884765625,5.806387938690185,4.85229857711792,-1.4782698875427245
1789799505311659800,0.33065966796875,5.343858105468749,4.36672455291748,-2.133084041595459
1789799505321631700,0.3406318359375,4.058171813964844,2.6144682128906247,-2.862866635131836
1789799505331602700,0.350602783203125,3.8043864379882812,2.817376803588867,-3.5200749908447264
1789799505341573600,0.36057373046875,7.2635589241027825,4.444835382080078,-3.0262708984374997
1789799505351545900,0.3705458984375,9.32795930557251,2.7699416831970214,-2.0302830078125
1789799505361516800,0.380516845703125,8.779387850189208,1.0160393295288086,-1.7121534622192383
1789799505371487700,0.39048779296875,9.869198518371581,1.53213942489624,-2.0609587165832517
1789799505381459700,0.400459716796875,10.326939948272704,2.064550019073486,-2.3499089294433593
1789799505391431000,0.410430908203125,10.929530578613281,3.434033368682861,-1.8989011917114256
1789799505401401900,0.42040185546875,10.804882454681396,4.5404538108825685,-1.510591609954834
1789799505411373800,0.430373779296875,10.84124439239502,5.636399620819091,-1.6437690773010254
1789799505421344800,0.4403447265625,10.737844808197021,3.455132270812988,-5.93133533782959
1789799505431316700,0.450316650390625,8.548048114776611,4.243273529815673,-6.242581553649902
1789799505441287700,0.46028759765625,7.54607472000122,9.214683639526367,-0.3145382431030273
1789799505451258600,0.470258544921875,11.31245320663452,9.432256715393066,4.523844036865234
1789799505461230800,0.48023095703125,14.06473765258789,6.7359367332458495,6.309918475341797
1789799505471201500,0.490201416015625,13.616273754119872,4.466383197021484,5.003731832122803
1789799505481172700,0.5001728515625,11.008090320587158,4.210353256988525,3.3858500602722166
1789799505491144700,0.510144775390625,10.64222637939453,4.705953000640869,2.9569886878967284
1789799505501116000,0.520115966796875,9.204957195281981,4.949263744354248,3.58801046295166
1789799505511087000,0.530087158203125,7.817816608428955,5.214271940612793,3.946691799163818
1789799505521059300,0.540059326171875,8.205677277374267,5.576394941711426,3.994725469970703
1789799505531030300,0.5500302734375,9.420734619903564,5.821650974273681,4.204966303253173
1789799505541001200,0.560001220703125,10.056395160675049,5.722441242980957,4.150647853088379
1789799505550973200,0.56997314453125,10.031555318450927,5.491999333190917,4.123114533996582
1789799505560944400,0.5799443359375,10.032902056884765,5.295375521850586,4.528931715393066
1789799505570916000,0.589916015625,9.757868141174315,5.36929649810791,4.759972175598144
1789799505580887300,0.59988720703125,9.274538681030274,5.591508339691162,4.676474392700195
1789799505590858200,0.609858154296875,8.66341870727539,5.817610758972168,4.502894772338867
1789799505600830200,0.619830322265625,8.129811012268066,5.780500633239746,4.12446127243042
1789799505610801200,0.62980126953125,7.937676329040527,5.512499684906006,3.7075709083557125
1789799505620772000,0.639772216796875,8.56735136566162,5.108478154754638,3.9261914474487303
1789799505630744300,0.649744384765625,8.85510447769165,5.591957252502441,4.18147319946289
1789799505640715000,0.659715087890625,8.07639038772583,6.317699630737304,4.205415216064453
1789799505650686200,0.669686279296875,7.2264487983703605,6.572083557128906,4.186710515594482
1789799505660658200,0.679658203125,6.571335369110107,6.590788257598876,3.756502404785156
1789799505670629400,0.68962939453125,5.977573357391357,6.3615434486389155,3.098246585845947
1789799505680600000,0.69960009765625,5.9629088722229,5.84783755493164,2.6659435485839844
1789799505690572300,0.709572265625,6.48589229736328,5.47808303604126,2.6255413955688476
1789799505700543200,0.719543212890625,7.204152795410156,5.259163221740723,2.9842227317810055
1789799505710514400,0.729514404296875,8.0950950881958,5.2168157798767085,3.545064470672607
1789799505720486100,0.739486083984375,8.878447943878173,5.19018028640747,4.167407264709472
1789799505730457300,0.749457275390625,9.149740919494628,5.2630537994384765,4.6353240516662595
1789799505740429000,0.759428955078125,8.836250139617919,5.3484968711853025,5.078101721191406
1789799505750400300,0.769400146484375,8.760084599304198,5.687126768493652,5.298517911529541
1789799505760371200,0.77937109375,8.144625135040283,6.084863519287109,4.674529103851318
1789799505770343400,0.789343505859375,5.761795932769775,6.255001474761962,3.2978631492614743
1789799505780314000,0.799314208984375,2.4537574264526367,6.18033231048584,1.9780594841003416
1789799505790285300,0.809285400390625,0.3913023338317871,6.063016429138183,1.650353131866455
1789799505800257300,0.81925732421875,0.9323919090270996,6.14801058807373,2.38776724319458
1789799505810228200,0.829228271484375,4.300734369659423,6.256348213195801,3.9076363845825193
1789799505820199200,0.83919921875,8.262689204406739,6.031293257141113,4.71822328414917
1789799505830171400,0.84917138671875,9.503783489990234,5.312284571075439,4.103661645507812
1789799505840142300,0.859142333984375,7.896675625610351,4.778078325653076,2.9454665924072265
1789799505850113300,0.86911328125,5.787982513427734,4.741866025543213,2.051232272338867
1789799505860085200,0.879085205078125,4.1852141395568845,4.790198971557617,1.8604443275451659
1789799505870056200,0.88905615234375,3.4844612411499023,5.186140071105957,1.8655320060729979
1789799505880027400,0.89902734375,3.8859389320373534,5.5264159820556635,1.7699135772705077
1789799505889999000,0.9089990234375,5.080795198059081,5.285349802398681,1.8462287551879881
1789799505899970300,0.91897021484375,6.589441519165039,4.712387417602539,2.172588368988037
1789799505909941200,0.928941162109375,7.707683332061767,4.166210163879394,2.5252842010498044
1789799505919913200,0.938913330078125,8.060379164123535,3.9790135215759275,2.8386253433227537
1789799505929884200,0.94888427734375,7.496694310760498,4.146607637786865,3.0846295639038086
1789799505939856400,0.9588564453125,6.299294205474853,4.431667272949219,3.4796728378295896
1789799505949827000,0.9688271484375,5.981463935089111,4.359392310333252,3.7963060073852537
1789799505959798300,0.97879833984375,7.225700610351562,4.9543514228820795,4.821622868347168
1789799505969770200,0.988770263671875,9.956736516571045,4.715978720092773,6.1735986183166505
1789799505979741400,0.998741455078125,12.107477795410155,3.4802713882446286,6.272209799194336
1789799505989712100,1.008712158203125,13.239635905456542,3.079092972564697,5.500827951812743
1789799505999684400,1.018684326171875,12.486210570526122,3.2173581184387205,4.5419501869201655
1789799506009655300,1.0286552734375,10.174309592437744,3.3542765258789062,3.8347628715515136
1789799506019626200,1.038626220703125,7.9946882560729975,3.7838860862731933,3.17935016708374
1789799506029598200,1.04859814453125,6.610390783691406,4.227262306213379,2.813635863494873
1789799506039569200,1.058569091796875,5.82239916229248,4.556913947296143,2.5673323677062987
1789799506049540400,1.068540283203125,5.40790299987793,4.784213467407226,2.458545829772949
1789799506059512000,1.078511962890625,5.370942511749267,4.908861591339111,2.5534160705566404
1789799506069483300,1.088483154296875,6.436212612915039,5.146785381317138,2.8190228172302243
1789799506079454200,1.0984541015625,8.185775476074218,5.390245762634277,3.618536534118652
1789799506089426200,1.10842626953125,9.278429258728027,5.519831927490234,4.5133694046020505
1789799506099397000,1.118397216796875,8.79120922088623,5.546317783355713,4.871901103210449
1789799506109369300,1.128369384765625,6.752546507263183,6.101622930908203,3.994725469970703
1789799506119340300,1.13834033203125,5.032162976837158,6.553378856658935,3.2181063064575195
1789799506129311200,1.148311279296875,6.245125392913818,6.291363412475586,3.539378241729736
1789799506139283200,1.158283203125,9.636362406921386,5.397278730010986,4.777479775238037
1789799506149254400,1.16825439453125,12.6544032371521,4.383184689331054,6.0604725898742675
1789799506159225300,1.178225341796875,13.914950411224364,3.9694367149353025,6.405686541748047
1789799506169197300,1.188197265625,12.866888634490966,4.0830116561889644,5.827486840820312
1789799506179168300,1.198168212890625,10.96170266342163,4.392911133575439,4.628141446685791
1789799506189139200,1.20813916015625,9.854683670806883,4.726453352355957,3.1522657608032225
1789799506199111200,1.218111083984375,9.887454306030273,4.763713115692139,1.8842367065429686
1789799506209082000,1.22808203125,10.95541788406372,4.630086735534667,0.953191535949707
1789799506219053300,1.23805322265625,12.28330197982788,4.620509928894043,0.7960720520019531
1789799506229025000,1.24802490234375,12.842796980285645,4.626944345855713,1.4426561378479004
1789799506238996200,1.257996337890625,12.260706701660155,4.7752352111816405,2.2493524597167966
1789799506248967200,1.26796728515625,10.939107385253905,5.0480245628356935,2.4823382087707517
1789799506258939400,1.277939453125,9.405172309112547,5.105934315490722,2.171391268157959
1789799506268910000,1.28791015625,7.938873429870605,4.895843119812011,1.5547347030639647
1789799506278881300,1.29788134765625,6.549338641357421,4.8314989501953125,0.7971195152282714
1789799506288853200,1.307853271484375,5.395183803558349,4.859630819702148,0.2587234169006348
1789799506298824200,1.31782421875,5.013308638763427,4.854842416381835,0.12898761444091797
1789799506308795100,1.327795166015625,5.569810887145996,4.6998178588867185,0.20216040267944335
1789799506318767400,1.337767333984375,6.406285092163086,4.359242672729492,0.33399113159179683
1789799506328738300,1.34773828125,6.848164936065674,4.110844250488281,0.5906196220397949
1789799506338710300,1.357710205078125,6.7292030410766595,4.1386768447875975,0.8747814315795898
1789799506348681200,1.36768115234375,6.267421395874023,4.383633602142334,1.3160627250671386
1789799506358652400,1.37765234375,5.793818379974365,4.6915877906799315,1.8721160606384277
1789799506368624000,1.3876240234375,5.522974317169189,4.863820672607422,2.2020669769287107
1789799506378595300,1.39759521484375,5.272630606079101,4.741417112731933,2.3582886352539063
1789799506388566300,1.407566162109375,4.952406134033203,4.379294111633301,2.4084172325134277
1789799506398538200,1.417538330078125,4.599859939575195,3.9303813003540036,2.6946739685058594
1789799506408509200,1.42750927734375,4.598962113952637,3.2181063064575195,3.3743279647827147
1789799506418480000,1.437480224609375,4.817433015441894,2.290652438354492,4.0475475440979
1789799506428452400,1.447452392578125,4.7937902740478515,1.3485340850830076,4.257339464569092
1789799506438423000,1.457423095703125,4.656123678588867,0.5117606048583984,4.050989208984375
1789799506448394200,1.467394287109375,4.381538675689697,-0.15652093353271485,3.592349953460693
1789799506458366200,1.4773662109375,3.809474116516113,-0.9431658164978027,3.47323842086792
1789799506468337400,1.48733740234375,2.886958289337158,-1.4308347671508788,3.411138815307617
1789799506478308000,1.49730810546875,1.6717513092041014,-1.622819812774658,2.5094226150512693
1789799506488280300,1.5072802734375,0.6962637702941894,-2.089539498901367,1.739088230895996
1789799506498251300,1.517251220703125,0.5419874008178711,-2.90476516418457,1.9214964698791503
1789799506508222500,1.527222412109375,0.8987234481811522,-3.883544730377197,2.3690625427246093
1789799506518194200,1.537194091796875,1.1526584617614746,-5.032911164855957,3.084031013488769
1789799506528165400,1.547165283203125,1.5150807380676268,-6.088305184173584,4.121019607543945
1789799506538136300,1.55713623046875,1.6298527801513671,-6.988076095581055,4.826710546875
1789799506548108300,1.5671083984375,1.0461164878845215,-6.973860523223877,4.642057743835449
1789799506558079200,1.577079345703125,0.04129997863769531,-7.003788043975829,4.246116644287109
1789799506568050400,1.587050537109375,-0.7091326042175292,-7.430404852294921,3.8572085121154784
1789799506578022100,1.597022216796875,-1.5548843406677244,-7.815123131561279,4.005649015045166
1789799506587993300,1.606993408203125,-2.0938789894104004,-8.41472100982666,4.444835382080078
1789799506597965300,1.61696533203125,-2.0774188529968263,-9.436745843505859,5.70732784500122
1789799506607936300,1.626936279296875,-1.5840636734008788,-11.39580135192871,8.623465467071533
1789799506617907200,1.6369072265625,-1.5453075340270994,-9.673622170257568,8.093149799346923
1789799506627879400,1.64687939453125,-1.1270704315185547,-7.947702048492431,8.362198210906982
1789799506637850400,1.656850341796875,-0.09262567672729492,-8.408735505676269,10.937760646820069
1789799506647821300,1.6668212890625,0.8221089950561523,-9.176077137756348,13.140276536560059
1789799506657793300,1.676793212890625,1.6309002433776854,-9.178172064208983,14.642338803100586
1789799506667764200,1.68676416015625,2.1377228073120116,-8.738387146759033,15.798139654541014
1789799506677735400,1.6967353515625,2.703203311920166,-8.275857313537598,16.493804874420164
1789799506687707100,1.70670703125,3.1426889541625975,-8.398260873413085,16.772430092620848
1789799506697678300,1.71667822265625,3.7768531188964842,-8.027309253692627,17.151312505340574
1789799506707649300,1.726649169921875,3.662829264831543,-8.149563175964355,18.051831604766846
1789799506717621200,1.736621337890625,3.762338271331787,-8.008006002807617,19.857059656524658
1789799506727592200,1.74659228515625,4.295646691131592,-6.75479107131958,22.66306400222778
1789799506737563400,1.7565634765625,4.820874680328369,-5.394136340332031,25.178023208618164
1789799506747535000,1.76653515625,4.825064533233642,-3.8156092582702636,26.14318575286865
1789799506757506300,1.77650634765625,4.1198225067138665,-3.4714427696228025,25.247305419158934
1789799506767477200,1.786477294921875,2.1273978126525876,-3.1227871528625486,24.077139357757567
1789799506777449500,1.796449462890625,0.29284079055786133,-2.4344541755676268,22.296002960205076
1789799506787420200,1.806420166015625,-0.16130933685302734,-2.361580662536621,21.799206115722654
1789799506797391000,1.81639111328125,-2.681954772186279,-2.2979846809387205,22.294656221771238
1789799506807363300,1.82636328125,-4.630834923553467,-2.8681039512634277,21.730073542785643
1789799506817334300,1.836334228515625,-6.968473569488525,-2.1149778915405273,20.90931128616333
1789799506827305200,1.84630517578125,-5.6191912963867185,-0.5891232460021972,19.630657962036132
1789799506837277200,1.856277099609375,-1.1731588134765625,-1.2780547737121581,18.73732146759033
1789799506847248400,1.866248291015625,3.4439094505310055,-1.9448399360656736,17.829619763183594
1789799506857219300,1.87621923828125,1.7720085037231443,-2.442833881378174,16.894235102081296
1789799506867191300,1.88619140625,-1.3602058181762695,-3.317914588165283,15.487641626739501
1789799506877162200,1.896162353515625,-2.5465327407836913,-3.8394016372680664,13.773991788482665
1789799506887133400,1.906133544921875,-4.318391606903076,-4.5042415107727045,13.057526941680907
1789799506897105200,1.916105224609375,-3.9345711532592773,-5.374234539031982,13.119027996826171
1789799506907076400,1.926076416015625,-1.572541577911377,-6.117484516906738,12.921506359863281
1789799506917048300,1.93604833984375,0.6482300994873047,-5.97577770614624,13.065607372283935
1789799506927019300,1.946019287109375,1.8659809188842773,-5.544821407318115,13.62465345993042
1789799506936990200,1.955990234375,2.5043349365234375,-6.494870553588867,13.859434860229491
1789799506946962400,1.96596240234375,6.598719050598144,-8.470386198425292,14.375534955596923
1789799506956933400,1.975933349609375,6.133346102905273,-8.154950129699706,11.642553760528564
1789799506966904000,1.985904052734375,-2.673575066375732,-8.374169219207763,7.090877129364014
1789799506976876300,1.995876220703125,-4.075380138397216,-8.108861747741699,4.973804311370849
1789799506986847200,2.00584716796875,-3.3714848503112793,-6.092794312286377,5.4321442916870115
1789799506996818400,2.015818359375,-1.3859434860229491,-5.181052392578125,6.9439330024719235
1789799507006790400,2.025790283203125,-0.6515221267700195,-4.813392800140381,7.180061141204834
1789799507016761300,2.03576123046875,-2.0657471199035644,-3.8679824195861814,5.910386073303222
1789799507026732300,2.045732177734375,-3.5003228271484375,-3.151367935180664,3.7379473419189453
1789799507036704300,2.055704345703125,-2.5852888801574707,-2.174533657836914,4.39904627532959
1789799507046675200,2.06567529296875,-0.7336731712341308,-1.2678794166564942,6.817489227294922
1789799507056646400,2.075646484375,1.122431665802002,0.018255787658691406,8.421753977203368
1789799507066618000,2.0856181640625,0.6036380935668945,1.0012252067565917,7.591265276336669
1789799507076589300,2.09558935546875,-1.1278186195373534,0.5352537086486816,6.779481275939941
1789799507086560300,2.105560302734375,-2.014271784210205,-0.31214404144287106,7.473201206970215
1789799507096532200,2.1155322265625,-2.4109610717773435,-0.5527613082885742,8.485798871612548
1789799507106503200,2.125503173828125,-2.2512977485656736,-0.10908581314086914,10.301351918029784
1789799507116474400,2.135474365234375,-2.6734254287719725,-1.417965933227539,7.64827720336914
1789799507126446300,2.1454462890625,-1.7694646644592285,-2.712630480957031,3.9234979705810544
1789799507136417300,2.155417236328125,-0.011522095489501952,-2.220472402191162,5.559635530090332
1789799507146388200,2.16538818359375,0.8351274665832519,-2.057816326904297,7.929895173645019
1789799507156360400,2.1753603515625,0.6545148788452148,-4.621258116912841,5.2825066879272455
1789799507166331400,2.185331298828125,-0.10429740982055663,-5.035903916931152,3.8480806182861325
1789799507176302000,2.195302001953125,0.622492431640625,-3.040187195587158,6.56310530090332
1789799507186274300,2.2052744140625,-0.020649989318847654,0.020649989318847654,9.962422745513916
1789799507196245200,2.215245361328125,-2.0534768363952636,-4.110544975280762,8.139088543701172
1789799507206217200,2.22521728515625,-3.8709751716613767,-2.7590181381225585,10.039037198638916
1789799507216188200,2.235188232421875,-4.129249675750732,-1.7848773376464844,12.17571254272461
1789799507226159400,2.245159423828125,-2.1805191619873048,-2.8110920242309567,12.89606796722412
1789799507236131000,2.255131103515625,-1.8785504776000976,-5.274126982116699,12.962806338500975
1789799507246102300,2.265102294921875,-3.3259950187683103,-5.267692565155029,11.375301000213623
1789799507256073200,2.2750732421875,-2.155080769348144,-3.6756980987548826,10.121188243103028
1789799507266045400,2.28504541015625,-2.1068974609374997,-8.06367119140625,13.144167114257812
1789799507276016000,2.29501611328125,-3.3795652809143064,-7.236624155426025,14.354884966278075
1789799507285987300,2.3049873046875,-3.1483751831054687,-5.035903916931152,14.363414309692383
1789799507295959300,2.314959228515625,-2.459294017791748,-5.419125820159912,12.974178796386719
1789799507305930500,2.324930419921875,-1.618480322265625,-5.79711040725708,11.558307789611815
1789799507315901200,2.334901123046875,-1.1736077262878417,-5.948244387054443,10.96170266342163
1789799507325873400,2.344873291015625,-0.7778162643432617,-5.052214415740966,9.86291373901367
1789799507335844400,2.35484423828125,-1.124825867462158,-3.7805940589904785,8.868571862030029
1789799507345815300,2.364815185546875,-2.403778466796875,-2.1109376762390135,7.1312792823791495
1789799507355787300,2.374787353515625,-3.81156904296875,-1.467047067260742,5.342960279846191
1789799507365758200,2.38475830078125,-2.085200008392334,-1.7323545387268064,4.2149920227050774
1789799507375729400,2.3947294921875,3.4754829849243163,-0.7739256866455078,2.114678616333008
1789799507385701000,2.404701171875,7.228244449615478,-3.712957862091064,1.57688106842041
1789799507395672300,2.41467236328125,1.5810709213256835,-1.9885341163635253,4.107252947998047
1789799507405643300,2.424643310546875,-4.131194964599609,-0.1452981132507324,5.67590394821167
1789799507415615200,2.434615234375,-4.646846147155761,-0.9021651130676269,7.376385677337646
1789799507425586200,2.444586181640625,-2.4341549003601073,-1.7845780624389647,8.44045867767334
1789799507435557400,2.454557373046875,-1.0398317085266113,-2.5679309181213377,10.530896002197265
1789799507445529300,2.464529296875,-1.7899650161743164,-3.231723328399658,7.953537915039062
1789799507455500300,2.474500244140625,-0.7487865692138671,-3.8597523513793943,7.060201420593262
1789799507465471200,2.48447119140625,0.5642834037780762,-4.491971227264404,9.21213980026245
1789799507475443500,2.494443359375,0.5078700271606446,-5.840505312347411,11.210101085662842
1789799507485414100,2.5044140625,0.6718728408813476,-7.464073313140869,11.07123738937378
1789799507495385000,2.514385009765625,1.131260284423828,-8.990526509094238,10.37392615585327
1789799507505357800,2.52435791015625,1.0787374855041503,-9.689184481048583,11.174038423156738
1789799507515328800,2.534328857421875,0.32351649932861326,-9.41744259262085,13.641113596343994
1789799507525299500,2.544299560546875,0.36930560607910157,-9.951648838043212,14.861258617401122
1789799507535271700,2.554271728515625,1.2161048057556152,-9.69741454925537,15.650447339630126
1789799507545242600,2.56424267578125,1.719934617614746,-8.623764742279052,14.266898055267333
1789799507555214600,2.574214599609375,0.35658640975952144,-9.194931475830078,9.861417362976074
1789799507565185500,2.584185546875,-0.39668928756713867,-8.47128402404785,10.078541526031493
1789799507575156700,2.59415673828125,-1.1252747802734375,-7.484124752044678,10.141538957214355
1789799507585128400,2.60412841796875,-1.3688847991943358,-5.172672686767577,8.95610986022949
1789799507595099600,2.614099609375,-0.9762357269287109,-2.8502970764160156,6.589890431976318
1789799507605070600,2.624070556640625,1.1682207725524902,-1.159392153930664,5.708225670623779
1789799507615042600,2.63404248046875,0.23552958831787107,0.37409400939941406,7.053318090820312
1789799507625013500,2.644013427734375,-0.8681973770141601,-0.41105449752807616,6.489483599853515
1789799507634984700,2.653984619140625,-1.6497545814514158,-2.6467899353027344,5.644031138610839
1789799507644956700,2.663956787109375,-1.1116577583312988,-3.9290345619201656,5.500977589416504
1789799507654927600,2.673927734375,-0.4514566505432129,-3.624522038269043,6.007051965332031
1789799507664898600,2.683898681640625,-0.8876502655029296,-3.2486323776245114,5.633257231140137
1789799507674870800,2.693870849609375,-1.022174471282959,-3.7722143531799315,4.77568412399292
1789799507684841700,2.703841796875,-1.5969325073242187,-3.8723219100952146,5.595398917388915
1789799507694812700,2.713812744140625,-2.281075631713867,-2.5968109756469726,7.343166129302978
1789799507704784600,2.72378466796875,-2.039859814453125,-2.20909994430542,7.5716627502441405
1789799507714755800,2.733755859375,-0.17298106994628906,-3.2330700668334957,4.94193150177002
1789799507724726800,2.743726806640625,0.4445733207702636,-4.318391606903076,2.8930934310913083
1789799507734698800,2.75369873046875,-1.037437506866455,-3.8467338798522945,3.899555953979492
1789799507744669700,2.763669677734375,-1.694346587371826,-3.2890345306396482,5.262305611419677
1789799507754640600,2.773640625,-1.5927426544189451,-0.030825346374511717,6.877194631195068
1789799507764612600,2.783612548828125,-0.9412205276489257,20.02151138305664,8.550741591644286
1789799507774583600,2.79358349609375,-0.4150947128295898,7.6856866043090815,7.299172673797607
1789799507784554800,2.8035546875,-0.9995791931152344,3.546411209106445,9.77492682800293
1789799507794526500,2.8135263671875,-2.6713305023193357,6.525246987152099,9.538798689270019
1789799507804497700,2.82349755859375,-2.627636322021484,5.042039058685303,8.220790675354003
1789799507814468600,2.833468505859375,-3.2531215057373046,2.5623943267822265,8.239046463012695
1789799507824440800,2.84344091796875,-1.5701473762512206,1.2026374214172362,7.981520146942138
1789799507834411500,2.85341162109375,-0.00987608184814453,-0.9430161788940429,8.411428982543946
1789799507844382700,2.8633828125,-1.342698218536377,-1.2469301521301268,8.377012333679199
1789799507854354700,2.873354736328125,-3.877409588623047,-3.681982878112793,7.029675349426269
1789799507864326000,2.883325927734375,-1.2388497215270995,-4.02824429321289,7.467514978027343
1789799507874296600,2.893296630859375,-0.5952583877563477,-4.632780212402343,7.7890861885070795
1789799507884268800,2.903268798828125,-1.0797849487304687,-10.67454810180664,6.153397541809082
1789799507894239700,2.91323974609375,-0.821061531829834,-12.575244944763183,6.859238118743896
1789799507904210700,2.923210693359375,4.9723079353332515,-20.409372052001952,5.475239921569824
1789799507914182700,2.9331826171875,5.434089580535888,-30.114567756652832,3.7933132553100584
1789799507924153600,2.943153564453125,-3.0558991439819336,-24.966285999298094,2.2655133209228513
1789799507934125600,2.95312548828125,-3.558831130218506,-13.181576515197753,4.022707701873779
1789799507944096500,2.963096435546875,-0.5681739814758301,-11.824662724304199,8.022820125579834
1789799507954067700,2.973067626953125,0.1379658706665039,-12.929886065673827,9.172635472869873
1789799507964039700,2.983039794921875,1.7106570861816406,-10.518326443481445,8.5034561088562
1789799507974010600,2.9930107421875,1.87061968460083,-9.815478618621826,7.250690090179443
1789799507983981600,3.002981689453125,-0.00852934341430664,-9.100959060668945,7.808688714599609
1789799507993953800,3.012953857421875,-1.1528080993652343,-8.273163836669921,8.048857068634033
1789799508003924700,3.0229248046875,-1.2515689178466796,-7.021894194030761,7.675511247253418
1789799508013895700,3.032895751953125,0.3520972816467285,-6.8970964324951165,7.600393170166015
1789799508023867600,3.04286767578125,1.9806033233642577,-5.886444056701659,8.351424303436279
1789799508033838800,3.0528388671875,2.2158336364746094,-4.691138877868652,8.85495484008789
1789799508043809500,3.0628095703125,-0.042646717071533204,-4.029591031646729,9.457395832824707
1789799508053781800,3.07278173828125,-2.0260931549072265,-3.4783260993957517,10.249876582336425
1789799508063752700,3.082752685546875,-1.412279704284668,-3.7663784866333008,10.711358952331542
1789799508073723600,3.0927236328125,0.10609306106567382,-5.852476320648193,10.864138945770263
1789799508083695600,3.102695556640625,0.39264907226562495,-8.38329711303711,10.582670613098143
1789799508093666600,3.11266650390625,0.7945756759643554,-9.261969122314452,10.518476081085204
1789799508103637800,3.1226376953125,0.9992799179077148,-9.307010041046142,10.214113195037841
1789799508113609500,3.132609375,1.2080243751525879,-9.31479119644165,9.028384822845458
1789799508123580700,3.14258056640625,0.5211877738952636,-8.87994431991577,7.745541645812988
1789799508133551600,3.152551513671875,0.7193079612731933,-8.482506844329833,5.864746604156494
1789799508143523600,3.162523681640625,0.5829881042480468,-7.76319888305664,4.836586628723144
1789799508153494500,3.17249462890625,0.09382277755737305,-6.966528280639648,5.232677365875244
1789799508163465700,3.1824658203125,-0.26216508178710934,-6.235847861480712,6.327426074981689
1789799508173437700,3.192437744140625,-0.3277063522338867,-6.0716954101562495,7.762001782226562
1789799508183408600,3.20240869140625,0.26051906814575193,-6.85025986251831,8.795099798583983
1789799508193379600,3.212379638671875,0.5668272430419922,-8.247875081634522,9.603591771697998
1789799508203351800,3.222351806640625,0.7480383811950683,-9.326313291931152,9.918728565216064
1789799508213322800,3.23232275390625,0.9346364730834961,-9.502287113952637,9.4098110748291
1789799508223293400,3.24229345703125,0.48677112503051756,-8.920196835327149,8.991274697113036
1789799508233265700,3.252265625,-0.6474819114685059,-8.179939609527587,9.452457791900635
1789799508243236600,3.262236572265625,-1.041926634979248,-8.191012792205811,9.546430207061768
1789799508253208600,3.27220849609375,-0.09995791931152344,-8.710105639648438,9.251195214843749
1789799508263179500,3.282179443359375,0.948702407836914,-9.26989991531372,9.31419264602661
1789799508273150700,3.292150634765625,1.1526584617614746,-9.093926093292236,9.622296472167967
1789799508283122400,3.302122314453125,1.3953706550598144,-8.544905725097657,9.4481183013916
1789799508293093600,3.31209375,1.5394716674804687,-8.058284237670899,7.957877405548095
1789799508303064600,3.322064697265625,1.4175170204162597,-7.6559087211608885,5.8226984375
1789799508313036800,3.332036865234375,0.876577082824707,-7.428609201049804,4.5492824295043945
1789799508323007500,3.342007568359375,0.835726016998291,-7.200711130523681,5.01196190032959
1789799508332978700,3.351978759765625,1.7738041549682617,-7.834576020050048,5.517288088226318
1789799508342950700,3.36195068359375,2.4256255569458007,-8.929624004364014,5.227290412139892
1789799508352921600,3.371921630859375,1.0558429321289062,-8.884134172821044,5.606172824859619
1789799508362892500,3.381892578125,-0.519092847442627,-8.096741101837157,6.114491764831542
1789799508372864800,3.39186474609375,-1.0320505531311035,-7.439832021331787,6.212504395294189
1789799508382835700,3.401835693359375,-1.1782464920043945,-6.635230625915527,6.265326469421386
1789799508392806700,3.411806640625,-1.1222820281982422,-6.00151537399292,6.7673606300354
1789799508402778600,3.421778564453125,-1.1403881782531737,-5.6817398147583,7.347655257415771
1789799508412749800,3.431749755859375,-0.5837362922668456,-5.471798256683349,7.65456198272705
1789799508422720800,3.441720703125,0.2424129180908203,-5.576993492126465,7.784746697998046
1789799508432692700,3.451692626953125,0.9591770401000976,-5.934926640319824,7.74449418258667
1789799508442663700,3.46166357421875,1.3476362594604492,-6.393715533447265,7.375936764526367
1789799508452634600,3.471634521484375,1.2201450210571287,-6.904129399871826,7.315782447814941
1789799508462606600,3.481606689453125,0.6640916854858399,-7.179761865997314,8.07624075012207
1789799508472577500,3.49157763671875,-0.002992752075195312,-7.179761865997314,9.024494245147704
1789799508482548700,3.501548828125,-0.13946224670410157,-7.127388704681396,9.431209252166747
1789799508492520400,3.5115205078125,-0.1919850456237793,-7.02892716140747,8.960898263549804
1789799508502491600,3.52149169921875,-0.9841665199279784,-6.744017163848876,8.19131206741333
1789799508512463600,3.531463623046875,-1.9809025985717772,-6.325181510925293,8.106766821289062
1789799508522434600,3.5414345703125,-1.7784429206848142,-6.002413199615479,8.81649797592163
1789799508532405500,3.551405517578125,-1.1153986984252928,-5.866392617797851,9.98561657409668
1789799508542377500,3.56137744140625,-0.5505167442321777,-5.9588686569213865,10.61798508758545
1789799508552348400,3.571348388671875,-0.3559878593444824,-6.404639078521728,10.354024354553221
1789799508562319600,3.581319580078125,0.06718728408813476,-6.804171480560302,9.319579599761962
1789799508572291300,3.591291259765625,0.09696516723632811,-6.879888108062744,7.9928926048278806
1789799508582262500,3.601262451171875,-1.044470474243164,-7.078756483459472,8.036437147521973
1789799508592233500,3.6112333984375,-0.9380781379699706,-7.586327235412597,9.013121787261962
1789799508602205400,3.621205322265625,-0.1758241844177246,-8.203133438110351,9.699958388519287
1789799508612176400,3.63117626953125,-0.6311714126586914,-8.405593115997315,9.83882208480835
1789799508622147600,3.641147705078125,-1.4190133964538574,-8.15928962020874,9.100659785461426
1789799508632119300,3.651119384765625,-1.0778396598815918,-7.439083833312988,7.766191635131835
1789799508642090500,3.661090576171875,-0.4878185882568359,-6.492177076721191,7.021445281219482
1789799508652061400,3.6710615234375,-0.3821744400024414,-5.4601265235900875,7.193827800750732
1789799508662033700,3.68103369140625,-0.9060556907653808,-4.688295763397217,8.129511737060547
1789799508672004400,3.69100439453125,-0.8456020988464354,-4.402637577819824,8.977208762359618
1789799508681975600,3.7009755859375,-0.5572504364013672,-4.733037406921387,9.259275645446778
1789799508691947500,3.710947509765625,-0.654365241241455,-5.293579870605469,9.179668440246582
1789799508701918700,3.720918701171875,-0.848445213317871,-5.851428857421874,9.109638041687012
1789799508711889400,3.730889404296875,-0.611568886566162,-5.870432833099365,8.997260201263428
1789799508721861600,3.740861572265625,-0.43185412445068355,-5.3001639251708985,9.466374089050293
1789799508731832600,3.75083251953125,-0.6739677673339843,-5.079149184417724,9.415347666168213
1789799508741803500,3.760803466796875,-0.4752490295410156,-5.282955600738525,8.565256439208984
1789799508751775500,3.770775390625,0.3859153800964355,-4.965125330352783,6.341043096923828
1789799508761746400,3.780746337890625,0.3633201019287109,-4.241627516174316,5.95018967590332
1789799508771718400,3.790718505859375,0.3742436470031738,-3.967790701293945,5.0023850936889644
1789799508781689300,3.800689453125,0.08559270935058594,-3.5926492286682126,4.165611613464355
1789799508791660500,3.81066064453125,1.0194809944152832,-2.89204596786499,4.480449131774902
1789799508801632500,3.820632568359375,1.801636749267578,-2.0937293518066404,5.258265396118164
1789799508811603500,3.830603515625,1.3034931663513183,-1.898003366088867,5.551106186676025
1789799508821574400,3.840574462890625,0.2166752502441406,-1.8990508293151855,6.359747797393799
1789799508831546600,3.850546630859375,-1.951723265838623,-2.174533657836914,8.346635900115967
1789799508841517600,3.860517578125,-2.9583354263305663,-3.3637036949157713,8.52904413909912
1789799508851488500,3.870488525390625,-2.273444113922119,-4.439897341156006,7.827842327880859
1789799508861460500,3.88046044921875,-1.708412522125244,-4.563647639465332,7.175123100280762
1789799508871431700,3.890431640625,-1.5596727439880371,-4.145709812164307,6.3986535743713375
1789799508881402400,3.90040234375,-1.0510545288085937,-3.552695988464355,6.204723239898681
1789799508891374600,3.91037451171875,-0.8631096984863281,-2.548627667236328,6.04580810470581
1789799508901345500,3.920345458984375,-1.064821188354492,-1.2357073318481444,6.342539472961425
1789799508911316500,3.93031640625,-1.0128969398498535,-1.0862193656921386,6.218040986633301
1789799508921288400,3.940288330078125,-1.243039574432373,-2.01112939453125,5.680692351531982
1789799508931259400,3.95025927734375,-1.183034895324707,-2.4733599525451657,5.336974775695801
1789799508941230600,3.960230712890625,-1.4010568840026854,-1.986139914703369,6.087706633758544
1789799508951202300,3.970202392578125,-1.0609306106567382,-2.032677209472656,5.840505312347411
1789799508961173500,3.980173583984375,-1.211765315246582,-2.4601918434143064,4.208557605743408
1789799508971145500,3.9901455078125,-1.0996867500305174,-2.195482922363281,4.189254354858398
1789799508981116400,4.000116455078125,-1.378311968231201,-1.7953519699096678,5.127631768035888
1789799508991087400,4.01008740234375,-1.3244424308776854,-1.7993921852111816,5.6940100982666015
1789799509001059600,4.0200595703125,-0.6138134506225585,-2.301575983428955,5.641038386535644
1789799509011030500,4.030030517578125,-0.55545478515625,-2.8725930793762204,5.995529869842529
1789799509021001500,4.04000146484375,-1.3102268585205077,-3.2812533752441406,6.991368122863769
1789799509030973400,4.049973388671875,-1.7860744384765623,-3.9906852546691893,7.038503968048095
1789799509040944600,4.059944580078125,-1.1125555839538575,-5.04338579711914,5.903652381134033
1789799509050915600,4.06991552734375,-0.5140051689147949,-5.947645836639404,6.104466045379638
1789799509060887600,4.079887451171875,-1.7254712089538573,-5.962160684204101,9.585036708831787
1789799509070858500,4.0898583984375,-2.267608247375488,-6.004358488464355,12.460772177886962
1789799509080829400,4.099829345703125,-1.0537480056762694,-6.2493152458190915,13.388375683593749
1789799509090801400,4.109801513671875,-1.341351480102539,-7.632415617370605,11.688193229675292
1789799509100772400,4.1197724609375,-0.9112930068969726,-8.804676605224609,9.737517427062988
1789799509110743600,4.12974365234375,-0.5717652839660644,-8.581267662811278,8.555978907775879
1789799509120715300,4.13971533203125,-0.7426514274597168,-7.3080012924194335,7.458985634613037
1789799509130686500,4.1496865234375,-0.3767874862670898,-5.915324114227294,5.8728270347595215
1789799509140657400,4.159657470703125,-0.44158056869506834,-5.017199216461181,4.792892448425293
1789799509150629600,4.169629638671875,-0.738012661743164,-4.477306742095947,5.255571919250488
1789799509160600300,4.179600341796875,-0.23657705154418943,-4.4762592788696285,7.194575988769531
1789799509170572500,4.189572509765625,0.5629366653442383,-5.654056858062744,8.456020988464354
1789799509180543500,4.19954345703125,1.4522329444885254,-7.451354116821289,8.51707313079834
1789799509190514700,4.2095146484375,1.8462287551879881,-9.124601802062987,8.294861289215087
1789799509200486400,4.219486328125,0.7230489013671875,-10.02946039199829,8.493131114196776
1789799509210457600,4.22945751953125,-0.6718728408813476,-10.061931752014159,8.80422769241333
1789799509220428500,4.239428466796875,-0.8780734588623046,-8.49672241668701,8.442852879333495
1789799509230400500,4.249400390625,-0.23448212509155272,-6.509684676361084,7.230788288879394
1789799509240371500,4.259371337890625,-0.2841618095397949,-5.330091445922851,6.2952539901733395
1789799509250342700,4.2693427734375,-0.3500023551940918,-5.2365679435729975,5.901108541870117
1789799509260314400,4.279314453125,-0.10863690032958984,-6.159383045959473,5.779153894805908
1789799509270285600,4.28928564453125,0.18689736709594726,-7.251587915802001,7.090428216552734
1789799509280256500,4.299256591796875,0.8167220413208007,-7.755417727661133,8.980201514434814
1789799509290228500,4.309228515625,0.653766690826416,-7.7136688362121575,8.978256225585938
1789799509300199400,4.319199462890625,-0.30630817489624024,-7.47574504623413,8.650849148559569
1789799509310170400,4.32917041015625,-1.1745055519104004,-7.660098574066161,8.358157995605469
1789799509320142600,4.339142578125,-1.9843442634582518,-8.304887008666991,8.884283810424805
1789799509330113500,4.349113525390625,-1.875707363128662,-9.937582903289794,10.192415742492676
1789799509340084500,4.35908447265625,1.2229881355285643,-12.274323723602294,11.490521955108642
1789799509350056400,4.369056396484375,3.621080373382568,-12.950236779785156,11.470470516204834
1789799509360027600,4.379027587890625,2.3617303001403807,-10.84049620437622,10.094552749633788
1789799509369999400,4.388999267578125,0.08065466842651367,-8.75320126953125,8.106467546081543
1789799509379970600,4.398970458984375,-1.641374875640869,-7.549366747283935,7.397634217071532
1789799509389941500,4.40894140625,-1.8376994117736816,-6.70346537322998,6.609492958068847
1789799509399913500,4.41891357421875,-0.7345709968566894,-6.2858268211364745,5.36286208114624
1789799509409884400,4.428884521484375,-0.809539436340332,-5.985504150390625,5.5090580200195305
1789799509419855600,4.438855712890625,-1.2568062339782715,-6.050895783233642,6.413168421936035
1789799509429827300,4.448827392578125,-1.2074258247375487,-6.5505357421875,7.609521063995361
1789799509439798500,4.458798583984375,0.02483984222412109,-7.042544183349609,8.182034535980224
1789799509449769500,4.46876953125,1.5056535690307615,-7.388057410430908,7.822305736541748
1789799509459741700,4.47874169921875,2.5381530349731443,-7.652467056274413,6.78022946395874
1789799509469712400,4.48871240234375,2.083703632354736,-7.960421244812011,6.307075360870361
1789799509479683300,4.498683349609375,0.429011009979248,-8.422202890014647,7.724442743682861
1789799509489655600,4.508655517578125,-0.594959112548828,-8.708609263610839,9.989806427001952
1789799509499626500,4.51862646484375,0.009277531433105468,-9.197624952697753,10.216208121490478
1789799509509597200,4.52859716796875,1.9393033447265624,-9.455001631164551,8.731354179382324
1789799509519569000,4.53856884765625,2.2010195137023922,-8.890568589782715,7.395988203430175
1789799509529540000,4.5485400390625,0.10953472595214843,-7.753921351623535,7.338078450775146
1789799509539511000,4.558510986328125,-0.7941267631530762,-7.060351058197021,6.842179431915283
1789799509549483000,4.56848291015625,-0.042646717071533204,-7.089829666137695,5.894823762512207
1789799509559454000,4.578453857421875,0.11552023010253906,-7.26550421295166,5.212027376556396
1789799509569426200,4.58842626953125,-1.0149918663024902,-7.240664370727538,5.167734645843505
1789799509579396900,4.59839697265625,-1.4661492416381836,-7.073070254516601,5.610512315368652
1789799509589368000,4.6083681640625,-0.8417115211486816,-7.038952880859375,6.040421150970459
1789799509599340000,4.618340087890625,-0.19961656341552733,-6.994061599731445,6.907271789550781
1789799509609311000,4.62831103515625,0.3012204963684082,-7.043292371368408,7.8155720443725585
1789799509619282000,4.638281982421875,1.285835929107666,-7.078457208251953,8.365789513397216
1789799509629254100,4.648254150390625,1.556380716705322,-7.033416289520264,8.58770207977295
1789799509639225000,4.65822509765625,0.3404255485534668,-6.987327907562255,8.28079535446167
1789799509649196000,4.668196044921875,-0.9750386260986328,-7.18200643005371,7.239018357086181
1789799509659168000,4.67816796875,-1.1985972061157226,-6.938994961547851,7.255179218292236
1789799509669139000,4.688138916015625,-0.8810662109374999,-6.366182214355469,8.255506599426269
1789799509679110100,4.698110107421875,-0.812083275604248,-5.595398917388915,9.437793306732177
1789799509689081900,4.708081787109375,-0.9778817405700683,-5.252878442382812,9.925761532592773
1789799509699053000,4.718052978515625,-1.0115502014160156,-5.083039762115479,10.040084661865233
1789799509709024000,4.72802392578125,-0.7369651985168456,-4.986822782897949,9.918130014801024
1789799509718996000,4.737995849609375,-0.48617257461547847,-5.174019425201416,9.625738137054443
1789799509728967000,4.747966796875,-0.39594109954833984,-5.589413413238525,9.790638776397705
1789799509738938000,4.757938232421875,-0.15696984634399413,-6.024409927368164,10.186729513549803
1789799509748909800,4.767909912109375,0.37394437179565426,-6.592284633636474,9.484480239105224
1789799509758881000,4.777881103515625,-0.025139117431640625,-6.830358061218261,8.250418920898436
1789799509768853000,4.78785302734375,-0.8143278396606445,-6.617423751068115,8.432228609466552
1789799509778824200,4.79782421875,-0.9856628959655761,-6.4661401336669915,9.51949543838501
1789799509788795000,4.807794921875,-0.7846995941162109,-6.602459990692139,10.237905574035643
1789799509798767000,4.81776708984375,-0.9050082275390624,-6.721721160888672,10.095151300048828
1789799509808738000,4.827738037109375,-1.2406453727722166,-6.8870707130432125,9.357288275909424
1789799509818709000,4.837708984375,-1.2906243324279785,-7.091026766967773,8.06322227859497
1789799509828681000,4.847680908203125,-0.5458779785156249,-7.104045238494873,6.950816332244873
1789799509838652000,4.85765185546875,0.4483142608642578,-6.932560544586181,6.63986939163208
1789799509848623000,4.867623046875,0.7574655502319335,-6.484545558929443,7.307103466796875
1789799509858594800,4.8775947265625,0.22101474075317382,-5.577891317749023,9.002796792602538
1789799509868566000,4.88756591796875,-0.014664485168457031,-4.6604631690979,10.782287176513671
1789799509878537000,4.897536865234375,0.058657940673828124,-5.137657487487792,10.735600244140624
1789799509888509000,4.907509033203125,0.06958148574829101,-6.0051066764831535,10.002974536132811
1789799509898479900,4.91747998046875,0.47809214401245115,-5.793668742370605,9.07267755355835
1789799509908451000,4.927451171875,0.3625719139099121,-4.675726204681396,7.649474304199218
1789799509918423000,4.937423095703125,-0.36631285400390623,-3.285443228149414,6.78007982635498
1789799509928394000,4.94739404296875,-0.19632453613281248,-3.595641980743408,5.93073678741455
1789799509938365000,4.957364990234375,0.015412673187255858,-4.675726204681396,4.646995784759521
1789799509948337200,4.967337158203125,-0.10908581314086914,-4.2500072219848635,3.7310640121459957
1789799509958308000,4.97730810546875,-0.7225999885559081,-2.50912333984375,3.9188592048645017
1789799509968280000,4.987280029296875,-0.1849520782470703,-1.033696566772461,4.192097469329834
1789799509978251000,4.9972509765625,1.458816999053955,-1.3531728507995604,3.538330778503418
1789799509988222000,5.007221923828125,1.6026187362670898,-2.3159411933898926,3.2990602500915527
1789799509998194000,5.01719384765625,0.323666136932373,-2.2896049751281735,4.648342523193359
1789799510008164900,5.027164794921875,-1.0835258888244628,-2.088192760467529,4.864119947814941
1789799510018136000,5.037135986328125,-1.3473369842529297,-3.0009821434020996,3.381211294555664
1789799510028107800,5.047107666015625,-0.9157821350097656,-3.8022915115356444,2.874987281036377
1789799510038079000,5.057078857421875,-0.6271311973571777,-3.1106665069580077,4.07956999130249
1789799510048050000,5.0670498046875,-0.565031591796875,-2.192789445495605,4.169352553558349
1789799510058022100,5.077022216796875,-1.0920552322387695,-1.9832968002319336,3.0383915443420406
1789799510067992800,5.086992919921875,-1.0881646545410155,-1.6133926437377928,2.6487352241516113
1789799510077964000,5.096964111328125,-0.7529764221191406,-1.1194389137268066,4.259135115814209
1789799510087936000,5.10693603515625,-1.2735656455993651,-0.7643488800048828,7.719953615570068
1789799510097907000,5.116906982421875,-1.5113397979736327,-1.5937901176452636,10.06163247680664
1789799510107878000,5.1268779296875,-1.4309844047546385,-3.097648035430908,11.164611254119873
1789799510117850000,5.13685009765625,-1.9749170944213865,-4.170549654388427,11.80999823913574
1789799510127821000,5.146821044921875,-2.3151930053710936,-5.361814617919921,11.675773308563231
1789799510137792000,5.1567919921875,-1.8947113388061523,-6.328772813415527,10.984597216796875
1789799510147764000,5.166763916015625,-1.4363713584899902,-6.85011022491455,10.278158089447022
1789799510157735000,5.17673486328125,-1.6823755790710448,-6.7930982978820795,10.032602781677246
1789799510167707000,5.186706787109375,-1.6199766983032227,-6.65902300491333,8.480711193084716
1789799510177678000,5.196677978515625,-0.780809016418457,-6.536769082641602,5.797858595275879
1789799510187649000,5.20664892578125,0.13482348098754882,-5.951536414337157,4.092887738037109
1789799510197621000,5.21662109375,0.06359598159790039,-4.874744217681885,4.357596659088134
1789799510207592000,5.226592041015625,-0.799962629699707,-3.7078701835632324,6.020070436859131
1789799510217563000,5.23656298828125,-1.2701239807128906,-3.272424756622314,6.5111810523986815
1789799510227535000,5.24653515625,-0.6868366012573242,-3.849128081512451,5.222801284027099
1789799510237505800,5.256505859375,-0.2620154441833496,-4.479252030944824,4.9360956352233885
1789799510247477000,5.26647705078125,-0.5500678314208984,-4.696525831604004,6.532130316925048
1789799510257449000,5.276448974609375,-2.033874310302734,-5.068524914550781,9.002796792602538
1789799510267420200,5.286420166015625,-1.8912696739196777,-6.37171880569458,8.96329246520996
1789799510277390800,5.296390869140625,-0.13602058181762694,-7.439832021331787,8.06307264099121
1789799510287363000,5.306363037109375,0.08454524612426757,-7.774571340942383,8.030451643371581
1789799510297334000,5.316333984375,-0.38247371520996093,-7.711124996948242,8.061576264953613
1789799510307305200,5.32630517578125,-0.4382885414123535,-7.586925785827637,8.0062103515625
1789799510317277000,5.33627685546875,-0.01840542526245117,-7.266252400970458,8.040327725219726
1789799510327248100,5.346248046875,0.4390367294311523,-6.799682352447509,7.940818718719482
1789799510337219000,5.356218994140625,0.2690484115600586,-6.660669018554687,7.996783182525634
1789799510347191000,5.36619091796875,0.11028291397094726,-6.900837372589111,8.576628897094727
1789799510357162000,5.376161865234375,0.8500912269592285,-7.4880153297424314,9.490465743255614
1789799510367133000,5.3861328125,1.2271779884338379,-8.418611587524413,9.996390481567381
1789799510377105000,5.39610498046875,0.6661866119384765,-9.022848231506346,10.158298368835448
1789799510387075800,5.406075927734375,-0.05327098693847656,-9.629778352355956,10.40639751586914
1789799510397048000,5.416048095703125,-0.40671500701904295,-10.372729055023193,11.598709942626952
1789799510407019000,5.42601904296875,-0.26216508178710934,-11.00060844039917,12.707973499298095
1789799510416990000,5.435989990234375,0.030974983978271482,-11.005995394134521,12.483966006469727
1789799510426962000,5.4459619140625,0.7453449043273925,-9.925911170196533,12.03415536956787
1789799510436933000,5.45593310546875,0.6046855567932129,-8.890269314575194,11.27474453048706
1789799510446904000,5.465904052734375,0.7366659233093261,-8.128164998626708,10.091111084747315
1789799510456876000,5.4758759765625,1.1622352684020996,-7.816020957183837,8.935908783721922
1789799510466847000,5.485846923828125,0.9307458953857422,-7.874379622650146,7.80809016418457
1789799510476818200,5.495818115234375,0.7778162643432617,-7.811531829071044,6.940640975189209
1789799510486790000,5.505789794921875,1.0791863983154297,-7.446565713500976,6.120776544189453
1789799510496761000,5.515760986328125,0.852934341430664,-6.90158556060791,5.798157870483398
1789799510506732000,5.52573193359375,-0.01750759963989258,-6.331017377471923,6.201730487823486
1789799510516704500,5.53570458984375,-0.313490779876709,-5.955127716827392,6.32667788696289
1789799510526675700,5.54567578125,0.01227028350830078,-5.616048906707763,5.884498767852783
1789799510536646700,5.555646728515625,0.7074865905761718,-5.319167900848388,5.036203192138672
1789799510546618600,5.56561865234375,-0.005087678527832031,-5.249137502288818,5.179855291748047
1789799510556589600,5.575589599609375,-0.015263035583496093,-5.4524950057983395,5.183147319030762
1789799510566560500,5.585560546875,0.29493571701049803,-6.310068112945556,5.015104290008544
1789799510576532500,5.595532470703125,-0.303913973236084,-7.058555406951904,6.117484516906738
1789799510586503400,5.60550341796875,-0.8400655075073241,-7.879018388366699,7.960271607208251
1789799510596475600,5.6154755859375,-0.08664017257690429,-8.84208600616455,9.55106897277832
1789799510606446600,5.625446533203125,1.338807640838623,-9.41011035003662,10.792761808776854
1789799510616417500,5.63541748046875,1.7987936347961424,-9.43644656829834,11.819126132965087
1789799510626389500,5.645389404296875,0.8117840003967285,-9.091681529235839,12.581529724121093
1789799510636360700,5.655360595703125,0.21443068618774414,-8.601618376922607,11.909956158447265
1789799510646331600,5.66533154296875,0.2953846298217773,-8.213458432769775,9.720458740234374
1789799510656303600,5.6753037109375,0.15532383270263672,-7.932738288116455,7.580341731262207
1789799510666274600,5.685274658203125,-0.5038298118591308,-7.7884876380920405,6.629394759368896
1789799510676245800,5.695245849609375,-1.6684592819213866,-7.473799757385254,6.798185976409911
1789799510686217500,5.705217529296875,-1.3956699302673339,-7.477391059875488,7.14444739151001
1789799510696188700,5.715188720703125,-0.07676409072875977,-7.833977469635009,7.3006690498352045
1789799510706159600,5.72515966796875,0.060902504730224606,-7.991096953582764,7.793724954223633
1789799510716131600,5.735131591796875,-0.3672106796264648,-7.931990100097655,8.531737615966797
1789799510726102500,5.7451025390625,-0.8987234481811522,-7.369203072357177,9.516652323913574
1789799510736073700,5.75507373046875,-0.5856815811157227,-6.6519900375366205,9.99788685760498
1789799510746045700,5.765045654296875,0.32920272827148434,-6.489034687042236,9.042001844787597
1789799510756016600,5.7750166015625,0.5060743759155273,-5.989394728088379,7.66728117904663
1789799510765987600,5.784987548828125,0.19602526092529296,-5.195417602539062,7.484872940063476
1789799510775959800,5.794959716796875,0.3226186737060547,-5.0942625823974605,7.3000704994201655
1789799510785930800,5.8049306640625,0.1649006393432617,-5.4789808616638185,7.334038235473632
1789799510795901400,5.8149013671875,-0.5952583877563477,-5.955277354431152,8.069058145141602
1789799510805873700,5.824873779296875,-0.0992097312927246,-6.92014062347412,7.943212920379638
1789799510815844600,5.8348447265625,0.5526116706848144,-7.341370478057861,7.3934443641662595
1789799510825815600,5.844815673828125,-0.117465518951416,-6.926275765228271,7.354239311981201
1789799510835787500,5.85478759765625,-0.6133645378112793,-6.06541063079834,8.687211086273193
1789799510845758700,5.8647587890625,-0.3633201019287109,-5.826140102386474,9.930549935913085
1789799510855730400,5.87473046875,-0.3859153800964355,-6.290016674041747,10.12522845840454
1789799510865701600,5.88470166015625,-0.9135375709533691,-6.656628803253174,9.527875144195557
1789799510875672600,5.894672607421875,-1.3772645050048826,-6.48589229736328,9.396044415283203
1789799510885644800,5.904644775390625,-1.0090063621520995,-6.025008477783203,9.725995331573486
1789799510895615500,5.914615478515625,-0.38890813217163084,-5.805939025878906,9.772083713531494
1789799510905586700,5.924586669921875,0.03067570877075195,-5.857115086364746,9.982174909210205
1789799510915558700,5.93455859375,-0.023642741394042967,-6.159383045959473,10.442011265563965
1789799510925529600,5.944529541015625,-0.27174188842773433,-6.767959180450439,10.51383731536865
1789799510935500500,5.95450048828125,-1.0359411308288573,-7.24635059967041,10.783933190155029
1789799510945472800,5.96447265625,-1.754351266479492,-7.180061141204834,10.255562811279296
1789799510955443700,5.974443603515625,-1.0108020133972166,-6.482001719665527,8.48400322036743
1789799510965414400,5.984414306640625,-0.042048166656494135,-5.642085849761963,5.837811835479736
1789799510975386600,5.99438671875,0.370951619720459,-5.3113867454528805,4.082562743377685
1789799510985357600,6.004357666015625,1.145326219177246,-5.387103372955322,3.343053705596924
1789799510995328800,6.014328857421875,1.4513351188659667,-3.8613983650207517,3.67719447479248
1789799511005300500,6.024300537109375,1.1531073745727538,-1.3949217422485352,5.324704492187499
1789799511015271700,6.034271728515625,1.2945149101257323,-0.32411504974365235,5.769277812957763
1789799511025242600,6.04424267578125,1.006163247680664,-1.2241852363586425,2.9267618919372556
1789799511035214600,6.054214599609375,0.11552023010253906,-0.3869628433227539,2.0700866104125977
1789799511045185500,6.064185546875,0.16460136413574217,0.7172130348205566,2.932298483276367
1789799511055156700,6.07415673828125,-0.136619132232666,-0.6485293746948242,2.5864859809875487
1789799511065128400,6.08412841796875,-0.9472060317993164,-3.2814030128479,1.595436131286621
1789799511075099600,6.094099609375,-1.051503441619873,-3.8347628715515136,2.691531578826904
1789799511085070600,6.104070556640625,0.06000467910766601,-2.6910826660156246,4.742614213562011
1789799511095042800,6.114042724609375,-0.505026912689209,-1.9633949989318846,6.150853702545166
1789799511105013500,6.124013427734375,-1.3608043685913085,-2.4343045379638673,6.508637213134765
1789799511114985700,6.13398583984375,-0.8970774345397948,-3.0358477050781247,5.4415714607238765
1789799511124956700,6.143956787109375,-1.1902175003051758,-3.0684687026977535,5.155613999938964
1789799511134927600,6.153927734375,-1.6183306846618652,-2.686593537902832,6.950816332244873
1789799511144899600,6.163899658203125,-1.677736813354492,-2.4527099632263183,9.27543650665283
1789799511154870500,6.17387060546875,-1.4657003288269042,-2.895936545562744,11.233594189453123
1789799511164841700,6.183841796875,-1.693748036956787,-3.949834188842773,11.578059953308104
1789799511174813400,6.1938134765625,-2.467524085998535,-4.896292032623291,10.337264942932128
1789799511184784600,6.20378466796875,-2.4144027366638183,-5.136161111450195,9.714173960876463
1789799511194755600,6.213755615234375,-1.8758570007324218,-5.199906730651855,9.866505041503906
1789799511204727600,6.2237275390625,-1.4827590156555175,-5.356876576995849,9.092130442047118
1789799511214698500,6.233698486328125,-1.0488099647521971,-5.43289247970581,7.595455129241943
1789799511224669700,6.243669677734375,-0.7299322311401367,-5.112368732452392,6.835595377349853
1789799511234641700,6.2536416015625,-0.8001122673034667,-4.591779508972167,6.71648384475708
1789799511244612600,6.263612548828125,-1.281945351409912,-4.16875400314331,6.383390538787841
1789799511254583600,6.27358349609375,-0.8237550086975097,-4.0167221977233885,4.651784188079834
1789799511264555800,6.2835556640625,0.7748235122680663,-4.16845472793579,1.690605647277832
1789799511274526700,6.293526611328125,1.2907739700317382,-3.9496845512390135,0.35673604736328124
1789799511284497400,6.303497314453125,0.6944681190490722,-2.9224224014282223,1.6240169136047362
1789799511294469600,6.3134697265625,-0.19018939437866209,-1.900696842956543,3.9160160903930663
1789799511304440600,6.323440673828125,-0.7091326042175292,-2.3184850326538085,5.186140071105957
1789799511314411500,6.33341162109375,-0.09950900650024413,-4.277839816284179,5.147234294128418
1789799511324383500,6.343383544921875,-0.06823474731445311,-6.25694676361084,6.223577577972412
1789799511334354700,6.353354736328125,-1.156249764251709,-7.361421916961669,9.447669388580321
1789799511344325600,6.36332568359375,-1.9674352142333984,-8.528595226287841,12.266542568206786
1789799511354297600,6.373297607421875,-1.1329062980651854,-10.702380696105957,13.3692220703125
1789799511364268500,6.3832685546875,0.10669161148071288,-12.425756978607177,13.874099345397948
1789799511374239700,6.39323974609375,0.31109657821655273,-12.09909808959961,14.101548503112792
1789799511384211500,6.40321142578125,0.014065934753417967,-9.791386964416503,13.546093717956543
1789799511394182700,6.4131826171875,-0.4976946701049804,-7.832630731201172,12.3219084815979
1789799511404154600,6.423154541015625,-0.3184288208007812,-6.976404362487792,10.90424182357788
1789799511414125600,6.43312548828125,0.020500351715087888,-6.810605897521972,9.65970587310791
1789799511424096500,6.443096435546875,0.10175357055664062,-6.870460939025879,8.815899425506592
1789799511434068700,6.45306884765625,0.7785644523620605,-7.3283520065307615,8.106766821289062
1789799511444039700,6.463039794921875,1.1888707618713379,-7.887248456573486,7.775319528961181
1789799511454010600,6.4730107421875,0.856824919128418,-8.40738876724243,7.867346655273437
1789799511463982600,6.482982666015625,0.6166565650939941,-8.979154051208496,7.970446964263916
1789799511473953800,6.492953857421875,1.2330138549804688,-9.398737892150878,8.395866671752929
1789799511483924700,6.5029248046875,1.720533168029785,-9.573065700531005,8.841337818145751
1789799511493896700,6.512896728515625,1.8091186294555663,-8.985438830566405,8.521262983703613
1789799511503867600,6.52286767578125,0.70868369140625,-7.60398447265625,8.61942525177002
1789799511513837800,6.532837890625,-0.08678981018066406,-6.1936500572204585,8.424447454071045
1789799511523809800,6.542809814453125,-0.05566518859863281,-5.120898075866699,7.804648499298096
1789799511533780700,6.55278076171875,-0.056712651824951166,-4.668543599700928,7.32910019454956
1789799511543752000,6.562751953125,-0.4445733207702636,-4.586093280029297,7.569268548583984
1789799511553724000,6.572723876953125,-0.5557540603637695,-5.031265151214599,8.359055821228027
1789799511563694800,6.58269482421875,0.009576806640625,-6.517166556549072,9.580996493530273
1789799511573665800,6.592665771484375,1.9069816223144531,-8.032845845031737,9.797522106170653
1789799511583638000,6.602637939453125,3.4014123710632322,-8.686911811065674,8.630199159240723
1789799511593609000,6.61260888671875,2.661604058074951,-8.760234236907959,7.8435542762756345
1789799511603580000,6.622579833984375,1.0423755477905272,-8.591443019866944,7.678803274536133
1789799511613551900,6.6325517578125,0.0056862289428710935,-8.514379653930664,7.932289375305175
1789799511623523000,6.642523193359375,-0.06599018325805664,-8.552088330078124,8.100182766723632
1789799511633494000,6.652493896484375,0.003591302490234375,-8.258200076293944,8.399308336639404
1789799511643466000,6.662466064453125,0.047884033203124995,-7.677606173706054,8.303390632629394
1789799511653437000,6.67243701171875,-0.280271231842041,-7.063044535064697,7.549516384887695
1789799511663407900,6.682407958984375,-0.7088333290100097,-6.519710395812988,6.599018325805663
1789799511673379800,6.6923798828125,-1.6373346603393553,-6.436511888122558,6.241833365631103
1789799511683350800,6.702350830078125,-2.185906115722656,-6.631340048217773,7.104494151306152
1789799511693322000,6.712322021484375,-1.5656582481384276,-7.253084291839599,8.489689449310303
1789799511703293700,6.722293701171875,-0.08125321884155273,-7.957278855133056,9.677363110351562
1789799511713265000,6.732264892578125,1.4050970993041991,-8.394819208526611,10.350881964874267
1789799511723235800,6.74223583984375,1.3971663063049315,-8.449586571502685,10.66871223526001
1789799511733208000,6.7522080078125,0.6310217750549316,-8.691101663970947,10.41298157043457
1789799511743178800,6.7621787109375,-0.44861353607177734,-9.003694618225097,9.727940620422363
1789799511753151000,6.77215087890625,-0.6907271789550781,-9.096769207763671,9.44213279724121
1789799511763122000,6.782121826171875,-0.40880993347167965,-8.958952974700928,9.687837742614745
1789799511773092900,6.7920927734375,0.00239420166015625,-8.665812908935546,10.056544798278807
1789799511783064800,6.80206494140625,-0.15846622238159178,-8.336161267852782,9.983521647644043
1789799511793036000,6.8120361328125,-0.5933130989074706,-8.003367237091064,9.687388829803465
1789799511803007000,6.822007080078125,-0.6091746849060058,-7.451803029632568,9.906159006500243
1789799511812979000,6.83197900390625,-0.22655133209228515,-6.585251666259765,10.574590182495117
1789799511822950000,6.841949951171875,-0.0848445213317871,-6.206369253540038,10.884040747070312
1789799511832920800,6.8519208984375,-0.1331774673461914,-5.985204875183105,11.306018789672851
1789799511842892800,6.861892822265625,-0.38531682968139647,-6.477362953948974,12.031162617492676
1789799511852863700,6.87186376953125,0.16609774017333984,-7.7587097549438475,12.50012686767578
1789799511862835000,6.8818349609375,0.7167641220092773,-9.099761959838867,11.591377700042724
1789799511872807000,6.891806884765625,0.5612906517028808,-9.209745598602295,9.915885450744629
1789799511882777900,6.90177783203125,0.9632172554016113,-7.472901931762695,8.653991538238525
1789799511892748800,6.911748779296875,1.0037690460205078,-5.527762720489502,7.427112825012206
1789799511902721000,6.921720947265625,0.6368576416015624,-5.111470906829834,6.507739387512206
1789799511912691700,6.931691650390625,0.6310217750549316,-5.109824893188477,6.113743576812744
1789799511922663000,6.941662841796875,0.4800374328613281,-4.690241052246093,5.997175883483886
1789799511932635000,6.951634765625,0.7200561492919921,-3.845985691833496,6.400299588012695
1789799511942606000,6.961606201171875,1.0773907470703123,-2.8101941986083983,7.837419134521484
1789799511952576800,6.97157666015625,2.141463747406006,-2.56000012512207,10.00491982498169
1789799511962549000,6.981549072265625,3.2398037590026854,-3.7925650672912594,11.65153201675415
1789799511972520000,6.99152001953125,1.770362490081787,-6.039074412536621,11.636119343566893
1789799511982491100,7.0014912109375,-2.290053887939453,-7.805995237731933,9.265560424804686
1789799511992462800,7.011462890625,-3.2234932601928707,-8.227524367523193,6.233902572631836
1789799512002434000,7.02143408203125,-2.0458453186035155,-7.659948936462402,4.219032238006592
1789799512012405000,7.031405029296875,-1.8938135131835936,-5.814618006896972,2.704998963165283
1789799512022377000,7.041376953125,-1.8854338073730468,-3.312677272033691,2.7213094619750975
1789799512032348000,7.051347900390625,-0.9790788414001464,-1.1534066497802733,3.1563059761047363
1789799512042318800,7.06131884765625,-0.20530279235839843,0.1632546257019043,3.500622102355957
1789799512052290800,7.071290771484375,0.42871173477172847,-0.6913257293701172,1.3913304397583006
1789799512062261800,7.08126171875,0.5966051261901855,-1.3314753982543945,-1.0085574493408203
1789799512072233000,7.09123291015625,-0.11387421646118163,0.1984194625854492,1.788917552947998
1789799512082205000,7.101204833984375,0.02902969512939453,0.6655880615234374,4.247014469909668
1789799512092176000,7.11117578125,-0.5606921012878417,-1.2292729148864745,2.256235789489746
1789799512102146800,7.121146728515625,-0.8542810798645019,-2.8758851066589353,0.8010100929260253
1789799512112119000,7.131119140625,0.1566705711364746,-3.5495535987854003,0.6299743118286133
1789799512122090000,7.141090087890625,-1.1354501373291015,-2.790591672515869,3.512144197845459
1789799512132061000,7.15106103515625,-3.0252234352111813,-1.8115128311157225,7.372345462036132
1789799512142033000,7.161032958984375,-2.6446950088500976,-3.2131682655334473,8.525602474212645
1789799512152004000,7.171004150390625,-0.6226420692443847,-5.431695378875732,7.002890218353271
1789799512161974800,7.180974853515625,0.4221276802062988,-4.819228666687011,5.728426747131348
1789799512171947000,7.190947021484375,-0.7556698989868164,-4.474313990020752,6.886921075439453
1789799512181918000,7.20091796875,-2.1766285842895505,-4.407276343536377,9.143605777740477
1789799512191889000,7.210888916015625,-2.36861362991333,-4.611531672668456,11.243919184112547
1789799512201860900,7.22086083984375,-0.936581761932373,-5.453392831420898,9.593566052246093
1789799512211831800,7.230831787109375,0.36361937713623044,-6.245574305725097,6.265925019836425
1789799512221803800,7.2408037109375,0.15906477279663084,-6.181529411315918,5.430348640441895
1789799512231774700,7.250774658203125,-0.4390367294311523,-5.261707061004638,7.1589622390747065
1789799512241746000,7.260745849609375,-1.387888774871826,-4.727650453186035,9.2956375831604
1789799512251718000,7.2707177734375,-0.8975263473510742,-5.506514180755615,8.51004016342163
1789799512261688800,7.280688720703125,-0.2680009483337402,-6.788010619354248,6.776039611053466
1789799512271659800,7.29065966796875,-0.5433341392517089,-7.472153743743896,6.875099704742431
1789799512281632000,7.300632080078125,-0.2572270408630371,-7.898770552062988,9.147945268249511
1789799512291603000,7.31060302734375,0.3119944038391113,-7.997531370544433,12.454188123321533
1789799512301574000,7.320573974609375,0.6177040283203125,-8.919598284912109,12.91567049331665
1789799512311545900,7.3305458984375,1.0178349807739258,-10.413430483245849,12.146383572387695
1789799512321517000,7.34051708984375,1.2720692695617675,-11.514015058898925,11.776180140686034
1789799512331488000,7.350488037109375,0.732326432800293,-10.993276197814941,11.537807437896728
1789799512341460000,7.3604599609375,-0.2563292152404785,-8.7716066947937,10.097844776916503
1789799512351431000,7.370430908203125,-0.3640682899475097,-6.574926671600341,9.160065914154051
1789799512361401900,7.38040185546875,-0.07272387542724609,-5.684882204437256,9.916484001159667
1789799512371373800,7.390373779296875,0.7682394577026367,-6.194098970031738,10.761038636779784
1789799512381344800,7.4003447265625,1.5456068092346191,-6.8590884811401365,10.383502962493896
1789799512391316000,7.41031591796875,1.990030492401123,-6.966229005432129,9.236231454467774
1789799512401287700,7.42028759765625,2.6165631393432616,-7.045237660217285,8.289623973083495
1789799512411259000,7.4302587890625,3.24294614868164,-7.66758045425415,7.637503295898437
1789799512421229800,7.440229736328125,3.2818519256591796,-7.981669784545898,7.203554244995117
1789799512431202000,7.4502021484375,1.9168577041625976,-7.815721681976318,6.535571981811523
1789799512441172700,7.4601728515625,-0.14185644836425781,-6.995258700561523,5.956025542449951
1789799512451144000,7.47014404296875,-1.660528488922119,-6.1267620483398435,6.704363198852539
1789799512461116000,7.480115966796875,-1.6466121917724608,-5.503970341491699,8.549544490814208
1789799512471087000,7.490087158203125,-0.19333178405761717,-5.644480051422119,8.875904104614257
1789799512481057800,7.500057861328125,0.7490858444213867,-6.723367174530029,8.076988938140868
1789799512491030000,7.510030029296875,0.18270751419067383,-7.832032180786133,8.155847955322265
1789799512501001000,7.5200009765625,-0.21877017669677734,-8.25565623703003,8.851513175201415
1789799512510973200,7.52997314453125,-1.8671780197143553,-8.596231423187255,10.282497579956054
1789799512520945200,7.539945068359375,-2.038513076019287,-8.93830298538208,11.699715325164794
1789799512530916000,7.549916015625,0.43200376205444335,-8.888772938537597,10.192864655303955
1789799512540887000,7.559886962890625,2.2596774543762206,-8.711153102874755,7.555950801849365
1789799512550859300,7.569859375,3.1325135971069336,-8.036736422729492,5.516689537811279
1789799512560830200,7.579830322265625,1.4903905334472656,-6.462997743988037,5.540631554412841
1789799512570801200,7.58980126953125,-0.17387889556884764,-5.251980616760253,5.804891562652587
1789799512580773000,7.599773193359375,0.0770633659362793,-5.129876332092285,4.940884038543701
1789799512590744300,7.609744384765625,1.0588356842041016,-5.978620820617675,3.797353470611572
1789799512600715300,7.61971533203125,1.0039186836242675,-7.192929975128173,3.414879755401611
1789799512610687200,7.629687255859375,-0.12659341278076172,-8.386140227508545,4.612579135894775
1789799512620658200,7.639658203125,-1.4832079284667967,-9.710881933593749,6.947374667358398
1789799512630629000,7.649629150390625,-0.8822633117675781,-10.52760397491455,9.963619846343994
1789799512640601000,7.65960107421875,0.9949404273986816,-10.261099402618408,12.050016955566406
1789799512650572000,7.669572021484375,1.8589479515075682,-9.16814634475708,13.022362104797363
1789799512660543200,7.679543212890625,1.9330185653686522,-8.462904318237305,10.890175888824462
1789799512670515000,7.689514892578125,0.8173205917358398,-7.641693148803711,7.860014412689209
1789799512680486100,7.699486083984375,-1.9629460861206054,-6.507140837097167,8.595782510375976
1789799512690457000,7.70945703125,-3.5148376747131347,-6.796091049957275,10.967388892364502
1789799512700429300,7.71942919921875,-2.0465935066223144,-7.761702507019042,13.480402809906005
1789799512710400000,7.72939990234375,0.16953940505981444,-7.627776851654052,14.930091915130614
1789799512720371200,7.73937109375,2.158672071838379,-7.565078695678711,10.911873341369628
1789799512730343200,7.74934326171875,1.7099088981628416,-7.0196496299743645,6.171952604675292
1789799512740314400,7.759314453125,-0.43634325256347656,-5.363310993957519,6.439504640197754
1789799512750285000,7.76928515625,-0.03127425918579101,-5.078400996398925,6.625504181671142
1789799512760257300,7.77925732421875,0.8895955543518066,-6.517316194152832,7.239167994689941
1789799512770228200,7.789228271484375,1.805377689361572,-8.241590302276611,8.352920679473877
1789799512780199200,7.79919921875,2.579901926422119,-9.708038819122313,9.817423907470703
1789799512790171100,7.809171142578125,2.7220576499938964,-10.666617308807373,9.818172095489501
1789799512800142000,7.81914208984375,1.8496704200744627,-10.169820464324951,8.662670519256592
1789799512810113300,7.82911328125,0.6347627151489258,-8.689754925537109,8.534730368041991
1789799512820085000,7.8390849609375,0.5728127471923827,-7.307103466796875,9.416694404602051
1789799512830056200,7.84905615234375,1.587804613494873,-6.202329038238525,10.181941110229491
1789799512840027100,7.859027099609375,2.3126491661071777,-4.963180041503906,11.315595596313475
1789799512849999000,7.8689990234375,0.8405144203186035,-3.985747213745117,11.948413022613524
1789799512859970000,7.878969970703125,-1.5964835945129394,-4.0918402748107905,10.29805989074707
1789799512869941200,7.888941162109375,-2.888305027770996,-4.815038813781738,7.44402187423706
1789799512879913200,7.898913330078125,-2.4178444015502927,-4.598662838745117,6.274753638458251
1789799512889884200,7.90888427734375,-0.47884033203125,-4.293252489471436,5.571157625579834
1789799512899855000,7.918855224609375,0.9006687370300293,-3.95806425704956,4.818480478668213
1789799512909827300,7.928827392578125,1.0173860679626465,-3.512742748260498,3.9255928970336913
1789799512919798000,7.938798095703125,0.31708208236694335,-3.2472856391906735,3.627514790344238
1789799512929769000,7.94876904296875,-0.7755717002868652,-3.4968811622619627,2.739415612030029
1789799512939741200,7.9587412109375,-0.6548141540527344,-3.9637504859924313,1.0755950958251952
1789799512949712100,7.968712158203125,0.8043021202087401,-3.42834713973999,0.05237316131591797
1789799512959683000,7.97868310546875,2.089539498901367,-1.9336171157836912,0.960224503326416
1789799512969655300,7.9886552734375,1.681028840637207,-0.030825346374511717,4.982932205200195
1789799512979626200,7.998626220703125,-0.9060556907653808,0.9060556907653808,11.974300328063965
1789799512989597200,8.00859716796875,-1.6476596549987792,-2.279728893280029,13.725509204864501
1789799512999569200,8.018569091796875,-1.5560814414978026,-6.174945356750488,11.47331363067627
1789799513009540000,8.0285400390625,-2.2946926536560057,-7.06753366317749,9.387515071868895
1789799513019511300,8.03851123046875,-2.5936685859680173,-6.681019732666015,6.93929423675537
1789799513029483000,8.04848291015625,-1.9149124153137207,-5.7968111320495606,5.70164161605835
1789799513039454200,8.0584541015625,-0.8770259956359863,-3.766079211425781,6.949020680999755
1789799513049425200,8.068425048828125,-0.35523967132568357,-2.1136311531066894,8.464101419067383
1789799513059397000,8.078397216796875,-0.8309376136779785,-1.4592659118652342,8.457068451690674
1789799513069368000,8.0883681640625,-1.4012065216064453,-1.7917606674194335,6.493972727966308
1789799513079339300,8.09833935546875,-0.8514379653930664,-2.3886650688171387,3.7894226776123046
1789799513089311200,8.108311279296874,-0.017956512451171875,-2.433257074737549,1.663670878601074
1789799513099282200,8.1182822265625,0.42108021697998044,-1.9228432083129883,0.4125508735656738
1789799513109253000,8.128253173828124,0.3006219459533691,-1.3245920684814452,-0.5777507881164551
1789799513119225300,8.138225341796876,-0.405368268585205,-0.5521627578735351,0.17073650588989256
1789799513129196300,8.1481962890625,-0.5207388610839844,0.29837738189697266,1.8136077575683593
1789799513139167000,8.1581669921875,-0.3520972816467285,0.2905962265014648,2.1007623191833495
1789799513149138200,8.16813818359375,0.6389525680541992,-0.5520131202697753,1.3851952980041502
1789799513159110100,8.178110107421874,0.9427169036865234,-1.6558897232055663,2.1467010635375976
1789799513169081000,8.1880810546875,0.3507505432128906,-2.751087345123291,5.943156708526611
1789799513179052000,8.198052001953124,0.05431845016479492,-4.414309310913086,9.182361917114257
1789799513189024300,8.208024169921876,-0.45594577865600583,-6.411971321105956,11.56264728012085
1789799513198995200,8.2179951171875,-0.2050035171508789,-9.712378309631347,12.14294190750122
1789799513208966100,8.227966064453126,0.520289948272705,-13.160477613067625,12.758251734161377
1789799513218938000,8.237938232421875,0.4346972389221191,-14.551209502410888,14.520683431243896
1789799513228909300,8.247909423828125,0.543932689666748,-13.639617220306397,14.131775299072265
1789799513238880300,8.25788037109375,1.1736077262878417,-12.027870590209961,11.938985853576659
1789799513248852200,8.267852294921875,1.6766893501281737,-10.924293262481688,9.998784683227539
1789799513258823200,8.2778232421875,0.7230489013671875,-10.115053101348876,10.780940438079833
1789799513268794000,8.287794189453125,-0.3345896820068359,-9.835081144714355,13.229310910797118
1789799513278766000,8.29776611328125,0.2651578338623047,-10.178050532531739,13.825616761779784
1789799513288737000,8.307737060546875,0.960823053741455,-9.824007962036132,12.237961785888672
1789799513298708200,8.317708251953125,0.7249941902160644,-8.51632494277954,10.64357311782837
1789799513308680000,8.327679931640626,0.7793126403808593,-6.870460939025879,9.706243167877197
1789799513318651100,8.337651123046875,0.9243114784240722,-5.279513935852051,9.122207600402831
1789799513328622000,8.3476220703125,0.10489596023559569,-4.224718466949462,8.375366320037841
1789799513338594300,8.35759423828125,-0.7058405769348144,-3.4057518615722655,7.228992637634277
1789799513348565000,8.36756494140625,0.10564414825439453,-2.8886043029785156,5.54811343460083
1789799513358536200,8.3775361328125,0.778265177154541,-2.824409770965576,4.2509050476074215
1789799513368508200,8.387508056640625,0.675464143371582,-3.407846788024902,3.465606903076172
1789799513378479400,8.397479248046874,0.19183540802001953,-4.616918626403808,3.3580174659729
1789799513388450000,8.407449951171875,0.8988730857849121,-6.3429883857727045,4.215590573120117
1789799513398422300,8.41742236328125,1.8168997848510742,-7.785943798828124,6.616525925445556
1789799513408393200,8.427393310546876,0.8921393936157226,-8.89281315383911,7.962067258453368
1789799513418364200,8.4373642578125,-0.2784755805969238,-9.324368003082276,8.431181146240235
1789799513428336000,8.447336181640624,-0.967856021118164,-8.655637551879883,9.4105592628479
1789799513438307000,8.45730712890625,0.07032967376708985,-7.7967177062988275,8.933514582061767
1789799513448278300,8.4672783203125,-0.24211364288330076,-7.434893980407715,9.05307502746582
1789799513458250000,8.47725,-1.3768155921936034,-7.197718378448486,10.200945085906982
1789799513468221200,8.48722119140625,-2.083703632354736,-7.931690824890136,11.95813946685791
1789799513478192000,8.497192138671876,0.01945288848876953,-9.095572106933593,12.898462168884276
1789799513488164000,8.5071640625,3.210025875854492,-9.107992028045654,11.615020441436767
1789799513498135000,8.517135009765624,4.917091659545898,-9.061754008483886,8.737788596343993
1789799513508106200,8.527106201171875,2.2104466827392577,-8.702324484252928,7.811531829071044
1789799513518078200,8.537078125,-1.2770073104858397,-8.100482041931151,7.87782128753662
1789799513528049000,8.547048828125,-1.9520225410461425,-8.205826914978028,7.024138758087158
1789799513538019800,8.557019775390625,-1.2928688964843749,-8.498966980743408,6.227468155670166
1789799513547992000,8.566991943359374,-0.2507926239013672,-8.356511981964111,5.822997712707519
1789799513557963000,8.576962890625,0.9003694618225098,-8.329128300476073,5.167734645843505
1789799513567934000,8.586933837890625,0.09711480484008789,-8.634389012145995,5.717054289245605
1789799513577905000,8.59690478515625,-1.6699556579589843,-9.2826191116333,7.725939119720459
1789799513587877000,8.606877197265625,-2.15777424621582,-10.302698656463622,9.930998848724364
1789799513597848000,8.61684814453125,-0.11731588134765625,-10.457872851562499,11.017068576812743
1789799513607819000,8.626819091796875,2.1607669982910154,-8.970175794982909,11.158027199554443
1789799513617791000,8.636791015625,1.655440810394287,-7.162254266357421,10.893168640899658
1789799513627762200,8.64676220703125,-0.37708676147460934,-6.3043818840026855,9.911845235443115
1789799513637732900,8.65673291015625,-1.9014450309753417,-6.629095484161376,8.901492134857177
1789799513647705000,8.666705078125,-1.8905214859008788,-7.709179708099365,8.692448402404784
1789799513657676000,8.676676025390625,-0.6642413230895996,-8.515127841949463,8.980051876831054
1789799513667647000,8.68664697265625,-0.4203320289611816,-8.577676360321044,8.908974015045166
1789799513677619000,8.696618896484376,-0.4055179061889648,-7.940070530700683,7.476792509460449
1789799513687590000,8.70658984375,-0.443076944732666,-6.556970159149169,5.241954897308349
1789799513697561000,8.71656103515625,-1.0239701225280762,-5.165639719390869,4.859630819702148
1789799513707532800,8.72653271484375,-1.0815805999755859,-4.7101428535461425,6.400149950408935
1789799513717504000,8.73650390625,0.39444472351074217,-5.213523752593994,8.471134386444092
1789799513727475000,8.746474853515625,1.4899416206359863,-5.561730456542969,10.447697494506835
1789799513737447000,8.756447021484375,2.1932383583068846,-5.83526799621582,10.755053132629394
1789799513747417900,8.76641796875,1.6967407890319823,-6.200084474182129,8.987533757019042
1789799513757389000,8.77638916015625,-0.30735563812255856,-5.909039334869385,9.319878874969483
1789799513767361000,8.786361083984374,-1.0462661254882812,-6.084863519287109,11.54903025817871
1789799513777332000,8.79633203125,1.1640309196472167,-6.971167046356201,14.119205740356444
1789799513787303000,8.806302978515625,2.785354356384277,-8.179640334320068,14.419678048706054
1789799513797275100,8.816275146484376,2.3240216239929197,-8.849118973541259,11.583596544647216
1789799513807246000,8.82624609375,-0.8426093467712402,-6.86267978363037,9.643993924713135
1789799513817216800,8.836216796875,-2.59830735168457,-5.122394451904297,8.74093098602295
1789799513827189000,8.84618896484375,-1.5898995399475098,-6.233453659820556,6.853102976989746
1789799513837160000,8.856159912109375,0.20425532913208005,-6.53138212890625,6.551583205413818
1789799513847131100,8.866131103515626,0.747589468383789,-5.730970586395263,6.481253531646728
1789799513857101800,8.876101806640625,0.47854105682373044,-4.114136277770996,6.561309649658202
1789799513867074000,8.886073974609374,0.5989993278503417,-2.5555109970092773,8.202085974884033
1789799513877045000,8.896044921875,0.7372644737243652,-2.4076690444946287,9.275286869049072
1789799513887016000,8.906015869140624,0.8060977714538574,-4.005499377441406,7.841608987426757
1789799513896988000,8.91598779296875,0.978031378173828,-4.493467603302002,6.214300046539306
1789799513906959000,8.925958984375,-0.5129577056884765,-3.041384296417236,4.085555495452881
1789799513916930000,8.935929931640626,-0.28640637359619137,-2.223614791870117,1.599925259399414
1789799513926902000,8.945902099609375,0.2736871772766113,-1.8900725730895995,0.6175543907165527
1789799513936873000,8.955873046875,-0.5615899269104003,-2.0753239265441894,-0.2911947769165039
1789799513946844200,8.96584423828125,-1.296759474182129,-1.8978537284851074,0.06628945846557617
1789799513956816000,8.97581591796875,-0.9789292037963867,-0.1322796417236328,2.0890905860900877
1789799513966787000,8.985787109375,0.3532943824768066,0.22101474075317382,1.4263456390380858
1789799513976758000,8.995758056640625,1.1873743858337402,-0.7484872940063476,-0.1637035385131836
1789799513986730000,9.00572998046875,0.5850830307006836,-1.815104133605957,0.340275910949707
1789799513996701000,9.015700927734375,-0.42661680831909177,-2.2007202384948727,3.2137668159484862
1789799514006672000,9.025671875,-0.8641571617126464,-1.5976806953430174,7.0090253601074215
1789799514016644000,9.03564404296875,-0.4191349281311035,-1.946485949707031,7.6844895034790035
1789799514026614800,9.04561474609375,-0.054468087768554684,-2.8610709838867185,3.9419033958435055
1789799514036586000,9.0555859375,-1.296759474182129,-2.5248352882385254,3.01355170211792
1789799514046558000,9.065557861328125,-1.9475334129333495,-2.7029040367126465,4.162169948577881
1789799514056529200,9.075529052734375,-1.6665139930725097,-3.296217135620117,6.9150529449462885
1789799514066499800,9.085499755859376,-1.3314753982543945,-3.2137668159484862,9.658359134674072
1789799514076471000,9.095470947265625,-1.2431892120361328,-3.3252468307495113,10.228029492187499
1789799514086443000,9.105443115234374,-0.6958148574829102,-4.337395582580566,8.91211640472412
1789799514096414200,9.115414306640625,-0.3368342460632324,-5.495141722869873,8.362647123718261
1789799514106385000,9.125385009765624,-0.9380781379699706,-6.235249311065673,9.9461122467041
1789799514116357000,9.135357177734376,-1.4044985488891601,-6.403741252899169,12.312182037353514
1789799514126328000,9.145328125,-1.676539712524414,-6.880935571289062,12.50012686767578
1789799514136299000,9.155299072265626,-1.1321581100463867,-7.930942636871338,10.158747281646727
1789799514146271000,9.16527099609375,0.12464812393188476,-8.688557824707031,7.414393628692626
1789799514156242000,9.175241943359374,0.8138789268493651,-8.4789155418396,6.4225955909729
1789799514166213000,9.185213134765625,-0.14619593887329102,-7.643339162445068,8.136843979644775
1789799514176184800,9.195184814453125,-0.5140051689147949,-7.5971011428833,9.745298582458496
1789799514186156000,9.205156005859376,0.36376901473999024,-8.559121297454833,8.57378578262329
1789799514196127000,9.215126953125,0.8655039001464844,-8.775048359680175,6.82437255706787
1789799514206099000,9.225098876953124,0.7436988906860351,-7.643189524841308,5.833023432159424
1789799514216070000,9.23506982421875,0.9282020561218262,-5.843946977233887,5.878064350891113
1789799514226041000,9.245041015625,0.884208600616455,-4.376151721954345,7.330446932983398
1789799514236012000,9.255011962890626,0.3085527389526367,-4.4099698204040525,8.505999948120117
1789799514245984000,9.26498388671875,-0.3764882110595703,-5.589114138031006,9.37838717803955
1789799514255955000,9.274954833984374,0.1836053398132324,-6.7182794960021965,9.48088893661499
1789799514265926000,9.28492578125,0.7043442008972167,-6.876296805572509,9.010877223205567
1789799514275897900,9.29489794921875,0.09801263046264648,-6.826916396331787,8.98214680328369
1789799514285868800,9.304868896484376,-0.9021651130676269,-7.709478983306885,10.31152727508545
1789799514295840000,9.314840087890625,-0.11462240447998046,-9.020753305053711,11.738321826934813
1789799514305812000,9.32481201171875,1.3784616058349608,-9.119364485931396,11.42213757019043
1789799514315783000,9.334782958984375,-0.08140285644531249,-7.837718409729003,10.370933403778075
1789799514325753900,9.34475390625,-1.4668974296569823,-7.341370478057861,9.245658623504639
1789799514335726000,9.35472607421875,-0.8473977500915527,-7.963713272094726,8.054543297576904
1789799514345697000,9.364697021484375,0.7740753242492675,-9.1416604888916,7.7979148071289055
1789799514355668000,9.37466796875,1.3154641746520996,-10.245088179016113,8.204330538940429
1789799514365640000,9.384639892578125,1.1947066284179686,-10.652252098846436,8.457068451690674
1789799514375611100,9.394611083984374,0.6938695686340332,-10.203488925170898,9.08539674987793
1789799514385582000,9.40458203125,0.3990834892272949,-9.121459412384032,9.604639234924315
1789799514395554000,9.414553955078125,0.6953659446716308,-7.934683576965331,9.04693988571167
1789799514405525000,9.42452490234375,0.5125087928771972,-7.239018357086181,8.501810095214843
1789799514415496000,9.434495849609375,0.32785598983764647,-7.50791713104248,7.911489748382568
1789799514425467100,9.444467041015624,-0.1406593475341797,-8.260145365142822,7.768286561584472
1789799514435438800,9.45443896484375,-0.44143093109130854,-8.723722661590577,7.810783641052246
1789799514445410000,9.46441015625,-0.506224013519287,-8.70157629623413,8.096142551422119
1789799514455381000,9.474381103515626,-0.5581482620239258,-8.359804009246826,8.287977959442138
1789799514465353000,9.48435302734375,-0.4381389038085937,-7.541136679077148,8.575431796264647
1789799514475324000,9.494323974609374,0.1304839904785156,-6.663063220214843,8.207024015808106
1789799514485295000,9.504295166015625,0.7245452774047851,-6.0327896331787105,7.565527608489989
1789799514495266800,9.514266845703125,1.726369034576416,-5.806836851501465,5.889885721588135
1789799514505238000,9.524238037109376,1.5318401496887206,-5.445312400817871,5.557241328430176
1789799514515208000,9.5342080078125,0.49470191802978514,-5.041290870666503,6.350021353149414
1789799514525180000,9.544179931640626,0.9394248764038086,-5.576245304107665,6.176890645599365
1789799514535151000,9.554151123046875,1.3352163383483886,-6.923881563568115,5.455038845062256
1789799514545121800,9.564121826171874,-0.11791443176269531,-8.0184806350708,6.4555158638000485
1789799514555092700,9.5740927734375,-1.3373112648010252,-8.387935878753662,8.579023098754883
1789799514565065000,9.58406494140625,-1.2949638229370117,-8.538022395324706,10.182090747833252
1789799514575036000,9.594035888671876,-0.42975919799804685,-8.287080133819579,11.984625322723389
1789799514585006800,9.6040068359375,0.277727392578125,-7.68059892578125,13.001562477874755
1789799514594978800,9.613978759765626,0.8204629814147949,-7.048978600311279,12.028469140624999
1789799514604950000,9.623949951171875,1.5701473762512206,-6.841880156707763,8.699032456970214
1789799514614921000,9.6339208984375,0.9204209007263183,-6.6060512931823725,7.398382405090332
1789799514624893000,9.643892822265625,-0.5948094749450683,-7.006331883239746,7.737461215209961
1789799514634863900,9.65386376953125,-0.7624035911560059,-8.159738533020018,8.801085302734375
1789799514644835000,9.6638349609375,0.15098434219360352,-9.099313047027588,9.893140534973144
1789799514654806800,9.673806884765625,0.6872855140686035,-8.341398583984375,10.446201118469238
1789799514664778000,9.683778076171874,0.519092847442627,-6.851307325744629,9.648782328033446
1789799514674749000,9.6937490234375,0.8845078758239746,-5.910984623718261,6.8387377670288085
1789799514684719900,9.703719970703125,0.675464143371582,-5.3019595764160155,5.7149593627929685
1789799514694691800,9.71369189453125,0.043245267486572266,-5.290437480926514,5.44591095123291
1789799514704662800,9.723662841796875,-0.3146878807067871,-5.207837523651123,6.185120713806152
1789799514714634000,9.733634033203124,0.09950900650024413,-5.308842906188964,8.322544245910644
1789799514724605700,9.743605712890625,0.8849567886352538,-6.045059916687011,11.309011541748045
1789799514734577000,9.753576904296875,1.5243582695007323,-7.423820797729491,13.653084604644775
1789799514744547800,9.7635478515625,1.2820949890136717,-9.09766703338623,14.285602755737305
1789799514754520000,9.77352001953125,0.4212298545837402,-9.826252526092528,13.909264182281493
1789799514764490800,9.78349072265625,-0.059256491088867186,-8.733000193023681,13.055282377624511
1789799514774462000,9.7934619140625,0.012569558715820313,-7.011120286560058,11.742062767028807
1789799514784434000,9.803433837890625,0.3113958534240722,-7.2052002586364745,9.543886367797851
1789799514794404900,9.81340478515625,-0.1005564697265625,-7.37399147567749,8.307730123138427
1789799514804375800,9.823375732421875,-0.35404257049560545,-6.556521246337891,6.81838705291748
1789799514814346800,9.8333466796875,-0.17357962036132812,-5.091718743133544,5.658994898986816
1789799514824319000,9.843319091796875,0.5009866973876953,-3.10258607635498,6.171952604675292
1789799514834289700,9.85328955078125,1.1228805786132812,-2.2753894027709958,6.031891807556152
1789799514844260900,9.8632607421875,0.8075941474914551,-3.0705636291503904,4.997746327972412
1789799514854232800,9.87323291015625,0.7161655715942382,-3.958962082672119,3.557933304595947
1789799514864204000,9.8832041015625,0.5361515342712402,-3.336918563842773,2.4172458511352537
1789799514874174700,9.8931748046875,0.6483797370910644,-1.228375089263916,2.2183774757385253
1789799514884147000,9.90314697265625,1.1541548377990722,-0.6700771896362304,1.386093123626709
1789799514894118000,9.913117919921875,0.9820715934753418,-1.8842367065429686,0.9412205276489257
1789799514904089000,9.923089111328125,0.5612906517028808,-2.6514287010192867,1.5295955856323242
1789799514914059800,9.933059814453125,-0.7697358337402344,-1.9484312385559082,3.1893758865356445
1789799514924032000,9.943031982421875,-2.2104466827392577,-0.18180968856811522,5.650615193176269
1789799514934003000,9.9530029296875,-1.4624083015441893,-0.500537784576416,5.820154598236083
1789799514943974100,9.96297412109375,-0.25962124252319335,-2.3912089080810546,4.5988124763488765
1789799514953945900,9.97294580078125,-0.4095581214904785,-3.8474820678710935,3.6195839973449706
1789799514963917000,9.9829169921875,-1.3699322624206542,-3.3616087684631344,4.333804280090332
1789799514973888000,9.992887939453125,-1.675941162109375,-1.429338391113281,6.338199982452392
1789799514983860000,10.00285986328125,-1.1718120750427246,-0.8875006278991698,7.146841593170166
1789799514993831000,10.012830810546875,-1.0504559783935545,-2.1390695457458495,7.06738402557373
1789799515003801900,10.0228017578125,-0.7507318580627441,-3.2359131813049316,7.841459349822998
1789799515013773800,10.03277392578125,-1.4258967262268065,-3.5664626480102535,9.260173471069335
1789799515023744800,10.042744873046875,-2.1288941886901855,-4.023904802703857,9.971550639343262
1789799515033716000,10.052716064453126,-1.3422493057250975,-4.856338792419433,8.253561310577393
1789799515043687000,10.06268701171875,-0.3491045295715332,-5.15830747680664,6.471227812194824
1789799515053659000,10.072658935546874,-0.11297639083862304,-4.726453352355957,6.10985299911499
1789799515063629800,10.0826298828125,-0.6715735656738281,-4.293551764678955,6.030395431518555
1789799515073601000,10.09260107421875,-1.3881880500793455,-3.9911341674804683,6.338499257659912
1789799515083573000,10.102572998046876,-1.1426327423095703,-4.198831161499023,6.477512591552734
1789799515093544000,10.1125439453125,-0.010025719451904296,-4.7664065925598145,6.045359191894531
1789799515103515000,10.122514892578126,0.9449614677429199,-5.052962603759766,5.785588311767578
1789799515113487000,10.132487060546875,0.11297639083862304,-5.2371664939880365,6.234950035858154
1789799515123457800,10.142457763671874,-1.0657190139770507,-5.749076736450195,6.697030956268311
1789799515133428700,10.1524287109375,-0.773776049041748,-6.489932512664795,7.286603115081786
1789799515143400000,10.16239990234375,-0.21727380065917967,-7.2653545753479,7.992144416809081
1789799515153372000,10.172371826171876,-0.02858078231811523,-7.857769848632812,7.56567724609375
1789799515163342800,10.1823427734375,0.6886322525024413,-7.94246473236084,6.143072547149658
1789799515173313800,10.192313720703124,0.939724151611328,-7.578994992828369,5.390096125030517
1789799515183286000,10.2022861328125,0.41853637771606444,-6.897844620513916,6.049848320007324
1789799515193257000,10.212257080078125,-0.7267898414611816,-6.42888037033081,8.061426627349853
1789799515203228000,10.222227783203126,-1.1029787773132325,-6.451475648498535,9.601197570037842
1789799515213200000,10.232199951171875,0.2537853759765625,-6.935104383850097,9.800814133453368
1789799515223171000,10.242171142578124,1.3462895210266113,-7.31638099822998,10.427346780395506
1789799515233142000,10.25214208984375,1.9090765487670898,-8.483255032348632,11.944223169708252
1789799515243112700,10.26211279296875,1.7494132255554198,-10.69938794403076,13.468431801605224
1789799515253085000,10.2720849609375,0.7977180656433105,-12.461670003509521,14.26240892715454
1789799515263056000,10.282055908203125,0.8732850555419921,-11.885714866638184,13.35036773223877
1789799515273026800,10.29202685546875,0.6973112335205077,-9.573364975738524,10.775852759552002
1789799515282998800,10.301998779296875,-0.23702596435546874,-8.013093681335448,9.376292251586914
1789799515292970000,10.311969970703124,-0.7377133865356444,-7.285406014251708,8.761281700134276
1789799515302941000,10.32194091796875,-1.0763432838439941,-7.167790857696533,9.248501737976074
1789799515312913000,10.331912841796875,-0.737414111328125,-7.659500023651122,10.196605595397948
1789799515322883800,10.3418837890625,1.1870751106262207,-8.23560479812622,10.54002389602661
1789799515332855000,10.35185498046875,2.944419129180908,-8.524405373382567,9.535805937194823
1789799515342826000,10.361825927734374,3.47922392501831,-8.841936368560791,8.560019123077392
1789799515352798000,10.3717978515625,2.311900978088379,-9.407416873168945,8.213009519958495
1789799515362769000,10.381768798828125,1.2234370483398436,-9.445574462127684,8.30518628387451
1789799515372739800,10.39173974609375,0.8207622566223144,-8.378807984924316,8.26837543334961
1789799515382711800,10.4017119140625,0.6426935081481934,-6.376207933807373,7.374739663696289
1789799515392682800,10.411682861328124,0.2629132698059082,-4.744110589599609,5.938069029998779
1789799515402654000,10.421654052734375,-0.6542156036376953,-3.834313958740234,4.932803607940674
1789799515412625700,10.431625732421875,-0.678007982635498,-3.5172318763732906,3.6132992179870604
1789799515422596900,10.441596923828126,-0.3869628433227539,-4.239831864929199,2.3841759407043455
1789799515432567800,10.45156787109375,-1.8267758666992187,-5.197213253784179,4.410718008422851
1789799515442539000,10.4615390625,-2.4378958404541016,-6.51192924041748,6.746710640716552
1789799515452510700,10.4715107421875,-1.0815805999755859,-8.449287296295166,7.776666267395019
1789799515462482000,10.48148193359375,1.013196215057373,-10.350881964874267,9.016862727355957
1789799515472452900,10.491452880859375,3.5823242340087886,-11.034576176452637,10.423905115509033
1789799515482425000,10.501425048828125,3.1018378883361812,-10.29716206512451,12.153715814971923
1789799515492395800,10.511395751953126,1.0624269866943359,-7.828291240692138,13.403189806365965
1789799515502367000,10.521366943359375,0.2624643569946289,-5.979219371032714,11.303325312805175
1789799515512339000,10.5313388671875,-0.01601122360229492,-5.4035635093688965,7.888894470214844
1789799515522310100,10.54131005859375,0.012569558715820313,-5.090372004699707,5.834819083404541
1789799515532280800,10.55128076171875,-0.9778817405700683,-5.291335306549072,5.174917250823975
1789799515542252000,10.561251953125,-2.712181568145752,-6.2873231971740715,6.982988417053222
1789799515552224000,10.57122412109375,-2.247856083679199,-8.199093222808838,8.709507089233398
1789799515562195000,10.58119482421875,1.0281599754333495,-9.670180505371093,9.10425108795166
1789799515572166000,10.591165771484375,2.6713305023193357,-10.17565633087158,9.363872330474853
1789799515582138000,10.60113818359375,2.110638401031494,-10.252570059204102,9.421782083129882
1789799515592109000,10.611109130859376,1.0122983894348143,-9.76744494781494,9.76744494781494
1789799515602080000,10.621080078125,0.09846154327392577,-8.698134631347656,10.186579875946045
1789799515612051000,10.631051025390626,-0.3655646659851074,-7.548169646453857,9.554959550476074
1789799515622023200,10.641023193359375,0.356885684967041,-6.939144599151611,8.179191421508788
1789799515631994000,10.650994140625,0.13631985702514648,-6.898892083740234,6.72276862411499
1789799515641964800,10.66096484375,-1.3332710494995117,-6.949619231414794,7.11885936126709
1789799515651937000,10.67093701171875,-1.0091559997558592,-7.0549641044616695,8.65099878616333
1789799515661908000,10.680907958984376,0.08035539321899414,-7.260117259216308,10.35507181777954
1789799515671879200,10.690879150390625,0.8313865264892578,-7.556100439453124,11.285967350769042
1789799515681849900,10.700849853515624,0.5163993705749511,-7.698854713439941,11.00629466934204
1789799515691822000,10.710822021484375,-0.6720224784851074,-7.230638651275634,10.382455499267577
1789799515701793000,10.72079296875,-1.3236942428588867,-6.423343778991699,10.44470474243164
1789799515711764200,10.73076416015625,-0.7037456504821777,-6.136039579772949,10.423905115509033
1789799515721736000,10.74073583984375,0.02454056701660156,-6.552630668640137,9.500341825103758
1789799515731707100,10.75070703125,-0.14469956283569335,-7.0735191673278806,8.129511737060547
1789799515741678000,10.760677978515625,-0.4164414512634277,-6.636128451538085,7.602637734222411
1789799515751650000,10.770650146484375,-0.027084406280517576,-5.529558371734619,6.7673606300354
1789799515761621000,10.78062109375,0.29224224014282224,-4.316745593261719,6.130353350830077
1789799515771592000,10.790592041015625,0.42811318435668944,-3.6736031723022458,5.69490792388916
1789799515781563100,10.800563232421876,0.09801263046264648,-4.002057712554931,4.792593173217774
1789799515791534800,10.810534912109375,-0.3538929328918457,-4.038120375061035,5.167435370635986
1789799515801506000,10.820506103515624,0.08439560852050781,-3.3919852020263668,5.660790550231933
1789799515811477000,10.83047705078125,0.999130280303955,-3.053056029510498,4.7475522544860835
1789799515821449000,10.840448974609375,1.3808558074951172,-2.995744827270508,3.803787887573242
1789799515831420000,10.850419921875,1.2740145584106444,-2.7967268142700195,3.5800796699523922
1789799515841391000,10.86039111328125,0.23523031311035156,-1.4182652084350584,5.439925447082519
1789799515851362800,10.87036279296875,-1.2716203567504882,-0.22056582794189453,8.472930037689208
1789799515861334000,10.880333984375,-0.15831658477783203,-2.192939083099365,8.391227906036377
1789799515871305000,10.890304931640625,1.2752116592407226,-4.149899665069579,7.911789023590088
1789799515881276000,10.90027587890625,0.4236240562438965,-5.244648374176025,7.021894194030761
1789799515891247900,10.910247802734375,-1.9566613067626952,-4.339939421844482,7.152976734924316
1789799515901218800,10.92021875,-1.4797662635803221,-3.1821932815551754,8.163479473114013
1789799515911190000,10.93018994140625,0.3642179275512695,-3.6354455833435058,7.880215489196777
1789799515921162000,10.940161865234375,1.0226233840942383,-4.440944804382324,6.194398245239258
1789799515931133000,10.9501328125,-0.40222587890625,-4.113388089752197,3.689015845489502
1789799515941103900,10.960103759765625,-1.3633482078552246,-2.569576931762695,2.7578210372924805
1789799515951075000,10.970074951171876,-0.6871358764648438,-0.9879074600219726,3.19835414276123
1789799515961047000,10.980047119140625,-0.1913864952087402,-0.7492354820251464,3.2742204078674315
1789799515971018000,10.99001806640625,-0.4381389038085937,-1.5382745666503905,2.925714428710937
1789799515980989000,10.999989013671875,-0.55545478515625,-2.0437503921508786,3.487603630828857
1789799515990961200,11.009961181640625,-0.8613140472412109,-2.1065981857299803,3.758447693634033
1789799516000932000,11.01993212890625,-1.264737026977539,-1.9930232444763183,3.4479496658325193
1789799516010902800,11.02990283203125,-1.1471218704223631,-2.061557266998291,3.2109237014770504
1789799516020874000,11.0398740234375,-0.9522937103271484,-2.244863331604004,3.008314385986328
1789799516030846000,11.049845947265625,-1.4552256965637207,-2.2296002960205077,3.4681507423400877
1789799516040817000,11.05981689453125,-1.3634978454589843,-2.239476377868652,5.35657730178833
1789799516050787800,11.069787841796876,-0.35179800643920894,-3.3310826972961425,7.138611524963379
1789799516060760000,11.079760009765625,0.35194764404296874,-4.375403533935547,8.686762173461913
1789799516070731000,11.08973095703125,-0.24001871643066405,-4.969015908050537,9.093626818084717
1789799516080702000,11.099701904296875,-1.2569558715820313,-6.341043096923828,9.11038622970581
1789799516090673000,11.1096728515625,-1.318307289123535,-7.7148659370422354,9.360430665588378
1789799516100645000,11.11964501953125,-1.1679214973449705,-8.611344821166991,10.114005638122558
1789799516110616000,11.129615966796875,-0.8262988479614257,-9.62094973373413,10.640131452941894
1789799516120586800,11.139586669921876,0.027084406280517576,-10.154407791137695,10.69310316467285
1789799516130559000,11.14955908203125,0.9723451492309569,-9.48073929901123,10.540173533630371
1789799516140530000,11.159530029296874,0.8801683853149413,-8.550591954040527,10.671854624938964
1789799516150501000,11.169501220703125,0.3206733848571777,-8.405892391204834,11.115829395294188
1789799516160471800,11.179471923828125,0.2747346405029297,-9.236830004882812,11.392958237457275
1789799516170444000,11.189444091796876,0.7052420265197753,-10.420613088226318,11.70779575576782
1789799516180415000,11.1994150390625,1.285835929107666,-11.25469309158325,11.456404581451416
1789799516190386200,11.20938623046875,1.2541127571105957,-11.092785204315184,10.95466969604492
1789799516200358000,11.21935791015625,1.2099696640014648,-10.075848049163818,10.225934565734862
1789799516210329000,11.2293291015625,0.896329246520996,-8.315660916137695,9.17458076171875
1789799516220300000,11.239300048828126,-0.1327285545349121,-6.668150898742676,8.159738533020018
1789799516230271000,11.24927099609375,-0.7565677246093749,-5.147084656524658,7.413346165466308
1789799516240243000,11.259242919921874,-0.5044283622741699,-3.847332430267334,6.434716236877441
1789799516250214100,11.269214111328125,0.22430676803588867,-3.314024010467529,5.1410991523742675
1789799516260185000,11.27918505859375,0.5267243652343749,-3.63903688583374,4.683357722473144
1789799516270157000,11.289156982421876,0.44906244888305663,-4.625747245025634,4.910058692169189
1789799516280128000,11.2991279296875,0.13691840744018555,-5.609614489746093,6.311564488983154
1789799516290099000,11.309098876953126,-0.17253215713500974,-6.970119583129883,8.414272097015381
1789799516300070100,11.319070068359375,1.0975918235778808,-8.654141175842284,10.254216072845459
1789799516310041900,11.329041748046874,2.5004443588256833,-9.24461116027832,10.517129342651367
1789799516320013000,11.339012939453125,1.6862661567687987,-8.871115701293945,9.540444702911376
1789799516329984000,11.34898388671875,-0.01331774673461914,-8.423100715637206,9.019406566619873
1789799516339956000,11.3589560546875,-1.6165350334167479,-8.608950619506835,9.175328949737548
1789799516349927000,11.368927001953125,-0.4462193344116211,-9.241319132995605,9.822361948394775
1789799516359898000,11.378898193359374,0.621145693206787,-9.566182370758057,10.817003100585938
1789799516369869000,11.388869140625,0.7534253349304199,-9.854085120391845,10.070910008239746
1789799516379841000,11.398841064453125,-0.5156511825561523,-9.742156192779541,10.646116957092284
1789799516389812000,11.40881201171875,-0.5563526107788086,-9.501987838745116,10.864138945770263
1789799516399783000,11.418782958984375,0.2609679809570312,-9.286808964538574,10.042029950714111
1789799516409755000,11.4287548828125,0.77886372756958,-8.580818749999999,8.767117566680907
1789799516419725800,11.438725830078125,0.5805939025878906,-7.719504702758789,7.6373536582946775
1789799516429697000,11.448697021484374,0.653766690826416,-7.261912910461425,6.50549482345581
1789799516439668000,11.45866796875,0.7053916641235352,-7.454197231292724,5.26664510192871
1789799516449640000,11.468639892578125,0.840215145111084,-8.092401611328125,4.366275640106201
1789799516459611000,11.47861083984375,-0.17821838607788085,-9.019107291412354,4.733635957336426
1789799516469582000,11.48858203125,-1.0503063407897948,-9.401730644226074,5.985204875183105
1789799516479554000,11.498553955078124,-0.6602011077880859,-8.972420359039306,6.60156216506958
1789799516489525000,11.50852490234375,-0.13542203140258788,-7.7328224494934075,6.8770449935913085
1789799516499496000,11.518495849609375,0.12764087600708007,-6.48050534362793,6.323086584472656
1789799516509467000,11.528466796875,-0.3066074501037597,-5.558438429260254,5.450549716949463
1789799516519440000,11.53843994140625,-0.9897031112670898,-4.858284081268311,4.866663787078857
1789799516529411000,11.5484111328125,-1.0492588775634766,-4.336048844146728,4.512920491790771
1789799516539382000,11.558382080078125,-0.6123170745849609,-4.075230500793457,4.610334571838378
1789799516549354000,11.56835400390625,-0.1785176612854004,-4.552574456787109,5.577292767333984
1789799516559325000,11.578324951171876,0.42108021697998044,-5.737105728149413,8.194604094696045
1789799516569296000,11.5882958984375,0.29388825378417965,-7.74449418258667,12.222399475097655
1789799516579267000,11.59826708984375,0.18180968856811522,-9.913790524291992,15.689652391815185
1789799516589238800,11.60823876953125,0.14006079711914063,-10.998962426757812,15.38020182723999
1789799516599210000,11.6182099609375,1.042525185394287,-10.339359869384765,11.082310572052002
1789799516609181000,11.628180908203126,1.2255319747924804,-8.25490804901123,9.25762963180542
1789799516619153000,11.63815283203125,0.36227263870239257,-7.7310267982482905,9.048436261749266
1789799516629123800,11.648123779296874,0.014514847564697266,-8.228422193145752,9.596708441925049
1789799516639095000,11.658094970703125,0.36691140441894526,-8.800935665130615,11.210400360870361
1789799516649066000,11.66806591796875,0.7009025360107421,-8.877101205444335,13.095983805847167
1789799516659038000,11.678037841796876,0.1801636749267578,-8.746916490173339,13.539958576202391
1789799516669009000,11.6880087890625,-0.2632125450134277,-8.728361427307128,12.112415836334227
1789799516678979800,11.697979736328126,0.18899229354858396,-8.54849702758789,10.714501342010497
1789799516688952000,11.7079521484375,0.6926724678039551,-8.118737829589843,9.893140534973144
1789799516698922800,11.7179228515625,0.4584896179199218,-7.126939791870117,9.284564400482177
1789799516708894000,11.72789404296875,-0.4070142822265625,-5.511452221679687,8.949076892852784
1789799516718865000,11.737864990234375,-0.34835634155273437,-5.112368732452392,7.46272657470703
1789799516728837000,11.747837158203126,0.6618471214294434,-5.8277861160278315,6.014683483123779
1789799516738807800,11.757807861328125,1.1023802268981933,-5.831676693725585,4.536114320373535
1789799516748779000,11.767779052734374,1.298555125427246,-4.804564181518554,2.869001776885986
1789799516758750000,11.77775,1.7100585357666014,-3.044676323699951,3.1510686599731446
1789799516768722200,11.78772216796875,1.3260884445190428,-1.5671546241760252,4.905719201660156
1789799516778692900,11.79769287109375,1.0486603271484374,-1.1348515869140625,6.2852282707214355
1789799516788664000,11.8076640625,0.6572083557128906,-2.3403321228027343,5.361664980316162
1789799516798636000,11.817635986328124,1.2255319747924804,-4.072537023925781,3.324349005126953
1789799516808607000,11.82760693359375,0.25797522888183594,-3.3816602073669433,3.3928830276489257
1789799516818578000,11.837577880859374,-1.4258967262268065,-1.4030021728515625,5.70089342803955
1789799516828548900,11.847548828125,-1.3120225097656248,-1.7791911087036132,7.356184600830078
1789799516838521000,11.85752099609375,-1.2342109558105467,-3.373430139160156,8.369829728698729
1789799516848492000,11.867491943359376,-1.0625766242980956,-4.471470875549316,7.428010650634765
1789799516858463000,11.877462890625,-2.09402862701416,-3.7843349990844724,6.131550451660156
1789799516868435000,11.88743505859375,-1.8953098892211913,-2.597858438873291,6.816890676879883
1789799516878406100,11.89740625,-0.19901801300048827,-3.17920052947998,7.350049459075927
1789799516888376800,11.907376953125,0.9545382743835449,-4.548833516693115,7.261015084838867
1789799516898348000,11.91734814453125,0.2093430076599121,-4.944026428222656,6.514024166870117
1789799516908320000,11.927320068359375,-1.061678798675537,-3.6557962974548337,6.557867984771728
1789799516918291200,11.937291259765624,-0.3407248237609863,-2.5704747573852536,6.212953308105468
1789799516928262000,11.947261962890625,0.0857423469543457,-3.4569279220581053,6.048351943969727
1789799516938232800,11.95723291015625,0.397736750793457,-4.210802169799805,5.510853671264648
1789799516948205000,11.967205078125,0.16639701538085935,-4.137330106353759,4.061613478851318
1789799516958176000,11.977176025390625,-0.5140051689147949,-2.949057894897461,3.4853590667724608
1789799516968147000,11.98714697265625,-1.1450269439697265,-1.474229672241211,4.350414054107666
1789799516978119000,11.997118896484375,-1.7277157730102537,-1.2012906829833985,4.049343195343018
1789799516988090000,12.007090087890624,-2.0655974822998044,-1.965789200592041,2.835931866455078
1789799516998061000,12.01706103515625,-0.598251139831543,-2.94950680770874,2.0132243209838867
1789799517008032000,12.027031982421875,0.6248866333007812,-2.580500476837158,3.614795594024658
1789799517018004000,12.03700390625,0.462829108428955,-1.3934253662109375,5.890035359191894
1789799517027975200,12.04697509765625,-0.5623381149291992,-1.573738678741455,6.414066247558593
1789799517037946000,12.056946044921874,-0.9292495193481445,-2.7760768249511716,6.765864253997802
1789799517047918000,12.06691796875,-0.4513070129394531,-3.979911347198486,6.311265213775634
1789799517057889000,12.076888916015625,-0.5020341606140136,-4.680664245605469,5.716755014038085
1789799517067860000,12.08685986328125,-1.2990040382385253,-4.897339495849609,6.0716954101562495
1789799517077831000,12.096830810546875,-1.4303858543395995,-5.280711036682129,5.992686755371094
1789799517087803000,12.106802978515624,-0.7359177352905273,-5.67560467300415,6.1358899421691895
1789799517097774000,12.116774169921875,0.4638765716552734,-5.8728270347595215,7.323264328002929
1789799517107745000,12.1267451171875,0.7320271575927734,-5.922357081604003,10.189722265624999
1789799517117716000,12.136716064453125,0.5424363136291503,-6.925976490020751,12.39208851776123
1789799517127688000,12.14668798828125,0.8851064262390136,-9.398288979339599,11.81807866973877
1789799517137659100,12.1566591796875,1.2832920898437499,-11.51057339401245,10.549899977874755
1789799517147630000,12.166630126953125,1.6895581840515135,-12.02757131500244,10.787674130249023
1789799517157602000,12.17660205078125,0.6721721160888672,-11.641057384490965,13.127407702636718
1789799517167573000,12.186572998046875,-0.44322658233642576,-11.781866369628906,16.696563827514648
1789799517177544000,12.1965439453125,0.4460696968078613,-12.882600582885742,16.98326947631836
1789799517187515100,12.20651513671875,1.2713210815429687,-11.795333753967284,13.828908789062499
1789799517197486800,12.21648681640625,1.0800842239379882,-7.906701345062255,9.922020592498779
1789799517207458000,12.2264580078125,0.9980828170776367,-5.279065023040771,6.923731925964355
1789799517217429000,12.236428955078125,0.13482348098754882,-4.884919574737548,6.126313135528564
1789799517227400200,12.246400146484374,-0.22640169448852537,-6.228216343688964,6.44803398361206
1789799517237372000,12.256371826171875,0.36047698745727536,-8.29994896774292,7.364265031433105
1789799517247343000,12.266343017578125,1.5626654960632322,-9.31464155883789,7.802403935241699
1789799517257314000,12.27631396484375,2.4531588760375973,-8.696338980102539,6.556521246337891
1789799517267286000,12.2862861328125,2.4672248107910155,-7.379528067016601,5.721992330169678
1789799517277257000,12.296257080078124,1.23855044631958,-5.879411089324951,6.021566812896729
1789799517287228200,12.306228271484375,0.08649053497314453,-4.770446807861328,5.529109458923339
1789799517297199000,12.31619921875,-0.25034371109008785,-4.204517390441894,4.957942725372314
1789799517307171000,12.326171142578126,-0.21263503494262695,-3.905242182922363,4.576067560577393
1789799517317142000,12.33614208984375,-0.11806406936645507,-4.451269799041747,3.9175124664306638
1789799517327113000,12.346113037109374,-0.9503484214782715,-5.111919819641113,4.536862508392334
1789799517337084200,12.356084228515625,-1.9110218376159667,-5.653907220458984,6.744316439056396
1789799517347055900,12.366055908203125,-1.8089689918518066,-7.447313901519775,9.912294148254395
1789799517357027000,12.376027099609376,0.7932289375305175,-9.642347911071777,12.400617861175537
1789799517366998000,12.385998046875,3.6734535346984862,-10.670058973693846,12.971036406707762
1789799517376970000,12.395969970703124,3.506158693695068,-11.1083475151062,13.434314427947998
1789799517386941000,12.40594091796875,2.01741417388916,-11.156231548309325,13.736732025146484
1789799517396912000,12.415912109375,1.95995333404541,-10.498424642181396,12.668169896697997
1789799517406883000,12.425883056640625,2.633472188568115,-9.147496355438232,10.257807375335693
1789799517416855000,12.43585498046875,2.0649989318847655,-7.7763669921875,7.636306195068359
1789799517426826000,12.445825927734376,-0.17821838607788085,-7.161206803131103,5.9497407630920405
1789799517436797000,12.455796875,-2.8104934738159177,-7.209988661956786,5.668272430419922
1789799517446768000,12.46576806640625,-3.925742534637451,-7.934085026550292,6.573879208374023
1789799517456739800,12.47573974609375,-2.235735437774658,-9.4113074508667,7.613262004089355
1789799517466711000,12.4857109375,0.5006874221801757,-9.84450831375122,8.17859287109375
1789799517476682000,12.495681884765625,1.79400523147583,-8.5417633354187,8.016385708618163
1789799517486654000,12.505654052734375,1.599326708984375,-7.330446932983398,7.4956468475341795
1789799517496625000,12.515625,1.0881646545410155,-6.650643299102783,6.938396411132812
1789799517506596000,12.52559619140625,0.805050308227539,-6.384886914825439,6.618620851898193
1789799517516566500,12.53556640625,0.8089408859252929,-6.430526383972167,6.681019732666015
1789799517526538500,12.54553857421875,0.5692214447021484,-6.51851329498291,7.504325828552246
1789799517536509400,12.555509521484375,0.02633621826171875,-6.550685379791259,8.453626786804199
1789799517546480400,12.56548046875,-0.5434837768554687,-6.392368795013427,8.992471797943114
1789799517556451600,12.57545166015625,-0.9190741622924804,-5.887641157531738,9.198672415924072
1789799517566423300,12.58542333984375,-0.505625463104248,-5.453093556213378,8.590245919036864
1789799517576394500,12.59539453125,0.7751227874755859,-5.331887097167969,6.789058082580566
1789799517586365400,12.605365478515624,0.8274959487915039,-4.853196402740478,6.514024166870117
1789799517596337700,12.615337646484376,0.4724059150695801,-4.524592224884033,8.324339897155761
1789799517606308400,12.625308349609375,0.8494926765441894,-5.53524460067749,11.054926890563964
1789799517616279600,12.635279541015626,1.6626234153747557,-7.702296378326416,13.896395348358153
1789799517626250500,12.64525048828125,1.9966145469665526,-10.047566542053222,15.499911910247802
1789799517636222700,12.65522265625,1.2009914077758788,-11.657517520904541,14.532804077148437
1789799517646193400,12.665193359375,-0.36541502838134765,-11.111340267181395,10.461913066864014
1789799517656164400,12.675164306640625,-0.5672761558532714,-8.748263228607177,7.932588650512695
1789799517666135600,12.685135498046876,0.36002807464599607,-7.417685655975341,7.658452560424804
1789799517676107500,12.695107421875,0.9539397239685058,-7.200860768127441,8.040926275634765
1789799517686078500,12.705078369140624,0.8447042732238769,-6.957101111602783,8.71504368057251
1789799517696049400,12.71504931640625,0.40925884628295894,-6.493972727966308,9.296086495971679
1789799517706020600,12.7250205078125,0.22026655273437498,-6.101922206115722,9.786448923492431
1789799517715992600,12.73499267578125,0.6063315704345703,-6.472424913024902,9.64055225982666
1789799517725963500,12.744963623046875,1.0966939979553223,-7.203554244995117,8.819490727996826
1789799517735934500,12.7549345703125,1.0963947227478026,-6.677129154968261,8.261043190765381
1789799517745906700,12.76490673828125,0.9379285003662109,-4.934150346374511,6.667253073120117
