time,seconds_elapsed,z,y,x
1789799505031215600,0.050215576171875,-0.4106143116950989,0.298492431640625,-0.5317006707191467
1789799505041186800,0.060186767578125,-0.29828616976737976,0.5582520365715027,-0.6746291518211365
1789799505051157800,0.07015771484375,-0.1742824763059616,0.8121993541717529,-0.8904080390930176
1789799505061129700,0.080129638671875,-0.056092116981744766,0.9735402464866638,-1.0258311033248901
1789799505071100700,0.0901005859375,0.04040379449725151,1.0523370504379272,-1.0347689390182495
1789799505081071900,0.10007177734375,0.10903734713792801,1.190131664276123,-0.9846413731575012
1789799505091043600,0.110043701171875,0.18713107705116272,1.3366239070892334,-0.9187414646148682
1789799505101014800,0.120014892578125,0.282936155796051,1.4217119216918945,-0.8344609141349792
1789799505110985700,0.12998583984375,0.40287747979164124,1.4695074558258057,-0.7639957666397095
1789799505120958000,0.1399580078125,0.5344278812408447,1.4800807237625122,-0.7244293689727783
1789799505130928600,0.1499287109375,0.665307879447937,1.5878654718399048,-0.6934117674827576
1789799505140900900,0.15990087890625,0.7729877233505249,1.7541824579238892,-0.6755682229995728
1789799505150871800,0.169871826171875,0.8647773265838623,2.0045571327209473,-0.676449716091156
1789799505160842800,0.1798427734375,0.9584864974021912,2.3699793815612793,-0.6938205361366272
1789799505170814700,0.189814697265625,1.0163459777832031,2.786423444747925,-0.6928519606590271
1789799505180785700,0.19978564453125,0.952206552028656,3.1098709106445312,-0.6716679334640503
1789799505190756900,0.2097568359375,0.7986979484558105,3.1162219047546387,-0.5625752806663513
1789799505200728600,0.219728515625,0.6272085309028625,2.861909866333008,-0.3523590862751007
1789799505210699800,0.22969970703125,0.3973582684993744,2.448683500289917,-0.02805691957473755
1789799505220670700,0.239670654296875,0.17569908499717712,1.8619269132614136,0.3689287304878235
1789799505230642700,0.249642578125,-0.11776423454284668,1.328880786895752,0.7258469462394714
1789799505240613600,0.259613525390625,-0.4944635331630707,0.6133130192756653,0.9089298248291016
1789799505250584800,0.269584716796875,-0.7406538128852844,-0.36155813932418823,0.9457794427871704
1789799505260556800,0.279556884765625,-0.9899740219116211,-1.27730131149292,0.9013908505439758
1789799505270527700,0.28952783203125,-1.2750675678253174,-2.0752100944519043,0.843248188495636
1789799505280498700,0.299498779296875,-1.4480482339859009,-3.103588819503784,0.7477759122848511
1789799505290471000,0.309470947265625,-1.613145351409912,-3.9898476600646973,0.7412868738174438
1789799505300441900,0.31944189453125,-1.7814191579818726,-4.648862838745117,0.7052462100982666
1789799505310413800,0.329413818359375,-1.6946953535079956,-5.247267246246338,0.5549097061157227
1789799505320384800,0.339384765625,-1.2749441862106323,-6.159608364105225,0.29839545488357544
1789799505330355700,0.349355712890625,-0.8062065839767456,-6.850804328918457,-0.036893848329782486
1789799505340327700,0.35932763671875,-1.0303791761398315,-4.919976711273193,-0.8373258709907532
1789799505350298600,0.369298583984375,-0.9366916418075562,-3.6544735431671143,-1.243182897567749
1789799505360269800,0.379269775390625,-0.42580732703208923,-2.2064874172210693,-1.701067566871643
1789799505370241500,0.389241455078125,0.5804702043533325,-0.9790302515029907,-2.050504446029663
1789799505380212700,0.399212646484375,1.68482506275177,-0.030402321368455887,-2.2321178913116455
1789799505390183700,0.40918359375,2.5919883251190186,0.532721221446991,-2.1564626693725586
1789799505400156000,0.419156005859375,3.1849215030670166,0.40399685502052307,-1.6842457056045532
1789799505410126600,0.429126708984375,3.405550718307495,-0.12021735310554504,-0.9107832908630371
1789799505420098800,0.439098876953125,3.563202381134033,-0.8984323740005493,-0.13849321007728577
1789799505430069800,0.44906982421875,2.9044978618621826,-2.7027747631073,0.3362080454826355
1789799505440040700,0.459040771484375,1.7333394289016724,-3.9598777294158936,0.4475099742412567
1789799505450012700,0.4690126953125,0.9296780228614807,-3.8186323642730713,0.7024149894714355
1789799505459984000,0.47898388671875,0.5010496973991394,-2.771514892578125,1.0632555484771729
1789799505469954800,0.488954833984375,0.32939669489860535,-1.8666040897369385,1.1681995391845703
1789799505479926800,0.4989267578125,0.40893498063087463,-0.9631145596504211,0.9953829050064087
1789799505489897700,0.508897705078125,0.6024506688117981,-0.12958218157291412,0.6419532299041748
1789799505499868700,0.51886865234375,0.7256473898887634,0.2928578555583954,0.2687014043331146
1789799505509841200,0.528841064453125,0.7377243041992188,0.3771205246448517,-0.0006152819842100143
1789799505519812400,0.538812255859375,0.6732057929039001,0.18172691762447357,-0.02235477976500988
1789799505529783300,0.548783203125,0.5936249494552612,-0.1398649662733078,0.23048971593379974
1789799505539755300,0.55875537109375,0.5074085593223572,-0.5313057899475098,0.5394208431243896
1789799505549726200,0.568726318359375,0.42020148038864136,-0.8728636503219604,0.7709302306175232
1789799505559697200,0.578697265625,0.3323323726654053,-0.9600473046302795,0.916573703289032
1789799505569669000,0.588669189453125,0.2566285729408264,-0.8952224850654602,0.9476889967918396
1789799505579640000,0.59864013671875,0.20610010623931885,-0.7074185609817505,0.8655772805213928
1789799505589612300,0.6086123046875,0.17396293580532074,-0.40258753299713135,0.6982415914535522
1789799505599583200,0.618583251953125,0.17017914354801178,-0.18625560402870178,0.5297025442123413
1789799505609554200,0.62855419921875,0.19113662838935852,-0.091263048350811,0.4550006091594696
1789799505619526100,0.638526123046875,0.2055073082447052,-0.004162534140050411,0.5034205913543701
1789799505629497300,0.648497314453125,0.14026892185211182,0.010784191079437733,0.5793566703796387
1789799505639468300,0.65846826171875,0.018609339371323586,0.00091025501023978,0.5813050270080566
1789799505649440300,0.668440185546875,-0.11366214603185654,0.014998643659055233,0.5128647089004517
1789799505659411200,0.6784111328125,-0.20109666883945465,0.03333625569939613,0.3822764754295349
1789799505669382400,0.68838232421875,-0.22700069844722748,0.005959757603704929,0.21851682662963867
1789799505679354000,0.69835400390625,-0.17627975344657898,-0.06728284806013107,0.10167000442743301
1789799505689325300,0.7083251953125,-0.10713423043489456,-0.17420610785484314,0.05099032074213028
1789799505699296300,0.718296142578125,-0.05017614737153053,-0.31101956963539124,0.06808090955018997
1789799505709268200,0.728268310546875,-0.022384198382496834,-0.44714224338531494,0.15972748398780823
1789799505719239200,0.7382392578125,-0.020287426188588142,-0.5141188502311707,0.2953365743160248
1789799505729211400,0.74821142578125,-0.03514626994729042,-0.46777474880218506,0.4017748534679413
1789799505739182300,0.758182373046875,-0.07358399778604507,-0.3472815752029419,0.4442245662212372
1789799505749153000,0.768153076171875,-0.14385204017162323,-0.04820594564080238,0.4926735758781433
1789799505759125200,0.778125244140625,-0.19120167195796967,0.35122227668762207,0.5174946784973145
1789799505769096200,0.78809619140625,-0.15709030628204346,0.5622274875640869,0.43103572726249695
1789799505779067400,0.7980673828125,-0.06285116821527481,0.36784204840660095,0.19829757511615753
1789799505789039000,0.8080390625,0.02986758016049862,-0.13308867812156677,-0.09797589480876923
1789799505799010300,0.81801025390625,0.05379628390073776,-0.6391796469688416,-0.3339262306690216
1789799505808981200,0.827981201171875,-0.04779691994190216,-0.7490749955177307,-0.37326779961586
1789799505818953200,0.837953125,-0.14240674674510956,-0.32307544350624084,-0.21934020519256592
1789799505828924200,0.847924072265625,-0.13600370287895203,0.29605865478515625,-0.0937386155128479
1789799505838895400,0.857895263671875,-0.06019991636276245,0.7066513299942017,-0.08594788610935211
1789799505848867000,0.8678671875,0.008784743025898933,0.7740111947059631,-0.1573094129562378
1789799505858838300,0.87783837890625,0.024096006527543068,0.5788137912750244,-0.28903844952583313
1789799505868809200,0.887809326171875,-0.004784910939633846,0.23891609907150269,-0.4495362341403961
1789799505878781400,0.897781494140625,-0.033714015036821365,-0.08775433897972107,-0.5869424343109131
1789799505888752000,0.907752197265625,-0.03153075650334358,-0.26830148696899414,-0.6411497592926025
1789799505898723000,0.91772314453125,0.005542572122067213,-0.28237295150756836,-0.6056763529777527
1789799505908695300,0.9276953125,0.056478191167116165,-0.1789083331823349,-0.5279293656349182
1789799505918666200,0.937666259765625,0.10598273575305939,-0.0564301535487175,-0.4530335068702698
1789799505928638200,0.94763818359375,0.14335381984710693,-0.0294675100594759,-0.45641598105430603
1789799505938609200,0.957609130859375,0.1647988259792328,-0.16739225387573242,-0.6153051853179932
1789799505948580400,0.967580322265625,0.17439526319503784,-0.34749090671539307,-0.8729729652404785
1789799505958552000,0.977552001953125,0.047152530401945114,-0.4082493185997009,-0.9949425458908081
1789799505968523300,0.987523193359375,-0.10237064957618713,-0.19322887063026428,-0.9449877738952637
1789799505978494200,0.997494140625,-0.17562954127788544,0.20972949266433716,-0.7022845149040222
1789799505988466200,1.007466064453125,-0.19317124783992767,0.7147359251976013,-0.3130965232849121
1789799505998437000,1.01743701171875,-0.18214210867881775,1.014878273010254,0.07159973680973053
1789799506008408300,1.027408203125,-0.18931852281093597,0.9663293361663818,0.3591934144496918
1789799506018380300,1.03738037109375,-0.22074031829833984,0.6434898376464844,0.566369354724884
1789799506028351200,1.047351318359375,-0.268669992685318,0.22446464002132416,0.7029269337654114
1789799506038322200,1.057322265625,-0.3010210692882538,-0.1279829442501068,0.760055422782898
1789799506048294400,1.06729443359375,-0.3077998757362366,-0.41310200095176697,0.7020294070243835
1789799506058265000,1.07726513671875,-0.2833044230937958,-0.6659224033355713,0.5624910593032837
1789799506068236300,1.087236328125,-0.24485157430171967,-0.8190914392471313,0.45843788981437683
1789799506078208300,1.097208251953125,-0.25442057847976685,-0.7294438481330872,0.459877073764801
1789799506088179500,1.107179443359375,-0.3628530502319336,-0.4128592908382416,0.5098387598991394
1789799506098150100,1.117150146484375,-0.5359609127044678,-0.2558578848838806,0.49407103657722473
1789799506108122400,1.127122314453125,-0.5719934701919556,-0.5956827998161316,0.23355048894882202
1789799506118093300,1.13709326171875,-0.5128551125526428,-1.2575395107269287,-0.2725575864315033
1789799506128065300,1.147065185546875,-0.4324481189250946,-1.559826135635376,-0.7576824426651001
1789799506138036200,1.1570361328125,-0.373898983001709,-1.1563389301300049,-1.0319783687591553
1789799506148007200,1.167007080078125,-0.37515759468078613,-0.2681635916233063,-1.130107045173645
1789799506157979100,1.176979248046875,-0.42925524711608887,0.5622188448905945,-1.1203047037124634
1789799506167950000,1.1869501953125,-0.5118513107299805,0.9088699817657471,-1.1155654191970825
1789799506177921300,1.19692138671875,-0.5770606994628906,0.8885401487350464,-1.159005880355835
1789799506187893200,1.206893310546875,-0.5667492151260376,0.697971522808075,-1.2230302095413208
1789799506197864200,1.2168642578125,-0.454181045293808,0.47690099477767944,-1.2133843898773193
1789799506207835100,1.226835205078125,-0.2595452666282654,0.30948910117149353,-1.0257329940795898
1789799506217807400,1.236807373046875,-0.06889820843935013,0.18730497360229492,-0.6713889837265015
1789799506227778300,1.2467783203125,0.03441273048520088,0.18031258881092072,-0.26051539182662964
1789799506237749200,1.256749267578125,0.02713715098798275,0.256336510181427,0.09316400438547134
1789799506247721200,1.26672119140625,-0.036432500928640366,0.33685559034347534,0.35463982820510864
1789799506257692400,1.2766923828125,-0.09227054566144943,0.381160169839859,0.5382640957832336
1789799506267663400,1.286663330078125,-0.09017463773488998,0.38881728053092957,0.6485738158226013
1789799506277635300,1.29663525390625,-0.021998224779963493,0.3343862295150757,0.6622909903526306
1789799506287606300,1.306606201171875,0.073685422539711,0.23988953232765198,0.5805156826972961
1789799506297577200,1.3165771484375,0.15947839617729187,0.18530623614788055,0.46818307042121887
1789799506307549200,1.326549072265625,0.23262983560562134,0.2074671983718872,0.4177587926387787
1789799506317520100,1.33652001953125,0.3112497329711914,0.2159617692232132,0.47149139642715454
1789799506327492400,1.346492431640625,0.3774804174900055,0.15695145726203918,0.6025543212890625
1789799506337463000,1.356463134765625,0.4098750650882721,0.02022765390574932,0.7345554232597351
1789799506347434200,1.366434326171875,0.3937956988811493,-0.16695955395698547,0.7941604256629944
1789799506357406200,1.37640625,0.32968151569366455,-0.28445303440093994,0.7628709077835083
1789799506367377400,1.38637744140625,0.25119709968566895,-0.29425132274627686,0.6696032285690308
1789799506377348000,1.39634814453125,0.1964392513036728,-0.28017038106918335,0.5350539088249207
1789799506387320300,1.4063203125,0.18999412655830383,-0.36388418078422546,0.38067206740379333
1789799506397291300,1.416291259765625,0.21210987865924835,-0.5380035638809204,0.23119017481803894
1789799506407262200,1.42626220703125,0.2314702719449997,-0.6995416283607483,0.12594284117221832
1789799506417234200,1.436234130859375,0.2631802558898926,-0.8789227604866028,0.08234618604183197
1789799506427205400,1.446205322265625,0.3596642017364502,-1.1105105876922607,0.0664798766374588
1789799506437176300,1.45617626953125,0.5564242005348206,-1.2626068592071533,0.03218688443303108
1789799506447148300,1.466148193359375,0.8466688394546509,-1.3664623498916626,-0.015233626589179039
1789799506457119200,1.476119140625,1.166487216949463,-1.6222479343414307,-0.009272553026676178
1789799506467090200,1.486090087890625,1.4540506601333618,-2.0855274200439453,-0.04214021936058998
1789799506477062100,1.496062255859375,1.7323458194732666,-2.8082709312438965,-0.0722750797867775
1789799506487033000,1.506033203125,1.9932913780212402,-3.7312138080596924,-0.01770344190299511
1789799506497004300,1.51600439453125,2.27428936958313,-4.769911766052246,0.21856625378131866
1789799506506976300,1.525976318359375,2.562556505203247,-5.815831661224365,0.6274725198745728
1789799506516947200,1.535947265625,2.8170344829559326,-6.73195743560791,1.146706223487854
1789799506526918100,1.545918212890625,3.020566463470459,-7.355323314666748,1.7201662063598633
1789799506536890400,1.555890380859375,3.2542946338653564,-7.695658206939697,2.2782788276672363
1789799506546861000,1.565861083984375,3.4894144535064697,-7.943914890289307,2.711015224456787
1789799506556832300,1.575832275390625,3.8337559700012207,-7.993340015411377,2.949080467224121
1789799506566804200,1.58580419921875,4.196020126342773,-7.768980026245117,2.9817938804626465
1789799506576775400,1.595775390625,4.555722236633301,-7.3202619552612305,2.775782346725464
1789799506586747100,1.6057470703125,4.916893005371094,-6.642080783843994,2.383607864379883
1789799506596718300,1.61571826171875,5.1575212478637695,-5.637527942657471,1.9009536504745483
1789799506606689300,1.625689208984375,5.359982013702393,-4.31958532333374,1.3703289031982422
1789799506616661200,1.6356611328125,5.775670051574707,-3.488109827041626,0.8182716965675354
1789799506626632200,1.645632080078125,6.032939434051514,-2.8280794620513916,0.3694973289966583
1789799506636603400,1.655603271484375,6.105322360992432,-2.061401128768921,0.006164046470075846
1789799506646575000,1.6655751953125,6.149871826171875,-1.181835412979126,-0.3300618827342987
1789799506656546300,1.67554638671875,6.16981315612793,-0.3296224772930145,-0.6156397461891174
1789799506666517200,1.685517333984375,6.0945658683776855,0.2953662872314453,-0.8556297421455383
1789799506676489500,1.695489501953125,5.963764667510986,0.6519754528999329,-0.9912017583847046
1789799506686460200,1.705460205078125,5.804656982421875,0.8407378792762756,-0.9368029832839966
1789799506696431400,1.715431396484375,5.692216396331787,0.785255491733551,-0.6693376302719116
1789799506706403300,1.7254033203125,5.677915096282959,0.3637639284133911,-0.3255826234817505
1789799506716374300,1.735374267578125,5.577758312225342,-0.052526235580444336,0.10389091819524765
1789799506726345200,1.74534521484375,5.267828941345215,-0.25836488604545593,0.52977454662323
1789799506736317400,1.7553173828125,4.710929870605469,-0.2060791254043579,0.8990857601165771
1789799506746288400,1.765288330078125,4.1984968185424805,0.1699773371219635,1.1849572658538818
1789799506756259300,1.77525927734375,3.7114944458007812,0.9343786239624023,1.2559397220611572
1789799506766231300,1.785231201171875,3.2555644512176514,1.3642083406448364,1.0149383544921875
1789799506776202200,1.7952021484375,3.236941337585449,2.05769944190979,0.7453827261924744
1789799506786173400,1.80517333984375,3.034966468811035,2.6177234649658203,0.4351612329483032
1789799506796145200,1.815145263671875,2.59185528755188,2.132525682449341,0.12417636811733246
1789799506806116400,1.825116455078125,2.209912061691284,1.7320606708526611,-0.24932584166526794
1789799506816087300,1.83508740234375,1.983412504196167,2.178048610687256,-0.8023126721382141
1789799506826059300,1.845059326171875,1.7717764377593994,2.512892007827759,-1.3470878601074219
1789799506836030200,1.8550302734375,1.48746657371521,2.504531145095825,-1.053612470626831
1789799506846001400,1.86500146484375,1.0668338537216187,2.208958148956299,-0.3978729546070099
1789799506855973000,1.87497314453125,0.5921107530593872,1.4352314472198486,-0.0453813374042511
1789799506865944300,1.8849443359375,0.3094426095485687,0.6122613549232483,0.1339801698923111
1789799506875915300,1.894915283203125,0.34044310450553894,0.49015775322914124,0.12678846716880798
1789799506885887500,1.904887451171875,0.30361318588256836,0.36207273602485657,-0.08284758031368256
1789799506895858200,1.914858154296875,0.17126715183258057,-0.16886161267757416,-0.11098511517047882
1789799506905830400,1.924830322265625,0.01332918182015419,-0.6795411109924316,0.10941596329212189
1789799506915801300,1.93480126953125,-0.0990067571401596,-1.0520707368850708,0.40271326899528503
1789799506925772300,1.944772216796875,-0.29625698924064636,-0.9143632054328918,0.5062494874000549
1789799506935743200,1.9547431640625,-0.50823575258255,-0.925311267375946,0.8093385100364685
1789799506945715200,1.964715087890625,-0.7601848840713501,-1.2646468877792358,1.755807638168335
1789799506955686400,1.974686279296875,-0.6663007736206055,-0.8302459120750427,1.80068838596344
1789799506965658000,1.984658203125,-0.2754901349544525,-0.3221296966075897,1.2216085195541382
1789799506975629300,1.99462939453125,0.0830828920006752,0.2783372700214386,0.5895810127258301
1789799506985600300,2.004600341796875,0.0942777618765831,0.5036242008209229,0.26304230093955994
1789799506995572200,2.014572265625,-0.21209068596363068,0.2821592688560486,0.38073068857192993
1789799507005543200,2.024543212890625,-0.608201265335083,-0.19312603771686554,0.6611341238021851
1789799507015514400,2.034514404296875,-0.8365784883499146,-0.7069117426872253,0.811204195022583
1789799507025486300,2.044486328125,-0.864256739616394,-1.1287513971328735,0.7992566823959351
1789799507035457300,2.054457275390625,-1.0081888437271118,-1.1390926837921143,0.7260921597480774
1789799507045428200,2.06442822265625,-1.3651604652404785,-1.2975313663482666,0.7173897624015808
1789799507055400400,2.074400390625,-1.7439044713974,-1.2785645723342896,0.7739606499671936
1789799507065371400,2.084371337890625,-2.0652191638946533,-1.231041431427002,0.7721140384674072
1789799507075342000,2.094342041015625,-2.373765707015991,-1.3592647314071655,0.6516000628471375
1789799507085314300,2.104314208984375,-2.7093260288238525,-1.6457293033599854,0.5380407571792603
1789799507095285200,2.11428515625,-3.068495750427246,-1.9915127754211426,0.3800177276134491
1789799507105256200,2.124256103515625,-3.437485694885254,-2.2732808589935303,0.1800960898399353
1789799507115228200,2.134228271484375,-3.2690508365631104,-2.4718918800354004,-0.137991264462471
1789799507125199400,2.144199462890625,-3.0323212146759033,-2.2941133975982666,-0.25639060139656067
1789799507135170300,2.15417041015625,-2.9715733528137207,-2.015260696411133,-0.2852862477302551
1789799507145142300,2.164142333984375,-2.8043558597564697,-2.2764182090759277,-0.10505016148090363
1789799507155113200,2.17411328125,-2.367971420288086,-2.4063193798065186,0.14095433056354523
1789799507165084400,2.18408447265625,-1.9654450416564941,-2.442647933959961,0.2434341013431549
1789799507175056100,2.19405615234375,-2.028506278991699,-2.696455478668213,0.2869997024536133
1789799507185027300,2.20402734375,-1.7660086154937744,-2.6768991947174072,0.0976334884762764
1789799507194999300,2.213999267578125,-1.491705060005188,-1.719506025314331,-0.35735660791397095
1789799507204970200,2.22397021484375,-1.5515968799591064,-0.8005793690681458,-1.0905191898345947
1789799507214941200,2.233941162109375,-1.6345230340957642,-0.2479008436203003,-1.617079496383667
1789799507224913400,2.243913330078125,-1.7192808389663696,0.14394362270832062,-1.7091646194458008
1789799507234884400,2.25388427734375,-1.7728403806686401,0.5101986527442932,-1.6810221672058105
1789799507244855000,2.26385498046875,-1.6640499830245972,0.28414204716682434,-1.609503149986267
1789799507254827300,2.2738271484375,-1.3302372694015503,-0.18107669055461884,-1.291747808456421
1789799507264798200,2.283798095703125,-1.0343462228775024,-0.46615371108055115,-1.1101945638656616
1789799507274769400,2.293769287109375,-0.8556347489356995,-0.7368710041046143,-0.9627708792686462
1789799507284741000,2.3037412109375,-0.5529401302337646,-0.6929400563240051,-1.044404149055481
1789799507294712300,2.31371240234375,-0.1510171741247177,-0.5614492893218994,-1.2517304420471191
1789799507304683300,2.323683349609375,0.16479749977588654,-0.3535209000110626,-1.4013811349868774
1789799507314655200,2.3336552734375,0.466778427362442,-0.1078958809375763,-1.516566514968872
1789799507324626200,2.343626220703125,0.7224312424659729,0.19380298256874084,-1.5791614055633545
1789799507334597400,2.353597412109375,0.9489151239395142,0.4629563093185425,-1.5968165397644043
1789799507344569000,2.363569091796875,1.2416082620620728,0.5875150561332703,-1.578080177307129
1789799507354540300,2.373540283203125,1.5371075868606567,0.44449347257614136,-1.4983489513397217
1789799507364511200,2.38351123046875,1.9259933233261108,0.5507826209068298,-1.1070836782455444
1789799507374483500,2.3934833984375,2.4583773612976074,1.739212989807129,-0.5587185025215149
1789799507384454100,2.4034541015625,2.8625221252441406,2.5089900493621826,-0.4561631381511688
1789799507394425300,2.41342529296875,3.0046632289886475,2.871048927307129,-0.4444502294063568
1789799507404397300,2.423397216796875,3.060957431793213,2.000588893890381,-0.2704493999481201
1789799507414368500,2.433368408203125,2.903407573699951,1.6659480333328247,-0.293976753950119
1789799507424339200,2.443339111328125,2.5953619480133057,1.9420627355575562,-0.5887212753295898
1789799507434311400,2.4533115234375,2.181603193283081,2.2691469192504883,-0.7705788612365723
1789799507444282400,2.463282470703125,1.909636378288269,1.3525996208190918,-0.6755711436271667
1789799507454253300,2.47325341796875,1.6559011936187744,0.5471662878990173,-0.514144778251648
1789799507464225300,2.483225341796875,1.3511899709701538,0.5594053864479065,-0.5146678686141968
1789799507474196200,2.4931962890625,1.089046835899353,0.8103892803192139,-0.6285465955734253
1789799507484167400,2.50316748046875,0.9478870034217834,1.025903582572937,-0.6876770257949829
1789799507494139100,2.51313916015625,0.8396246433258057,1.0205985307693481,-0.5612181425094604
1789799507504110300,2.5231103515625,0.5632388591766357,0.7860371470451355,-0.314103364944458
1789799507514081800,2.533081787109375,0.1730208545923233,0.29694825410842896,-0.09864765405654907
1789799507524053500,2.543053466796875,-0.25725463032722473,0.0526793897151947,0.0531940683722496
1789799507534024700,2.553024658203125,-1.0668084621429443,0.06901134550571442,-0.12447060644626617
1789799507543995600,2.56299560546875,-1.414770483970642,-0.1656099557876587,-0.18801097571849823
1789799507553967600,2.572967529296875,-1.468719720840454,-0.5890089869499207,-0.2067646086215973
1789799507563938600,2.5829384765625,-1.5919886827468872,-1.2939482927322388,-0.15387609601020813
1789799507573910800,2.592910888671875,-1.8278285264968872,-2.315397024154663,-0.27111363410949707
1789799507583881700,2.6028818359375,-1.7241345643997192,-3.5296742916107178,-0.6405095458030701
1789799507593852700,2.612852783203125,-0.8182432055473328,-2.885463237762451,-1.2122509479522705
1789799507603824600,2.62282470703125,-0.3544297218322754,-1.4933223724365234,-1.332598090171814
1789799507613795800,2.6327958984375,-0.354358047246933,-0.7444224953651428,-1.0630500316619873
1789799507623766800,2.642766845703125,-0.39876094460487366,-0.4638635218143463,-0.5701578259468079
1789799507633738800,2.65273876953125,-0.3887503445148468,-0.32181766629219055,-0.02402549609541893
1789799507643709700,2.662709716796875,-0.42021265625953674,-0.06706633418798447,0.4722830653190613
1789799507653680600,2.6726806640625,-0.44135522842407227,0.1280568689107895,0.7067704200744629
1789799507663652600,2.682652587890625,-0.31619811058044434,0.22041930258274078,0.6259323358535767
1789799507673623600,2.69262353515625,-0.12687942385673523,0.2872558534145355,0.3086419403553009
1789799507683594800,2.7025947265625,-0.06505466997623444,0.23520758748054504,-0.05076869949698448
1789799507693566500,2.71256640625,-0.09710948169231415,0.046706877648830414,-0.23058852553367615
1789799507703537700,2.72253759765625,-0.051722027361392975,-0.07933307439088821,-0.17602595686912537
1789799507713508600,2.732508544921875,0.1437646597623825,0.18297718465328217,0.014222388155758381
1789799507723480600,2.74248046875,0.2756425440311432,0.5320472717285156,0.19741190969944
1789799507733451500,2.752451416015625,0.3271038830280304,0.63738614320755,0.2718302011489868
1789799507743422700,2.762422607421875,0.3910596966743469,0.792275071144104,0.4056966304779053
1789799507753394700,2.772394775390625,0.4225652515888214,1.3369064331054688,0.05601571500301361
1789799507763365600,2.78236572265625,0.9877234101295471,1.5111123323440552,0.04019547253847122
1789799507773336600,2.792336669921875,1.0471678972244263,1.9233083724975586,0.1393076628446579
1789799507783308800,2.802308837890625,0.5207310914993286,2.039337635040283,0.4926351010799408
1789799507793279700,2.81227978515625,0.2980228662490845,1.8341630697250366,0.7810121178627014
1789799507803250400,2.82225048828125,0.27664780616760254,1.3414071798324585,0.7580814957618713
1789799507813222700,2.83222265625,0.48476436734199524,0.7825127243995667,0.6176493763923645
1789799507823193600,2.842193603515625,0.7804292440414429,0.943346381187439,0.7378647327423096
1789799507833164800,2.852164794921875,0.919767439365387,1.1461845636367798,0.7866209149360657
1789799507843136500,2.862136474609375,1.0094482898712158,1.200847864151001,0.4072093963623047
1789799507853107700,2.872107666015625,1.1557575464248657,1.126765251159668,-0.19620072841644287
1789799507863078700,2.88207861328125,0.6298556923866272,0.8223006129264832,-0.16944395005702972
1789799507873050600,2.892050537109375,0.7845008969306946,0.3592749834060669,-0.2434602975845337
1789799507883021600,2.902021484375,1.4533120393753052,0.06409768015146255,-0.3840690851211548
1789799507892993800,2.911993896484375,1.2581076622009277,0.7200853228569031,-1.1871448755264282
1789799507902964500,2.921964599609375,0.9589491486549377,1.9421145915985107,-1.82339346408844
1789799507912935700,2.931935791015625,1.0512828826904297,1.4793689250946045,-0.8358297348022461
1789799507922907600,2.94190771484375,1.6916990280151367,0.7471789121627808,-0.6288602948188782
1789799507932878800,2.95187890625,1.9117993116378784,0.6413600444793701,-0.418691486120224
1789799507942849500,2.961849609375,1.853385329246521,0.5208969712257385,-0.35520729422569275
1789799507952821800,2.97182177734375,1.661666750907898,0.4000917375087738,-0.3351747393608093
1789799507962792700,2.981792724609375,1.6760309934616089,0.6280261278152466,-0.19050917029380798
1789799507972763600,2.991763671875,1.6944271326065063,0.6296171545982361,-0.1591474413871765
1789799507982735600,3.001735595703125,1.6991121768951416,0.5256713032722473,-0.2914772629737854
1789799507992706600,3.01170654296875,1.7335301637649536,0.25156494975090027,-0.5184382200241089
1789799508002677800,3.021677734375,1.8939049243927002,-0.06335011124610901,-0.6555342674255371
1789799508012649700,3.031649658203125,2.028202533721924,0.04041575640439987,-0.6054869890213013
1789799508022620700,3.04162060546875,2.0428295135498047,0.35585466027259827,-0.45359039306640625
1789799508032591600,3.051591552734375,1.958738088607788,0.5370546579360962,-0.36915549635887146
1789799508042563600,3.0615634765625,1.823503017425537,0.30602866411209106,-0.4386512041091919
1789799508052534500,3.071534423828125,1.7047003507614136,-0.020996566861867905,-0.5619643926620483
1789799508062505700,3.081505615234375,1.505781650543213,0.02644525095820427,-0.5306804776191711
1789799508072477700,3.091477783203125,1.3109042644500732,0.2334938943386078,-0.46237877011299133
1789799508082448600,3.10144873046875,1.173107624053955,0.25785699486732483,-0.4271416962146759
1789799508092419600,3.111419677734375,1.0740976333618164,0.06284397095441818,-0.3647351861000061
1789799508102391800,3.121391845703125,0.9726104736328125,-0.14366179704666138,-0.30281057953834534
1789799508112362500,3.131362548828125,0.8340649604797363,-0.1710941344499588,-0.2872380018234253
1789799508122333700,3.141333740234375,0.7805234789848328,-0.17494720220565796,-0.3118405342102051
1789799508132305700,3.1513056640625,0.8728286623954773,-0.20781290531158447,-0.26536959409713745
1789799508142276900,3.16127685546875,0.9784035682678223,-0.29425299167633057,-0.1399834305047989
1789799508152247600,3.17124755859375,1.0495784282684326,-0.4658461809158325,-0.017886992543935776
1789799508162219800,3.1812197265625,1.042781949043274,-0.5615631341934204,0.05326041951775551
1789799508172190700,3.191190673828125,0.9354249835014343,-0.604820728302002,0.09250552207231522
1789799508182161700,3.20116162109375,0.7643547058105469,-0.5676477551460266,0.1693827211856842
1789799508192133600,3.211133544921875,0.5661115050315857,-0.47190937399864197,0.23965056240558624
1789799508202104600,3.2211044921875,0.3978796601295471,-0.35893169045448303,0.2801433801651001
1789799508212075800,3.23107568359375,0.30220478773117065,-0.2836264967918396,0.28139084577560425
1789799508222047500,3.241047607421875,0.19689300656318665,-0.43877536058425903,0.23515009880065918
1789799508232018700,3.251018798828125,0.03558380901813507,-0.7279190421104431,0.18155184388160706
1789799508241990700,3.26099072265625,-0.15015436708927155,-0.8777074813842773,0.16763097047805786
1789799508251961600,3.270961669921875,-0.3502807021141052,-0.7577874660491943,0.1870819628238678
1789799508261932500,3.2809326171875,-0.5332912802696228,-0.5140587091445923,0.17037570476531982
1789799508271904800,3.29090478515625,-0.6787412166595459,-0.2942582070827484,0.136637344956398
1789799508281875700,3.300875732421875,-0.8215540051460266,-0.12869934737682343,0.13097599148750305
1789799508291846700,3.3108466796875,-0.9336799383163452,0.03566763550043106,0.15487150847911835
1789799508301818600,3.320818603515625,-0.9534680247306824,0.0752861499786377,0.18377159535884857
1789799508311789800,3.330789794921875,-0.8560184836387634,-0.2921261191368103,0.22332054376602173
1789799508321760800,3.3407607421875,-0.7513874173164368,-0.6477764248847961,0.3476685881614685
1789799508331732700,3.350732666015625,-0.6603880524635315,-0.6000936031341553,0.519349992275238
1789799508341703700,3.36070361328125,-0.6045572757720947,-0.34302935004234314,0.6085248589515686
1789799508351674600,3.370674560546875,-0.5881852507591248,-0.33241984248161316,0.5632553696632385
1789799508361646600,3.380646484375,-0.6252346038818359,-0.474019855260849,0.4610491394996643
1789799508371617500,3.390617431640625,-0.6739247441291809,-0.6298419237136841,0.3560329079627991
1789799508381588700,3.400588623046875,-0.7044341564178467,-0.7006798982620239,0.23345264792442322
1789799508391560400,3.410560546875,-0.7796939611434937,-0.6304622888565063,0.09666565805673599
1789799508401531600,3.42053173828125,-0.828836977481842,-0.605160653591156,-0.009899928234517574
1789799508411502600,3.430502685546875,-0.8932188749313354,-0.5627450346946716,-0.02439538575708866
1789799508421474800,3.440474853515625,-0.9681205749511719,-0.49372515082359314,0.016736071556806564
1789799508431445500,3.450445556640625,-1.0539969205856323,-0.35655832290649414,0.08360951393842697
1789799508441416700,3.460416748046875,-1.082931637763977,-0.2797314524650574,0.12654367089271545
1789799508451388700,3.470388671875,-1.086326003074646,-0.33633291721343994,0.1471736580133438
1789799508461359600,3.480359619140625,-1.1459376811981201,-0.45581668615341187,0.1406979113817215
1789799508471330600,3.49033056640625,-1.234201192855835,-0.4560146629810333,0.1125667542219162
1789799508481302800,3.500302734375,-1.3249651193618774,-0.3206738531589508,0.0793861597776413
1789799508491273700,3.510273681640625,-1.3340048789978027,-0.13160313665866852,0.02815280109643936
1789799508501245700,3.52024560546875,-1.251225471496582,-0.17844495177268982,-0.0856882855296135
1789799508511216400,3.53021630859375,-1.164328694343567,-0.3209446370601654,-0.21487081050872803
1789799508521187600,3.5401875,-1.1656200885772705,-0.3560701310634613,-0.2662527561187744
1789799508531159300,3.5501591796875,-1.2418391704559326,-0.29744720458984375,-0.25864943861961365
1789799508541130500,3.560130615234375,-1.3392443656921387,-0.24622905254364014,-0.26787862181663513
1789799508551101400,3.570101318359375,-1.385860800743103,-0.09958168119192123,-0.2998318374156952
1789799508561073700,3.58007373046875,-1.4031742811203003,0.31676360964775085,-0.3235430419445038
1789799508571044400,3.59004443359375,-1.3499239683151245,0.6241079568862915,-0.3559616208076477
1789799508581015600,3.600015625,-1.3341526985168457,0.5368257761001587,-0.34489619731903076
1789799508590987500,3.609987548828125,-1.3855149745941162,0.28492021560668945,-0.23592986166477203
1789799508600958500,3.61995849609375,-1.446746587753296,0.10883652418851852,-0.13097521662712097
1789799508610929400,3.629929443359375,-1.4690862894058228,0.04175958037376404,-0.1637440174818039
1789799508620901600,3.639901611328125,-1.4568582773208618,-0.04109029471874237,-0.23077072203159332
1789799508630872600,3.64987255859375,-1.4541590213775635,-0.17809118330478668,-0.26822206377983093
1789799508640843300,3.65984326171875,-1.471171259880066,-0.30537885427474976,-0.3090595304965973
1789799508650815500,3.6698154296875,-1.520976185798645,-0.263950377702713,-0.3863612711429596
1789799508660786400,3.679786376953125,-1.56449294090271,-0.1911635398864746,-0.4758269786834717
1789799508670757600,3.689757568359375,-1.567161202430725,-0.08715582638978958,-0.473379909992218
1789799508680729300,3.699729248046875,-1.5161443948745728,-0.11975717544555664,-0.44142571091651917
1789799508690700500,3.709700439453125,-1.421623945236206,-0.12409127503633499,-0.4479764401912689
1789799508700671500,3.71967138671875,-1.3521701097488403,-0.05632661655545235,-0.49858635663986206
1789799508710643500,3.7296435546875,-1.3527880907058716,-0.15350762009620667,-0.4923399090766907
1789799508720614400,3.739614501953125,-1.3657797574996948,-0.4170588254928589,-0.4290804862976074
1789799508730585600,3.749585693359375,-1.2907265424728394,-0.7177919745445251,-0.4264381229877472
1789799508740557300,3.759557373046875,-1.1491811275482178,-0.6031719446182251,-0.45274800062179565
1789799508750528500,3.769528564453125,-1.0556601285934448,-0.5972946286201477,-0.4320225417613983
1789799508760500500,3.77950048828125,-0.9647493958473206,-0.755606472492218,-0.3400936722755432
1789799508770471700,3.7894716796875,-0.8319180607795715,-0.7845810055732727,-0.30174824595451355
1789799508780442400,3.7994423828125,-0.6908522844314575,-0.6710602641105652,-0.26559504866600037
1789799508790414600,3.80941455078125,-0.5920721888542175,-0.434148371219635,-0.11036201566457748
1789799508800385500,3.819385498046875,-0.5246201753616333,-0.07498940825462341,0.06818749010562897
1789799508810356500,3.8293564453125,-0.460209459066391,0.25846144556999207,0.2100132554769516
1789799508820328400,3.839328369140625,-0.4625037908554077,0.4508726894855499,0.2335960865020752
1789799508830299400,3.84929931640625,-0.41046589612960815,0.32059815526008606,0.12081772834062576
1789799508840270600,3.8592705078125,-0.26354914903640747,0.2061658501625061,0.0036953650414943695
1789799508850242300,3.8692421875,-0.11589202284812927,0.06166376918554306,-0.056497957557439804
1789799508860213500,3.879213623046875,0.020636798813939095,-0.17735280096530914,-0.04510442167520523
1789799508870184400,3.889184326171875,0.14779414236545563,-0.26347815990448,0.018503740429878235
1789799508880156400,3.899156494140625,0.20621004700660706,-0.19648393988609314,0.1189136952161789
1789799508890127400,3.90912744140625,0.17038370668888092,-0.15638262033462524,0.2050715535879135
1789799508900098600,3.9190986328125,0.14901556074619293,-0.11532492190599442,0.2906852662563324
1789799508910070500,3.929070556640625,0.19945313036441803,-0.0009333874331787229,0.30417466163635254
1789799508920041500,3.93904150390625,0.3403186500072479,0.16057081520557404,0.27172163128852844
1789799508930012400,3.949012451171875,0.5149620771408081,0.16631212830543518,0.24850134551525116
1789799508939984600,3.958984619140625,0.6244766116142273,0.12609918415546417,0.25607508420944214
1789799508949955600,3.96895556640625,0.7407283186912537,0.3326943516731262,0.24536928534507751
1789799508959926500,3.978926513671875,0.9383473992347717,0.49259454011917114,0.25270867347717285
1789799508969898500,3.9888984375,1.091140627861023,0.5096850395202637,0.3180815577507019
1789799508979869700,3.99886962890625,1.2114529609680176,0.4166935980319977,0.35567447543144226
1789799508989841400,4.00884130859375,1.3194684982299805,0.43049120903015137,0.37777090072631836
1789799508999812600,4.0188125,1.4443470239639282,0.5900191068649292,0.37117263674736023
1789799509009783600,4.028783447265625,1.5656554698944092,0.6522186398506165,0.3134680390357971
1789799509019755500,4.038755615234375,1.6803148984909058,0.5259307622909546,0.22116847336292267
1789799509029726500,4.0487265625,1.8342902660369873,0.5310899019241333,0.16963745653629303
1789799509039697400,4.058697509765625,2.037475109100342,0.8332119584083557,0.20504391193389893
1789799509049669600,4.068669677734375,2.105508804321289,1.0487180948257446,0.21989230811595917
1789799509059640300,4.078640380859375,1.97097647190094,0.8340334296226501,0.11791028082370758
1789799509069611500,4.088611572265625,1.8366128206253052,0.5244061350822449,0.10146027058362961
1789799509079583500,4.09858349609375,1.8245407342910767,0.35237419605255127,0.10480120778083801
1789799509089554400,4.108554443359375,1.934861183166504,0.293631911277771,0.04668619856238365
1789799509099525400,4.118525390625,1.98775315284729,0.30671095848083496,0.011989206075668335
1789799509109497600,4.12849755859375,1.9621431827545166,0.3361584544181824,-0.06722605973482132
1789799509119468500,4.138468505859375,1.8798949718475342,0.38851991295814514,-0.13659554719924927
1789799509129439500,4.148439453125,1.8253458738327026,0.48673537373542786,-0.19695575535297394
1789799509139411500,4.158411376953125,1.857295274734497,0.3896263837814331,-0.2683311402797699
1789799509149382700,4.168382568359375,1.818122148513794,0.25038421154022217,-0.28043168783187866
1789799509159354400,4.178354248046875,1.6502511501312256,0.3462252616882324,-0.22234493494033813
1789799509169325600,4.18832568359375,1.5219950675964355,0.7806546688079834,-0.18531803786754608
1789799509179296500,4.198296630859375,1.5665769577026367,1.136059045791626,-0.1418621689081192
1789799509189268500,4.2082685546875,1.7101740837097168,1.1641253232955933,-0.11180286854505539
1789799509199239400,4.218239501953125,1.854840636253357,0.8743911981582642,-0.14245185256004333
1789799509209210400,4.22821044921875,1.8922747373580933,0.47031867504119873,-0.1796826869249344
1789799509219182600,4.2381826171875,1.767134666442871,0.21576760709285736,-0.1534649282693863
1789799509229153300,4.2481533203125,1.5895445346832275,0.042983341962099075,-0.11229696869850159
1789799509239124500,4.25812451171875,1.4390966892242432,-0.19147177040576935,-0.08503711223602295
1789799509249096400,4.268096435546875,1.3480855226516724,-0.21926230192184448,-0.11612847447395325
1789799509259067600,4.278067626953125,1.342332124710083,-0.1492195725440979,-0.14544294774532318
1789799509269038300,4.288038330078125,1.25014066696167,-0.23696750402450562,-0.08768908679485321
1789799509279010600,4.298010498046875,1.1274850368499756,-0.4361160099506378,0.018845876678824425
1789799509288981500,4.3079814453125,1.0395760536193848,-0.513192892074585,0.03854088857769966
1789799509298952700,4.31795263671875,0.9931656122207642,-0.5312113165855408,-0.05600239709019661
1789799509308924400,4.32792431640625,0.9594315886497498,-0.5118770599365234,-0.1701604425907135
1789799509318895600,4.3378955078125,0.857571542263031,-0.6619882583618164,-0.24677613377571106
1789799509328866600,4.347866455078125,0.7661914825439453,-0.74212646484375,-0.18142369389533997
1789799509338838500,4.357838623046875,0.6984155774116516,-0.4159790277481079,-0.01543419063091278
1789799509348809500,4.3678095703125,0.4660397469997406,0.08513656258583069,0.12600703537464142
1789799509358780400,4.377780517578125,0.24125778675079346,0.23344294726848602,0.1749359667301178
1789799509368752400,4.38775244140625,0.09790723025798798,0.06614861637353897,0.15958212316036224
1789799509378723300,4.397723388671875,-0.023988045752048492,-0.21284574270248413,0.1300402134656906
1789799509388695600,4.407695556640625,-0.13243475556373596,-0.18005797266960144,0.09828399866819382
1789799509398666500,4.41766650390625,-0.2146201729774475,0.00040954852011054754,0.037314388900995255
1789799509408637400,4.427637451171875,-0.29281187057495117,0.10623883455991745,-0.06603536009788513
1789799509418609400,4.437609375,-0.35836052894592285,0.08605606853961945,-0.15071269869804382
1789799509428580600,4.44758056640625,-0.3900892436504364,0.02218903973698616,-0.13277573883533478
1789799509438551600,4.457551513671875,-0.3853895664215088,0.10118212550878525,-0.00003180559724569321
1789799509448523500,4.4675234375,-0.4085594117641449,0.425615131855011,0.15164877474308014
1789799509458494500,4.477494384765625,-0.41816383600234985,0.6675741672515869,0.28005868196487427
1789799509468465700,4.487465576171875,-0.4179741442203522,0.3345494568347931,0.3408856987953186
1789799509478437400,4.497437255859375,-0.4452872574329376,-0.26803839206695557,0.37738537788391113
1789799509488408600,4.50740869140625,-0.5160598754882812,-0.7671453356742859,0.38721024990081787
1789799509498379500,4.517379638671875,-0.6100002527236938,-0.6783952116966248,0.4153963625431061
1789799509508351500,4.5273515625,-0.745741069316864,-0.2462272197008133,0.3965592682361603
1789799509518322000,4.537322021484375,-0.9095081686973572,0.013200892135500908,0.2878018915653229
1789799509528292900,4.54729296875,-1.07980215549469,-0.07446182519197464,0.16411170363426208
1789799509538265000,4.55726513671875,-1.1613153219223022,-0.15526293218135834,0.1427299827337265
1789799509548235800,4.56723583984375,-1.2152409553527832,-0.13107529282569885,0.19012966752052307
1789799509558207000,4.57720703125,-1.194688081741333,-0.24056370556354523,0.1817747950553894
1789799509568179000,4.587178955078125,-1.0830563306808472,-0.6004975438117981,0.10829005390405655
1789799509578150100,4.597150146484375,-0.9662835597991943,-0.9204310774803162,0.05714644119143486
1789799509588121900,4.607121826171875,-0.8998173475265503,-0.9483875632286072,0.03911534324288368
1789799509598093000,4.617093017578125,-0.8896709680557251,-0.7627671360969543,0.001193525968119502
1789799509608064000,4.62706396484375,-0.8760681748390198,-0.44110631942749023,-0.02615329995751381
1789799509618036000,4.637035888671875,-0.889938473701477,-0.02252398431301117,0.019404863938689232
1789799509628007000,4.6470068359375,-0.9689517617225647,0.25215426087379456,0.026417843997478485
1789799509637978000,4.65697802734375,-1.049788236618042,0.29149287939071655,-0.07389810681343079
1789799509647949800,4.66694970703125,-1.0189340114593506,0.0824330672621727,-0.17866352200508118
1789799509657921000,4.676921142578125,-0.9802734851837158,-0.1335223913192749,-0.19474954903125763
1789799509667892000,4.68689208984375,-0.9879558682441711,-0.23039662837982178,-0.16028673946857452
1789799509677864200,4.6968642578125,-1.0852802991867065,-0.2555864155292511,-0.1595304012298584
1789799509687835000,4.7068349609375,-1.209574580192566,-0.26452890038490295,-0.22177642583847046
1789799509697805800,4.716805908203125,-1.3466088771820068,-0.2073678821325302,-0.27901363372802734
1789799509707778000,4.726778076171875,-1.4584509134292603,-0.12950226664543152,-0.27507835626602173
1789799509717749000,4.7367490234375,-1.5000265836715698,-0.20892572402954102,-0.2346944659948349
1789799509727720000,4.746719970703125,-1.567539095878601,-0.4327676594257355,-0.19062557816505432
1789799509737692000,4.75669189453125,-1.6944613456726074,-0.5413495302200317,-0.18242517113685608
1789799509747663000,4.7666630859375,-1.765343427658081,-0.36882269382476807,-0.2069338709115982
1789799509757634000,4.776634033203125,-1.7167212963104248,-0.3127857744693756,-0.255826860666275
1789799509767606000,4.78660595703125,-1.6648125648498535,-0.31494951248168945,-0.2725931406021118
1789799509777577000,4.796576904296875,-1.6562554836273193,-0.31947875022888184,-0.24677512049674988
1789799509787549000,4.806548828125,-1.6253515481948853,-0.254223108291626,-0.19696426391601562
1789799509797520000,4.816519775390625,-1.539179801940918,-0.13020659983158112,-0.19781939685344696
1789799509807491000,4.826490966796875,-1.4812238216400146,-0.02852850779891014,-0.2520882785320282
1789799509817463000,4.836463134765625,-1.43917977809906,-0.08894337713718414,-0.29043087363243103
1789799509827434000,4.84643408203125,-1.4389475584030151,-0.3096716105937958,-0.2510032057762146
1789799509837405000,4.856405029296875,-1.5032176971435547,-0.46030479669570923,-0.19552528858184814
1789799509847377200,4.866377197265625,-1.5752904415130615,-0.471660315990448,-0.18019409477710724
1789799509857347800,4.876347900390625,-1.6260374784469604,-0.4156055748462677,-0.15628956258296967
1789799509867319000,4.886319091796875,-1.6704323291778564,-0.27248015999794006,-0.11767052859067917
1789799509877291000,4.896291015625,-1.6145520210266113,-0.12576128542423248,-0.0767875388264656
1789799509887262200,4.90626220703125,-1.4927423000335693,-0.10387030988931656,0.0029360977932810783
1789799509897233000,4.91623291015625,-1.4161548614501953,-0.09697405248880386,0.12344759702682495
1789799509907205000,4.926205078125,-1.3219261169433594,-0.24927327036857605,0.17495401203632355
1789799509917176000,4.936176025390625,-1.2106142044067383,-0.49764445424079895,0.17709864675998688
1789799509927147000,4.94614697265625,-1.0633771419525146,-0.6311852931976318,0.17470139265060425
1789799509937119000,4.956118896484375,-0.8730210661888123,-0.6768566370010376,0.2015969157218933
1789799509947090000,4.96608984375,-0.6943968534469604,-0.6662415862083435,0.21674875915050507
1789799509957061000,4.97606103515625,-0.5757085680961609,-0.6163198351860046,0.17818352580070496
1789799509967032800,4.98603271484375,-0.4532258212566376,-0.4391288161277771,0.22647243738174438
1789799509977004000,4.996004150390625,-0.2897796332836151,-0.07011563330888748,0.3086269795894623
1789799509986976000,5.00597607421875,-0.18663440644741058,0.13283102214336395,0.38265126943588257
1789799509996947000,5.015947021484375,-0.22044377028942108,0.11301283538341522,0.369995653629303
1789799510006918000,5.02591796875,-0.16885055601596832,0.15306316316127777,0.29477986693382263
1789799510016890000,5.03589013671875,-0.0604252852499485,0.35181671380996704,0.21069350838661194
1789799510026861000,5.045861083984375,0.015012147836387157,0.48868823051452637,0.19688275456428528
1789799510036832000,5.05583203125,0.030872339382767677,0.446499764919281,0.3068638741970062
1789799510046804000,5.065803955078125,0.14063456654548645,0.3946138024330139,0.39494195580482483
1789799510056775200,5.075775146484375,0.3011792302131653,0.5855432748794556,0.38302698731422424
1789799510066746000,5.08574609375,0.47471824288368225,0.9174313545227051,0.3776906728744507
1789799510076718000,5.095718017578125,0.6582532525062561,1.083990454673767,0.41999658942222595
1789799510086689000,5.10568896484375,0.8155072927474976,1.104352593421936,0.4264671206474304
1789799510096660000,5.115659912109375,1.01766836643219,1.176592230796814,0.3617118299007416
1789799510106632000,5.1256318359375,1.2157915830612183,1.2381045818328857,0.2395445555448532
1789799510116603000,5.135602783203125,1.3826549053192139,1.0968440771102905,0.12974216043949127
1789799510126574000,5.145573974609375,1.4692648649215698,0.8963230848312378,0.05796905979514122
1789799510136545800,5.1555458984375,1.5079981088638306,0.6980333924293518,0.06575746834278107
1789799510146517000,5.16551708984375,1.5050593614578247,0.4030616879463196,0.09963453561067581
1789799510156488000,5.175488037109375,1.4766464233398438,0.05950324982404709,0.10200155526399612
1789799510166460200,5.185460205078125,1.5007542371749878,-0.07795795053243637,0.08099685609340668
1789799510176430800,5.195430908203125,1.6373158693313599,0.09632357209920883,0.05567365512251854
1789799510186403000,5.205403076171875,1.8214757442474365,0.343552827835083,0.03372689336538315
1789799510196374000,5.2153740234375,1.9438053369522095,0.49209755659103394,-0.014708546921610832
1789799510206345000,5.225344970703125,1.9810583591461182,0.4474954903125763,-0.09684009850025177
1789799510216317000,5.23531689453125,2.0673696994781494,0.4855195879936218,-0.15178564190864563
1789799510226288000,5.2452880859375,2.25357985496521,0.7598164677619934,-0.1766190081834793
1789799510236259000,5.255259033203125,2.4264116287231445,1.0388000011444092,-0.18398797512054443
1789799510246231000,5.26523095703125,2.439641237258911,1.0914497375488281,-0.2227155566215515
1789799510256202000,5.275201904296875,2.372556447982788,0.8305734395980835,-0.3140212297439575
1789799510266173000,5.2851728515625,2.411267042160034,0.625328004360199,-0.27743685245513916
1789799510276145000,5.295144775390625,2.4093523025512695,0.5353499054908752,-0.189677432179451
1789799510286115800,5.30511572265625,2.315256357192993,0.47479957342147827,-0.18722447752952576
1789799510296087000,5.315087158203125,2.1478073596954346,0.4582240581512451,-0.26661917567253113
1789799510306059000,5.32505908203125,1.959761619567871,0.3978918790817261,-0.3655385673046112
1789799510316030000,5.335030029296875,1.7962384223937988,0.3504042327404022,-0.38333195447921753
1789799510326001000,5.3450009765625,1.6542551517486572,0.3790074288845062,-0.34886616468429565
1789799510335973000,5.35497314453125,1.5201025009155273,0.4808054268360138,-0.3419952094554901
1789799510345943800,5.36494384765625,1.3923910856246948,0.4923653304576874,-0.32951006293296814
1789799510355915000,5.3749150390625,1.249584674835205,0.44111573696136475,-0.270120769739151
1789799510365887000,5.384886962890625,1.139298439025879,0.4190407693386078,-0.25931572914123535
1789799510375858200,5.394858154296875,1.0720232725143433,0.44276556372642517,-0.31276535987854004
1789799510385830000,5.404829833984375,1.055840253829956,0.3396921455860138,-0.3062576949596405
1789799510395801000,5.414801025390625,1.026246428489685,-0.018326183781027794,-0.22718633711338043
1789799510405772000,5.42477197265625,0.9868976473808289,-0.30959784984588623,-0.19629070162773132
1789799510415744000,5.434743896484375,0.9352797269821167,-0.4052719175815582,-0.2681047022342682
1789799510425715000,5.44471484375,0.81989985704422,-0.40914976596832275,-0.325115829706192
1789799510435686000,5.454685791015625,0.6942111253738403,-0.5163829922676086,-0.29918381571769714
1789799510445657900,5.464657958984375,0.546964704990387,-0.5551754236221313,-0.15520454943180084
1789799510455628800,5.47462890625,0.4140513837337494,-0.4852232336997986,-0.01157334540039301
1789799510465600000,5.48460009765625,0.3320666253566742,-0.38969701528549194,0.040974054485559464
1789799510475572000,5.494572021484375,0.27369996905326843,-0.2829524576663971,0.06411319971084595
1789799510485543000,5.50454296875,0.23115219175815582,-0.11214856058359146,0.10744349658489227
1789799510495513900,5.514513916015625,0.17702610790729523,-0.09644922614097595,0.13606129586696625
1789799510505486000,5.524486083984375,0.11078298836946487,-0.15861551463603973,0.1410541534423828
1789799510515457500,5.53445751953125,0.03339872136712074,-0.17494654655456543,0.14417004585266113
1789799510525428500,5.544428466796875,-0.04888260364532471,-0.04994751513004303,0.17689983546733856
1789799510535400700,5.554400634765625,-0.15307851135730743,0.09046152979135513,0.21472923457622528
1789799510545371600,5.56437158203125,-0.2369929701089859,-0.0924694761633873,0.21782393753528595
1789799510555342600,5.574342529296875,-0.2975332736968994,-0.1301548033952713,0.27139315009117126
1789799510565314600,5.584314453125,-0.31583118438720703,-0.29788827896118164,0.31260553002357483
1789799510575285800,5.59428564453125,-0.34607669711112976,-0.693640410900116,0.2991507053375244
1789799510585257500,5.604257568359375,-0.39799314737319946,-1.0301177501678467,0.2899521589279175
1789799510595228700,5.614228759765625,-0.5146151185035706,-0.9640357494354248,0.3132212460041046
1789799510605199600,5.62419970703125,-0.6794772744178772,-0.6061040163040161,0.3246229887008667
1789799510615171600,5.634171630859375,-0.86838299036026,-0.25611963868141174,0.2983863055706024
1789799510625142500,5.644142578125,-1.1091792583465576,-0.0708027258515358,0.2573113441467285
1789799510635113700,5.65411376953125,-1.285938024520874,0.023315249010920525,0.22973401844501495
1789799510645085700,5.664085693359375,-1.3774924278259277,0.06254615634679794,0.21462871134281158
1789799510655056600,5.674056640625,-1.4583009481430054,0.05031319335103035,0.16199906170368195
1789799510665027600,5.684027587890625,-1.556594729423523,-0.04013175144791603,0.10611848533153534
1789799510674999800,5.693999755859375,-1.5763391256332397,-0.3464200496673584,0.05315034091472626
1789799510684970500,5.703970458984375,-1.556378960609436,-0.43267014622688293,0.04672857001423836
1789799510694941400,5.71394140625,-1.4917280673980713,-0.36427006125450134,0.041846729815006256
1789799510704913700,5.72391357421875,-1.4036531448364258,-0.3034835457801819,0.014623142778873444
1789799510714884600,5.733884521484375,-1.2750613689422607,-0.40795403718948364,0.004753468092530966
1789799510724855600,5.74385546875,-1.2421404123306274,-0.6533933281898499,-0.006855546496808529
1789799510734827500,5.75382763671875,-1.309510350227356,-0.7622961401939392,-0.06601740419864655
1789799510744798700,5.763798828125,-1.3374953269958496,-0.6595603227615356,-0.17257456481456757
1789799510754769700,5.773769775390625,-1.3238221406936646,-0.5016639232635498,-0.3311713933944702
1789799510764741600,5.78374169921875,-1.3319361209869385,-0.28012049198150635,-0.44466352462768555
1789799510774712600,5.793712646484375,-1.3497978448867798,0.03652854263782501,-0.45144394040107727
1789799510784683800,5.803683837890625,-1.3782232999801636,0.0884171724319458,-0.39244526624679565
1789799510794655500,5.813655517578125,-1.4063587188720703,-0.03726165369153023,-0.34341007471084595
1789799510804626700,5.823626708984375,-1.3929003477096558,0.10487222671508789,-0.28978341817855835
1789799510814597600,5.83359765625,-1.395405888557434,0.29284876585006714,-0.28564831614494324
1789799510824569600,5.843569580078125,-1.3768476247787476,0.08741525560617447,-0.2550698220729828
1789799510834540500,5.85354052734375,-1.4359936714172363,-0.2691841423511505,-0.15436531603336334
1789799510844511500,5.863511474609375,-1.5770882368087769,-0.3897880017757416,-0.09561138600111008
1789799510854483700,5.873483642578125,-1.6484005451202393,-0.3079650402069092,-0.13931971788406372
1789799510864454400,5.883454345703125,-1.6160774230957031,-0.24858015775680542,-0.23244789242744446
1789799510874426600,5.893426513671875,-1.584852695465088,-0.27629512548446655,-0.3178836703300476
1789799510884397600,5.9033974609375,-1.614029884338379,-0.3397778570652008,-0.3628022074699402
1789799510894368800,5.91336865234375,-1.6526236534118652,-0.3739677965641022,-0.3861578404903412
1789799510904340500,5.923340576171875,-1.6941685676574707,-0.27573055028915405,-0.3987070620059967
1789799510914311700,5.933311767578125,-1.6468812227249146,-0.0893058329820633,-0.36489182710647583
1789799510924282600,5.94328271484375,-1.5434465408325195,0.0037432191893458366,-0.30354344844818115
1789799510934254600,5.953254638671875,-1.453017234802246,-0.21983395516872406,-0.29160237312316895
1789799510944225500,5.9632255859375,-1.4634225368499756,-0.5829693675041199,-0.3252962827682495
1789799510954196700,5.97319677734375,-1.534430742263794,-0.7900397777557373,-0.3145754337310791
1789799510964168400,5.98316845703125,-1.5505510568618774,-0.9733790159225464,-0.2705915868282318
1789799510974139600,5.9931396484375,-1.4915266036987305,-1.0642660856246948,-0.20884136855602264
1789799510984110600,6.003110595703125,-1.4436008930206299,-1.0126415491104126,-0.14634768664836884
1789799510994082800,6.013082763671875,-1.3793894052505493,-0.9294688701629639,-0.07782801240682602
1789799511004053500,6.023053466796875,-1.3116332292556763,-0.7977165579795837,-0.0004587555304169655
1789799511014024400,6.0330244140625,-1.1374766826629639,-0.39556458592414856,0.041644755750894547
1789799511023996700,6.04299658203125,-0.8501718640327454,0.03524801880121231,0.009850584901869297
1789799511033967600,6.052967529296875,-0.623219907283783,0.18866181373596191,0.0861554816365242
1789799511043938600,6.0629384765625,-0.44189882278442383,0.2380688488483429,0.24877753853797913
1789799511053910800,6.072910888671875,-0.20233497023582458,0.40279361605644226,0.26619434356689453
1789799511063881700,6.0828818359375,0.042068589478731155,0.5664331912994385,0.1839151829481125
1789799511073852400,6.092852294921875,0.16161921620368958,0.6634689569473267,0.1897869110107422
1789799511083824600,6.10282470703125,0.22206316888332367,0.7663774490356445,0.2410392314195633
1789799511093795600,6.112795654296875,0.27028074860572815,0.714564859867096,0.25528448820114136
1789799511103766800,6.122766845703125,0.3608351945877075,0.6961614489555359,0.24376215040683746
1789799511113738500,6.132738525390625,0.5021619200706482,0.8857223391532898,0.2152032107114792
1789799511123709700,6.142709716796875,0.695421576499939,1.0400248765945435,0.1919817179441452
1789799511133681400,6.152681396484375,0.8509970903396606,1.1370658874511719,0.20656493306159973
1789799511143652600,6.162652587890625,1.0089430809020996,1.1175708770751953,0.22708475589752197
1789799511153623600,6.17262353515625,1.1767669916152954,1.0483713150024414,0.18691016733646393
1789799511163595800,6.182595703125,1.338727593421936,0.8842567801475525,0.059031371027231216
1789799511173566500,6.19256640625,1.493993878364563,0.7399877905845642,-0.08380088210105896
1789799511183537700,6.20253759765625,1.601781964302063,0.5339509844779968,-0.14589059352874756
1789799511193509600,6.212509521484375,1.6433807611465454,0.32257506251335144,-0.1252175271511078
1789799511203480800,6.222480712890625,1.702449917793274,0.2576974332332611,-0.09061411023139954
1789799511213451500,6.232451416015625,1.8053150177001953,0.2741227447986603,-0.08215244859457016
1789799511223423700,6.242423828125,1.9026652574539185,0.24463719129562378,-0.09362680464982986
1789799511233394700,6.252394775390625,1.9494059085845947,0.11822226643562317,-0.1383734941482544
1789799511243365600,6.26236572265625,1.9671984910964966,-0.061241183429956436,-0.20167091488838196
1789799511253337600,6.272337646484375,2.0844197273254395,0.07079941034317017,-0.1771828830242157
1789799511263308500,6.28230859375,2.3533101081848145,0.6059000492095947,-0.09308585524559021
1789799511273279700,6.29227978515625,2.5854899883270264,1.0435823202133179,-0.042881548404693604
1789799511283251500,6.30225146484375,2.612136125564575,1.1249576807022095,-0.061064306646585464
1789799511293222700,6.31222265625,2.463334798812866,0.9222262501716614,-0.13709436357021332
1789799511303193600,6.322193603515625,2.348053216934204,0.8369301557540894,-0.18931837379932404
1789799511313165600,6.33216552734375,2.3773083686828613,0.9837121367454529,-0.17621561884880066
1789799511323136500,6.342136474609375,2.3815510272979736,1.1180901527404785,-0.19292372465133667
1789799511333107700,6.352107666015625,2.212646722793579,1.016729712486267,-0.29246148467063904
1789799511343079700,6.36207958984375,2.0523180961608887,0.6728814840316772,-0.3287341892719269
1789799511353050600,6.372050537109375,2.0415515899658203,0.36917439103126526,-0.29505452513694763
1789799511363021600,6.382021484375,2.0572378635406494,0.2484632283449173,-0.32109227776527405
1789799511372993800,6.391993896484375,1.9301449060440063,0.2009415179491043,-0.3984485864639282
1789799511382964700,6.40196484375,1.646622896194458,0.0626213401556015,-0.459403932094574
1789799511392936700,6.411936767578125,1.3776532411575317,-0.18127255141735077,-0.4700171649456024
1789799511402907600,6.42190771484375,1.1948200464248657,-0.3003857731819153,-0.4314427673816681
1789799511412878600,6.431878662109375,1.0727956295013428,-0.3124525547027588,-0.43443986773490906
1789799511422850600,6.4418505859375,0.9478139281272888,-0.29889923334121704,-0.43635448813438416
1789799511432821500,6.451821533203125,0.8871082067489624,-0.24236269295215607,-0.37623655796051025
1789799511442792700,6.461792724609375,0.8479699492454529,-0.2050579935312271,-0.3056829869747162
1789799511452764400,6.471764404296875,0.8505457043647766,-0.19864855706691742,-0.29234403371810913
1789799511462735600,6.481735595703125,0.8652788996696472,-0.13495418429374695,-0.298920601606369
1789799511472706600,6.49170654296875,0.8439123630523682,-0.07052458822727203,-0.2462765872478485
1789799511482678500,6.501678466796875,0.8082656264305115,-0.006657181307673454,-0.14651431143283844
1789799511492649500,6.5116494140625,0.756069540977478,-0.02286597713828087,-0.047948334366083145
1789799511502620700,6.52162060546875,0.6368007063865662,-0.2350010871887207,0.013532144948840141
1789799511512592000,6.531591796875,0.5033624768257141,-0.4310038685798645,0.06433992832899094
1789799511522563000,6.54156298828125,0.3733491003513336,-0.478397935628891,0.12851634621620178
1789799511532533800,6.55153369140625,0.2475307285785675,-0.537830114364624,0.16617238521575928
1789799511542506000,6.561506103515625,0.09168917685747147,-0.6237707734107971,0.1752152144908905
1789799511552477000,6.571476806640625,-0.03602244704961777,-0.748484194278717,0.18389712274074554
1789799511562448100,6.5814482421875,-0.1418532282114029,-0.757818341255188,0.24147814512252808
1789799511572419800,6.591419921875,-0.23483189940452576,-0.4013531506061554,0.35262730717658997
1789799511582391000,6.60139111328125,-0.30764225125312805,-0.013683633878827095,0.42760834097862244
1789799511592362000,6.611362060546875,-0.3777843415737152,0.14376111328601837,0.4574839472770691
1789799511602334000,6.621333984375,-0.4596092402935028,0.06848215311765671,0.4562373757362366
1789799511612305000,6.631304931640625,-0.55721116065979,0.018261857330799103,0.4523504972457886
1789799511622275800,6.64127587890625,-0.6634125113487244,-0.008739667944610119,0.437500536441803
1789799511632247800,6.651247802734375,-0.7880316972732544,-0.06227133795619011,0.43793967366218567
1789799511642218800,6.66121875,-0.8832731246948242,-0.09699751436710358,0.44730260968208313
1789799511652190000,6.67118994140625,-0.9458017349243164,-0.12187117338180542,0.4361913800239563
1789799511662162000,6.681161865234375,-0.9939367175102234,-0.1355230212211609,0.3898601830005646
1789799511672132900,6.6911328125,-1.032018780708313,-0.3537203371524811,0.26991698145866394
1789799511682103800,6.701103759765625,-1.0950274467468262,-0.556781530380249,0.14692237973213196
1789799511692076000,6.711075927734375,-1.199004888534546,-0.5866389870643616,0.08012603223323822
1789799511702047000,6.721046875,-1.34872305393219,-0.36284640431404114,0.06892962008714676
1789799511712018000,6.731017822265625,-1.469613790512085,-0.1231166273355484,0.057413049042224884
1789799511721990000,6.740989990234375,-1.593421220779419,0.10743771493434906,-0.009854694828391075
1789799511731961000,6.750961181640625,-1.689453125,0.3266182839870453,-0.14824587106704712
1789799511741932800,6.760932861328125,-1.7435382604599,0.4762968420982361,-0.2989058196544647
1789799511751904000,6.770904052734375,-1.8121449947357178,0.5259115099906921,-0.3322054445743561
1789799511761875000,6.780875,-1.913733720779419,0.38236376643180847,-0.21823349595069885
1789799511771847000,6.790846923828125,-2.0580368041992188,0.14580611884593964,-0.046246547251939774
1789799511781817900,6.80081787109375,-2.189863443374634,-0.1220066249370575,0.040748585015535355
1789799511791788800,6.810788818359375,-2.1896629333496094,-0.4151972234249115,0.030470648780465126
1789799511801761000,6.820760986328125,-2.2072596549987793,-0.5909501314163208,-0.028870392590761185
1789799511811731700,6.830731689453125,-2.276608467102051,-0.6177692413330078,-0.12397612631320953
1789799511821703000,6.840702880859375,-2.400437355041504,-0.5192239880561829,-0.2063271552324295
1789799511831675000,6.8506748046875,-2.4699506759643555,-0.5734123587608337,-0.23685844242572784
1789799511841646000,6.86064599609375,-2.500732660293579,-0.7437819838523865,-0.22107788920402527
1789799511851616800,6.87061669921875,-2.570875644683838,-0.7077456712722778,-0.20367173850536346
1789799511861589000,6.880589111328125,-2.5338387489318848,-0.7202389240264893,-0.23503662645816803
1789799511871560000,6.890559814453125,-2.4503371715545654,-0.9368705749511719,-0.21860812604427338
1789799511881531000,6.90053076171875,-2.3864729404449463,-1.204010009765625,-0.15969590842723846
1789799511891502800,6.9105029296875,-2.3091745376586914,-1.3637030124664307,-0.18988071382045746
1789799511901474000,6.92047412109375,-2.197368860244751,-1.3682196140289307,-0.24428683519363403
1789799511911445000,6.930445068359375,-2.0295746326446533,-1.2515166997909546,-0.26088178157806396
1789799511921417000,6.9404169921875,-1.831473469734192,-1.1001129150390625,-0.2262769639492035
1789799511931388000,6.950387939453125,-1.6008524894714355,-0.8909845352172852,-0.14379113912582397
1789799511941358800,6.96035888671875,-1.3907114267349243,-0.5020015835762024,-0.04476781561970711
1789799511951330800,6.970330810546875,-1.207131266593933,0.05244409292936325,0.14855584502220154
1789799511961301800,6.9803017578125,-0.9861093759536743,0.4120473265647888,0.4023434519767761
1789799511971273000,6.99027294921875,-0.8130872845649719,0.37851518392562866,0.4832388162612915
1789799511981245000,7.000244873046875,-0.6541711091995239,-0.03494298830628395,0.36446821689605713
1789799511991215900,7.0102158203125,-0.5349267721176147,-0.5082210898399353,0.29525238275527954
1789799512001186800,7.020186767578125,-0.4065198004245758,-0.6752920746803284,0.30398860573768616
1789799512011159000,7.030158935546875,-0.2786901891231537,-0.7515354156494141,0.31646978855133057
1789799512021129700,7.040129638671875,-0.14458221197128296,-0.7198137044906616,0.3679439127445221
1789799512031101000,7.050100830078125,-0.011949069797992706,-0.6658657789230347,0.4176853895187378
1789799512041073000,7.060072998046875,0.07877210527658463,-0.5541874766349792,0.3881291151046753
1789799512051044000,7.070044189453125,0.30175966024398804,-0.028046168386936188,0.24095934629440308
1789799512061014800,7.080014892578125,0.5450559258460999,0.590122401714325,0.08660826086997986
1789799512070987000,7.089987060546875,0.5895493626594543,0.7547105550765991,0.09447577595710754
1789799512080958000,7.0999580078125,0.6376841068267822,1.0217851400375366,0.16122807562351227
1789799512090929000,7.109928955078125,0.7861241698265076,1.1402603387832642,0.09277845174074173
1789799512100900900,7.11990087890625,0.999841034412384,1.2712651491165161,0.07557636499404907
1789799512110871800,7.129871826171875,1.1415550708770752,1.331565022468567,0.13979050517082214
1789799512120843000,7.139843017578125,1.092017412185669,1.0806890726089478,0.16205613315105438
1789799512130814700,7.149814697265625,0.9949163794517517,0.7108687162399292,0.13355816900730133
1789799512140786000,7.159785888671875,1.0029958486557007,0.7662745714187622,0.0703849196434021
1789799512150756900,7.1697568359375,1.1654915809631348,1.063675045967102,0.09269155561923981
1789799512160728800,7.179728759765625,1.3822661638259888,1.3752557039260864,0.10402180254459381
1789799512170699800,7.18969970703125,1.5407477617263794,1.4944995641708374,0.011424228549003601
1789799512180671000,7.1996708984375,1.657584309577942,1.2654521465301514,-0.05110609531402588
1789799512190643000,7.209642822265625,1.7452441453933716,0.9709292054176331,-0.07857420295476913
1789799512200614000,7.21961376953125,1.9173212051391602,1.0385029315948486,-0.07015842199325562
1789799512210585900,7.2295859375,2.1563522815704346,1.3409065008163452,-0.06370078027248383
1789799512220557000,7.23955712890625,2.317633867263794,1.4015610218048096,-0.1183665320277214
1789799512230528000,7.249528076171875,2.253237009048462,1.1440051794052124,-0.252301424741745
1789799512240500000,7.2595,2.0968434810638428,0.8914381861686707,-0.36122316122055054
1789799512250471000,7.269470947265625,2.122398614883423,0.903673529624939,-0.38244640827178955
1789799512260442000,7.279442138671875,2.2765753269195557,0.8722482919692993,-0.3965531289577484
1789799512270413800,7.289413818359375,2.439912796020508,0.6424515843391418,-0.4286215901374817
1789799512280385000,7.299385009765625,2.388583183288574,0.4855019152164459,-0.45447975397109985
1789799512290356000,7.30935595703125,2.135612726211548,0.4068601131439209,-0.4713761806488037
1789799512300328000,7.319327880859375,2.021463394165039,0.4803691506385803,-0.45037439465522766
1789799512310299000,7.329298828125,2.045370578765869,0.4761568307876587,-0.4098837077617645
1789799512320269800,7.339269775390625,2.0602681636810303,0.2883851230144501,-0.3716570734977722
1789799512330241800,7.34924169921875,2.00076961517334,0.019525695592164993,-0.42651528120040894
1789799512340212700,7.359212646484375,1.9400402307510376,-0.11812067776918411,-0.524821400642395
1789799512350184000,7.369183837890625,1.8402159214019775,-0.13987098634243011,-0.5711085200309753
1789799512360156000,7.379156005859375,1.7354772090911865,-0.41824406385421753,-0.4467490613460541
1789799512370126800,7.389126953125,1.6364063024520874,-0.783509373664856,-0.21945437788963318
1789799512380097800,7.399097900390625,1.502413034439087,-0.7461222410202026,-0.08303945511579514
1789799512390070000,7.409070068359375,1.3491870164871216,-0.4804657995700836,-0.05730985105037689
1789799512400041000,7.419041015625,1.2345998287200928,-0.1348118782043457,0.02072175033390522
1789799512410012000,7.429011962890625,1.1366631984710693,0.1082199439406395,0.19125699996948242
1789799512419984000,7.43898388671875,1.0205055475234985,0.3004859387874603,0.36764463782310486
1789799512429955000,7.448955078125,0.9479519724845886,0.29277077317237854,0.38468804955482483
1789799512439926000,7.458926025390625,0.9713807702064514,0.0012087678769603372,0.2677171230316162
1789799512449898000,7.46889794921875,0.9564542770385742,-0.5730910301208496,0.21562090516090393
1789799512459869000,7.478868896484375,0.7893437743186951,-0.9476559162139893,0.3390263617038727
1789799512469840000,7.48883984375,0.5677112936973572,-0.7997974753379822,0.49585458636283875
1789799512479811800,7.498811767578125,0.3250451385974884,-0.507924497127533,0.4961351156234741
1789799512489782800,7.50878271484375,0.08650127053260803,-0.2523569166660309,0.37416312098503113
1789799512499754000,7.51875390625,-0.14914029836654663,-0.19778043031692505,0.200266495347023
1789799512509725700,7.5287255859375,-0.31693196296691895,-0.6828795075416565,0.06550149619579315
1789799512519698200,7.5386982421875,-0.43832266330718994,-0.9664010405540466,0.14797833561897278
1789799512529669000,7.548669189453125,-0.5208838582038879,-0.7267754077911377,0.2584097683429718
1789799512539641000,7.55864111328125,-0.5580458045005798,-0.1412258893251419,0.3137120306491852
1789799512549612000,7.568612060546875,-0.6288642883300781,0.2736474573612213,0.3140678107738495
1789799512559583200,7.578583251953125,-0.7177795171737671,0.044280052185058594,0.24750395119190216
1789799512569555000,7.588554931640625,-0.7908899784088135,-0.15583918988704681,0.2114623337984085
1789799512579526100,7.598526123046875,-0.8046143651008606,-0.16202598810195923,0.2094353437423706
1789799512589497000,7.6084970703125,-0.7938783764839172,0.016352539882063866,0.22792619466781616
1789799512599469300,7.61846923828125,-0.7657807469367981,0.06536640226840973,0.10880748182535172
1789799512609440000,7.62843994140625,-0.7795892357826233,0.092842236161232,-0.12359459698200226
1789799512619411200,7.6384111328125,-0.877151608467102,0.13827157020568848,-0.30478236079216003
1789799512629383200,7.648383056640625,-1.0616545677185059,0.11198296397924423,-0.2733437418937683
1789799512639354000,7.65835400390625,-1.3013291358947754,0.18728065490722656,-0.12479156255722046
1789799512649325000,7.668324951171875,-1.5340251922607422,0.4754703938961029,-0.037232425063848495
1789799512659297300,7.67829736328125,-1.4828448295593262,0.870212197303772,-0.09107401221990585
1789799512669268200,7.688268310546875,-1.3665144443511963,0.9289029240608215,-0.30200356245040894
1789799512679239200,7.6982392578125,-1.2849527597427368,0.3880806565284729,-0.5607914328575134
1789799512689211100,7.708211181640625,-1.3295737504959106,-0.21168586611747742,-0.5824525356292725
1789799512699182300,7.718182373046875,-1.5273232460021973,-0.5594068169593811,-0.4342888593673706
1789799512709153300,7.7281533203125,-1.8053619861602783,-0.37617117166519165,-0.3795422315597534
1789799512719125200,7.738125244140625,-1.6651642322540283,0.2614012658596039,-0.4445274770259857
1789799512729096200,7.74809619140625,-1.5482240915298462,0.38115164637565613,-0.638515293598175
1789799512739067100,7.758067138671875,-1.6341214179992676,0.10458360612392426,-0.7962546348571777
1789799512749039000,7.7680390625,-1.7271575927734375,-0.20648851990699768,-0.7224438190460205
1789799512759010000,7.778010009765625,-1.8524476289749146,-0.49106916785240173,-0.5361757278442383
1789799512768981200,7.787981201171875,-2.0585410594940186,-0.5935164093971252,-0.335991770029068
1789799512778953000,7.797952880859375,-2.27173113822937,-0.4801003634929657,-0.206933856010437
1789799512788924200,7.807924072265625,-2.325690507888794,-0.22507844865322113,-0.12903693318367004
1789799512798895000,7.81789501953125,-2.153470277786255,-0.23738160729408264,-0.12389396876096725
1789799512808867300,7.827867431640625,-1.9972344636917114,-0.3792668282985687,-0.13930274546146393
1789799512818838000,7.837838134765625,-1.934735894203186,-0.4911882281303406,-0.12408189475536346
1789799512828809200,7.847809326171875,-1.9318397045135498,-0.5123358964920044,-0.04113907366991043
1789799512838781200,7.85778125,-2.0631721019744873,-0.4108010232448578,0.06029805541038513
1789799512848752400,7.86775244140625,-2.131240129470825,-0.46945154666900635,0.0021503304596990347
1789799512858723000,7.87772314453125,-2.0391769409179688,-0.5799940824508667,-0.1498565822839737
1789799512868695300,7.8876953125,-1.8547109365463257,-0.8291674256324768,-0.3386547267436981
1789799512878666200,7.897666259765625,-1.739241600036621,-1.1425341367721558,-0.4737376868724823
1789799512888637200,7.90763720703125,-1.7532365322113037,-1.4199079275131226,-0.5137910842895508
1789799512898609200,7.917609130859375,-1.8207215070724487,-1.6144564151763916,-0.4466411769390106
1789799512908580000,7.927580078125,-1.7962968349456787,-1.622721552848816,-0.3187553882598877
1789799512918551300,7.93755126953125,-1.709825873374939,-1.298024296760559,-0.25268518924713135
1789799512928523000,7.94752294921875,-1.5149458646774292,-0.8904014229774475,-0.24329592287540436
1789799512938494200,7.957494140625,-1.239609956741333,-0.5171515345573425,-0.14403054118156433
1789799512948465200,7.967465087890625,-0.937069296836853,-0.03861242160201073,0.09193591773509979
1789799512958437000,7.97743701171875,-0.7198565602302551,0.6353194117546082,0.4116063117980957
1789799512968408000,7.987407958984375,-0.5576364994049072,0.9766578078269958,0.5916908383369446
1789799512978379300,7.997379150390625,-0.45712578296661377,0.988156259059906,0.48644518852233887
1789799512988351200,8.007351318359374,-0.14579960703849792,0.755334734916687,0.2306067794561386
1789799512998322200,8.017322265625,-0.03771044686436653,0.3597342371940613,0.0266164168715477
1789799513008293000,8.027293212890624,0.06569210439920425,-0.10470534861087799,-0.07502738386392593
1789799513018265300,8.037265380859376,0.23888978362083435,-0.18360382318496704,-0.07075770199298859
1789799513028236000,8.047236083984375,0.46138837933540344,-0.12145842611789703,0.03283686935901642
1789799513038207000,8.05720703125,0.6586958765983582,-0.09103888273239136,0.18907132744789124
1789799513048179200,8.06717919921875,0.7924371361732483,-0.14872881770133972,0.21727021038532257
1789799513058150100,8.077150146484374,0.9002977609634399,-0.2481183260679245,0.06724438816308975
1789799513068121000,8.08712109375,1.0106642246246338,-0.24840380251407623,-0.1289946287870407
1789799513078093000,8.097093017578125,1.2074850797653198,-0.027583464980125427,-0.23931331932544708
1789799513088064300,8.107064208984376,1.437666893005371,0.2270786464214325,-0.23901531100273132
1789799513098035200,8.11703515625,1.6501007080078125,0.5597350597381592,-0.15322165191173553
1789799513108007200,8.127007080078124,1.8636730909347534,0.7525132894515991,-0.09228906035423279
1789799513117978000,8.13697802734375,1.9582030773162842,0.6980918049812317,-0.027393795549869537
1789799513127949300,8.14694921875,1.9252344369888306,0.5704166293144226,0.020944707095623016
1789799513137920300,8.156920166015626,1.9613802433013916,0.6197606921195984,0.07937708497047424
1789799513147892200,8.166892333984375,2.1118383407592773,1.0010018348693848,0.1457768827676773
1789799513157863200,8.17686328125,2.1881613731384277,1.3619176149368286,0.1321430802345276
1789799513167834000,8.186834228515625,2.1532931327819824,1.4841938018798828,0.10835546255111694
1789799513177806000,8.19680615234375,2.149843215942383,1.5088257789611816,0.1343875378370285
1789799513187777000,8.206777099609376,2.2241857051849365,1.2385114431381226,0.2537437677383423
1789799513197748200,8.216748291015625,2.4213545322418213,0.9568979144096375,0.2821456789970398
1789799513207720000,8.226719970703124,2.5070571899414062,0.8185927867889404,0.09983363747596741
1789799513217691100,8.236691162109375,2.464083433151245,0.7075251936912537,-0.1223091408610344
1789799513227662000,8.246662109375,2.421644926071167,0.4957258701324463,-0.1798136979341507
1789799513237634300,8.25663427734375,2.424703359603882,0.346628874540329,-0.07062351703643799
1789799513247605000,8.26660498046875,2.403254985809326,0.17941775918006897,0.08241769671440125
1789799513257576200,8.276576171875,2.2555902004241943,-0.13357920944690704,0.18182240426540375
1789799513267548200,8.286548095703125,2.067330837249756,-0.5118860006332397,0.19421835243701935
1789799513277519000,8.29651904296875,2.0019638538360596,-0.6106130480766296,0.08721744269132614
1789799513287490000,8.306489990234375,2.0256645679473877,-0.5264880061149597,-0.07404068857431412
1789799513297462300,8.316462158203125,2.02746844291687,-0.5258312821388245,-0.12336934357881546
1789799513307433200,8.32643310546875,1.919325828552246,-0.5984045267105103,-0.022478410974144936
1789799513317404200,8.336404052734375,1.715448021888733,-0.673696756362915,0.14507906138896942
1789799513327376100,8.346376220703124,1.5251294374465942,-0.9214248061180115,0.2769220769405365
1789799513337347300,8.356347412109375,1.3466734886169434,-1.1044647693634033,0.35853180289268494
1789799513347318300,8.366318359375,1.1497143507003784,-0.9989909529685974,0.42683443427085876
1789799513357290200,8.376290283203126,1.0052703619003296,-0.7805032134056091,0.4158438444137573
1789799513367261200,8.38626123046875,0.9322302341461182,-0.5416110157966614,0.3467119038105011
1789799513377232100,8.396232177734374,0.8775919675827026,-0.2117629200220108,0.2900506556034088
1789799513387204000,8.4062041015625,0.7024539709091187,0.20628412067890167,0.394792765378952
1789799513397175000,8.416175048828125,0.4561046361923218,0.3726731240749359,0.49832049012184143
1789799513407146200,8.426146240234376,0.3121357262134552,0.4380635917186737,0.4329867660999298
1789799513417118000,8.436117919921875,0.1802317500114441,0.3241848647594452,0.23896102607250214
1789799513427089200,8.446089111328124,-0.01691834256052971,0.1641043871641159,0.17084188759326935
1789799513437060000,8.45606005859375,-0.17950911819934845,-0.06438029557466507,0.2741212844848633
1789799513447032300,8.4660322265625,-0.3166765868663788,-0.47027212381362915,0.3887064456939697
1789799513457003000,8.4760029296875,-0.4492689371109009,-1.0274250507354736,0.3647834062576294
1789799513466974200,8.48597412109375,-0.476419597864151,-1.3462871313095093,0.3135939836502075
1789799513476946200,8.4959462890625,-0.6093782186508179,-0.8787741661071777,0.3053026497364044
1789799513486917400,8.50591748046875,-0.7960029244422913,0.17044632136821747,0.35593679547309875
1789799513496888000,8.51588818359375,-0.9042627811431885,0.9338191151618958,0.39830029010772705
1789799513506860300,8.5258603515625,-0.9362326860427856,0.8465697169303894,0.3511730134487152
1789799513516831000,8.5358310546875,-0.9150434732437134,0.28805187344551086,0.310146301984787
1789799513526802200,8.54580224609375,-0.8754028677940369,-0.2282479703426361,0.2993921935558319
1789799513536774000,8.55577392578125,-0.8882768154144287,-0.38571688532829285,0.21710774302482605
1789799513546745000,8.5657451171875,-0.9796461462974548,0.02328125387430191,0.06392298638820648
1789799513556716000,8.575716064453125,-0.9631907343864441,0.4458370804786682,-0.06809943169355392
1789799513566688000,8.58568798828125,-0.8970982432365417,0.4285512864589691,-0.16745370626449585
1789799513576659000,8.595658935546876,-0.9351397156715393,0.03149235621094704,-0.2509787678718567
1789799513586630100,8.605630126953125,-1.0358974933624268,-0.23722060024738312,-0.24033010005950928
1789799513596601000,8.61560107421875,-1.131169080734253,-0.007981641218066216,-0.1714743822813034
1789799513606573000,8.625572998046875,-1.183790683746338,0.16555845737457275,-0.1727849245071411
1789799513616544000,8.6355439453125,-1.2452589273452759,0.03557200729846954,-0.29628631472587585
1789799513626515000,8.645514892578126,-1.384759545326233,0.09624680876731873,-0.5017886161804199
1789799513636487000,8.65548681640625,-1.5062041282653809,0.19511672854423523,-0.6819466352462769
1789799513646457900,8.665457763671874,-1.6050931215286255,0.2291271686553955,-0.660330593585968
1789799513656429000,8.675428955078125,-1.62546706199646,0.05368759110569954,-0.5182238817214966
1789799513666401000,8.685401123046875,-1.6295366287231445,0.004079291597008705,-0.4459720253944397
1789799513676372000,8.6953720703125,-1.6495767831802368,0.12419776618480682,-0.5011305212974548
1789799513686343000,8.705343017578125,-1.6216990947723389,0.1739749014377594,-0.602418839931488
1789799513696315100,8.715315185546874,-1.543673038482666,-0.23191402852535248,-0.6508263349533081
1789799513706286000,8.7252861328125,-1.4742684364318848,-0.6428800225257874,-0.5523442029953003
1789799513716257000,8.735257080078124,-1.6021909713745117,-0.8497962951660156,-0.381621390581131
1789799513726229000,8.74522900390625,-1.899312973022461,-0.801045835018158,-0.2556290924549103
1789799513736200200,8.7552001953125,-2.0748963356018066,-0.37653669714927673,-0.22204537689685822
1789799513746171000,8.7651708984375,-1.9601951837539673,-0.013088737614452839,-0.3017370104789734
1789799513756143000,8.77514306640625,-1.7223538160324097,0.03065110370516777,-0.44330736994743347
1789799513766114000,8.785114013671874,-1.6225038766860962,0.07655414938926697,-0.44132891297340393
1789799513776085000,8.7950849609375,-1.7687921524047852,-0.012032209895551205,-0.29214903712272644
1789799513786057000,8.805056884765625,-1.877426028251648,-0.02683619037270546,-0.08652371168136597
1789799513796028000,8.81502783203125,-1.7687435150146484,-0.14196324348449707,-0.007333545945584774
1789799513805999000,8.8249990234375,-1.7530715465545654,-0.5407721400260925,-0.14057521522045135
1789799513815970800,8.834970703125,-1.7430081367492676,-0.9830134510993958,-0.31867721676826477
1789799513825942000,8.84494189453125,-1.626039981842041,-1.326477289199829,-0.36574140191078186
1789799513835913000,8.854912841796875,-1.5452967882156372,-1.446681022644043,-0.3437477648258209
1789799513845884200,8.86488427734375,-1.441389560699463,-1.4550094604492188,-0.2953447997570038
1789799513855855900,8.87485595703125,-1.324912667274475,-1.4670727252960205,-0.25037115812301636
1789799513865827000,8.8848271484375,-1.3103423118591309,-1.1137492656707764,-0.17972441017627716
1789799513875798000,8.894798095703125,-1.1634303331375122,-0.6566841006278992,-0.1001795157790184
1789799513885770000,8.90477001953125,-0.836556077003479,-0.5260642766952515,0.006920036859810352
1789799513895741000,8.914740966796876,-0.7553471326828003,-0.687035858631134,0.05521541088819504
1789799513905711900,8.9247119140625,-0.7124100923538208,-0.8976365327835083,0.03933151811361313
1789799513915684000,8.93468408203125,-0.6469094753265381,-0.683988630771637,0.07036272436380386
1789799513925654800,8.94465478515625,-0.5835081338882446,-0.3489062488079071,0.09541135281324387
1789799513935626000,8.9546259765625,-0.40708038210868835,-0.15276050567626953,0.103142149746418
1789799513945598000,8.964597900390626,-0.33547621965408325,-0.2416166067123413,0.15348654985427856
1789799513955569200,8.974569091796875,-0.3241101801395416,-0.25308501720428467,0.23920640349388123
1789799513965539800,8.984539794921876,-0.1813250631093979,0.06976224482059479,0.28695181012153625
1789799513975512000,8.994511962890625,0.09973973035812378,0.5968003273010254,0.2660618722438812
1789799513985483000,9.00448291015625,0.3245992064476013,0.9167636632919312,0.2547687292098999
1789799513995454000,9.014453857421875,0.4623759686946869,0.8915587663650513,0.38563328981399536
1789799514005426000,9.024426025390625,0.524882972240448,0.6936565637588501,0.5426838994026184
1789799514015397000,9.034397216796876,0.684739351272583,0.9696479439735413,0.5664704442024231
1789799514025368000,9.0443681640625,0.8981496095657349,1.3122377395629883,0.4535558521747589
1789799514035340000,9.054340087890624,1.1155707836151123,1.361830234527588,0.2904379963874817
1789799514045311000,9.06431103515625,1.2545350790023804,1.2430846691131592,0.25726592540740967
1789799514055282000,9.074281982421875,1.3121086359024048,1.0961240530014038,0.38888511061668396
1789799514065254000,9.08425390625,1.3944796323776245,0.9580569267272949,0.49974027276039124
1789799514075224800,9.094224853515625,1.6147738695144653,0.8969641327857971,0.4820380210876465
1789799514085196000,9.104196044921874,1.8643765449523926,0.9905382990837097,0.38753655552864075
1789799514095167000,9.1141669921875,2.094498872756958,1.11739981174469,0.2654801309108734
1789799514105139000,9.124138916015625,2.2265210151672363,1.110148310661316,0.16622360050678253
1789799514115110000,9.13410986328125,2.2578320503234863,0.9248870015144348,0.13534875214099884
1789799514125081000,9.1440810546875,2.313028573989868,0.6322615146636963,0.13048341870307922
1789799514135052800,9.154052734375,2.408444881439209,0.4584158957004547,0.11927247047424316
1789799514145024000,9.16402392578125,2.5097758769989014,0.5765558481216431,0.10580912232398987
1789799514154995000,9.173994873046874,2.5237233638763428,0.6898717880249023,0.05095978453755379
1789799514164967200,9.18396728515625,2.325392484664917,0.5595002174377441,-0.04849490150809288
1789799514174937900,9.193937744140625,2.161054849624634,0.3286285400390625,-0.0556117482483387
1789799514184909000,9.203908935546876,2.2168335914611816,0.1992282122373581,0.0760999470949173
1789799514194881000,9.213881103515625,2.3772172927856445,0.17268683016300201,0.189804345369339
1789799514204852200,9.223852294921874,2.4795689582824707,0.2966434061527252,0.2112467885017395
1789799514214823000,9.233822998046875,2.3971762657165527,0.47749149799346924,0.16732782125473022
1789799514224793900,9.2437939453125,2.168944835662842,0.4796110987663269,0.08473628014326096
1789799514234766000,9.25376611328125,2.0100810527801514,0.365319162607193,0.024861741811037064
1789799514244737000,9.263737060546875,1.879744529724121,0.24716883897781372,0.11269066482782364
1789799514254708000,9.2737080078125,1.7683963775634766,0.19371017813682556,0.2651844322681427
1789799514264680000,9.283679931640625,1.6331552267074585,0.2605645954608917,0.23571816086769104
1789799514274651100,9.293651123046875,1.5271165370941162,0.3446632921695709,0.0352250300347805
1789799514284622000,9.3036220703125,1.3682498931884766,0.0037855831906199455,-0.08312425017356873
1789799514294594000,9.313593994140625,1.1771036386489868,-0.3406388759613037,0.08637269586324692
1789799514304565000,9.32356494140625,1.054319977760315,-0.42842358350753784,0.19937995076179504
1789799514314536200,9.3335361328125,0.9422693252563477,-0.5433042049407959,0.05596650019288063
1789799514324508000,9.3435078125,0.7558810710906982,-0.6223105788230896,-0.0982198715209961
1789799514334479000,9.35347900390625,0.5979767441749573,-0.5195938944816589,-0.12065338343381882
1789799514344450000,9.363449951171875,0.4923818111419678,-0.26354509592056274,-0.034725699573755264
1789799514354422000,9.373422119140624,0.40484243631362915,0.0071174027398228645,-0.01591699942946434
1789799514364393000,9.38339306640625,0.36356690526008606,0.20565979182720184,-0.022907264530658722
1789799514374364000,9.393364013671874,0.28035104274749756,0.11159678548574448,-0.05863828584551811
1789799514384336000,9.4033359375,0.1649908870458603,0.03863602504134178,-0.046254049986600876
1789799514394306800,9.413306884765625,0.03932056203484535,0.01670481078326702,-0.008264683187007904
1789799514404278000,9.423278076171876,-0.05840972438454628,0.10446395725011826,0.046232111752033234
1789799514414249000,9.4332490234375,-0.1226683035492897,0.150699645280838,0.07506272941827774
1789799514424221000,9.443220947265624,-0.17590516805648804,0.19570520520210266,0.06499145179986954
1789799514434192000,9.45319189453125,-0.20736351609230042,0.17200994491577148,0.047255538403987885
1789799514444163000,9.4631630859375,-0.21330368518829346,0.059736400842666626,0.06028851494193077
1789799514454135000,9.473135009765626,-0.18640470504760742,-0.21064114570617676,0.0980064794421196
1789799514464106000,9.48310595703125,-0.19958148896694183,-0.4009096324443817,0.12805280089378357
1789799514474077000,9.493076904296874,-0.2562239170074463,-0.4556150436401367,0.0993041917681694
1789799514484049200,9.503049072265625,-0.37421634793281555,-0.22991371154785156,0.06095467135310173
1789799514494020000,9.51302001953125,-0.4721008241176605,0.17779774963855743,0.03802207112312317
1789799514503990800,9.52299072265625,-0.5941529870033264,0.2168940156698227,0.025344891473650932
1789799514513963000,9.532962890625,-0.7630600333213806,0.21014566719532013,0.04319507256150246
1789799514523933000,9.542932861328126,-0.9472141861915588,0.41589537262916565,0.10986863821744919
1789799514533904000,9.55290380859375,-1.0188896656036377,0.41686883568763733,0.10880937427282333
1789799514543875000,9.562875,-1.0679445266723633,0.13134229183197021,0.05622551962733269
1789799514553846800,9.5728466796875,-1.148592233657837,-0.09165042638778687,0.023567548021674156
1789799514563818000,9.58281787109375,-1.2864457368850708,-0.24741631746292114,0.05012698471546173
1789799514573789000,9.592788818359375,-1.4740304946899414,-0.337858647108078,0.04949317127466202
1789799514583761000,9.602760986328125,-1.6921931505203247,-0.33507856726646423,0.022578997537493706
1789799514593731800,9.61273193359375,-1.804740309715271,-0.1288200467824936,0.0051183938048779964
1789799514603703000,9.622703125,-1.838385820388794,0.27173909544944763,-0.033634863793849945
1789799514613674800,9.6326748046875,-1.885448932647705,0.3276572525501251,-0.15237772464752197
1789799514623646000,9.64264599609375,-1.8629857301712036,0.04960191249847412,-0.20759117603302002
1789799514633617000,9.652616943359375,-1.8266791105270386,-0.25347551703453064,-0.15374165773391724
1789799514643589000,9.662589111328124,-1.7883341312408447,-0.29460829496383667,-0.07964318990707397
1789799514653559800,9.672559814453125,-1.8090487718582153,-0.2353990226984024,-0.11535938084125519
1789799514663530800,9.68253076171875,-1.7932066917419434,-0.11915071308612823,-0.15723758935928345
1789799514673502000,9.692501953125,-1.7542911767959595,0.042126402258872986,-0.14465166628360748
1789799514683474000,9.702473876953125,-1.8256380558013916,0.007369487080723047,-0.14571106433868408
1789799514693444900,9.71244482421875,-1.8772863149642944,-0.20026057958602905,-0.2037535011768341
1789799514703415800,9.722415771484375,-1.9170981645584106,-0.45979467034339905,-0.25096601247787476
1789799514713388000,9.732387939453124,-1.947402000427246,-0.6001671552658081,-0.21574756503105164
1789799514723359000,9.74235888671875,-1.9851295948028564,-0.50124192237854,-0.14253246784210205
1789799514733330000,9.752329833984374,-1.9386488199234009,-0.08332102000713348,-0.0923895537853241
1789799514743302000,9.762302001953126,-1.7875453233718872,0.2019330859184265,-0.1304924637079239
1789799514753273000,9.772273193359375,-1.6483761072158813,0.04045591875910759,-0.1811578869819641
1789799514763244000,9.782244140625,-1.6147576570510864,-0.49724268913269043,-0.16155728697776794
1789799514773216000,9.792216064453125,-1.6581839323043823,-0.9564356803894043,-0.12160570174455643
1789799514783187000,9.80218701171875,-1.6736958026885986,-1.1554936170578003,-0.1484261155128479
1789799514793158000,9.812157958984375,-1.6909631490707397,-1.2763053178787231,-0.21610087156295776
1789799514803128800,9.82212890625,-1.622045636177063,-1.4657782316207886,-0.2851734459400177
1789799514813100800,9.832100830078126,-1.507257103919983,-1.7204060554504395,-0.26955145597457886
1789799514823072000,9.842072021484375,-1.4114245176315308,-1.9002985954284668,-0.15186023712158203
1789799514833043000,9.85204296875,-1.2587655782699585,-1.7427308559417725,-0.10018296539783478
1789799514843015000,9.862014892578125,-1.0669841766357422,-1.4678488969802856,-0.13173316419124603
1789799514852985900,9.87198583984375,-0.8417869210243225,-1.183110237121582,-0.12909439206123352
1789799514862957000,9.88195703125,-0.6878330707550049,-0.9235883951187134,-0.10874410718679428
1789799514872928800,9.8919287109375,-0.6003058552742004,-0.6012219190597534,-0.01399028766900301
1789799514882900000,9.90189990234375,-0.489602267742157,-0.2745375335216522,0.10011844336986542
1789799514892871000,9.911870849609375,-0.3520992696285248,-0.024068310856819153,0.23875434696674347
1789799514902843000,9.9218427734375,-0.27349022030830383,0.23353099822998047,0.35399436950683594
1789799514912813800,9.931813720703126,-0.23611091077327728,0.24431128799915314,0.4031233787536621
1789799514922784800,9.94178466796875,-0.18924033641815186,0.18794973194599152,0.4094364047050476
1789799514932756000,9.951755859375,-0.07451315224170685,0.3898540139198303,0.35967570543289185
1789799514942727700,9.961727783203125,0.11841049790382385,0.6287792325019836,0.31829899549484253
1789799514952699000,9.971698974609374,0.3390943706035614,0.7865152955055237,0.3004264831542969
1789799514962669800,9.981669921875,0.5047491192817688,0.8064962029457092,0.2874089479446411
1789799514972642000,9.99164208984375,0.6082938313484192,0.8393829464912415,0.3150111138820648
1789799514982612700,10.00161279296875,0.7635347843170166,0.9175890684127808,0.2656917870044708
1789799514992584000,10.011583984375,0.9479039907455444,0.9600932598114014,0.16925202310085297
1789799515002556000,10.021555908203124,1.1125800609588623,0.890995442867279,0.08922643959522247
1789799515012527000,10.031527099609375,1.234755516052246,0.6084975004196167,-0.02137174643576145
1789799515022497800,10.041497802734375,1.3203623294830322,0.4064042866230011,-0.13683229684829712
1789799515032470000,10.051469970703126,1.4386688470840454,0.47475913166999817,-0.19312213361263275
1789799515042441000,10.06144091796875,1.5757633447647095,0.5348690748214722,-0.16097699105739594
1789799515052412000,10.071411865234374,1.6491786241531372,0.5258715748786926,-0.09700971841812134
1789799515062382800,10.0813828125,1.713447093963623,0.41569316387176514,-0.08579621464014053
1789799515072354800,10.091354736328125,1.7667406797409058,0.2485371083021164,-0.12678341567516327
1789799515082326000,10.101325927734376,1.7999364137649536,0.2512466311454773,-0.1787094622850418
1789799515092297000,10.111296875,1.8707408905029297,0.4871583580970764,-0.152696892619133
1789799515102269000,10.12126904296875,1.9756866693496704,0.740480899810791,-0.10960720479488373
1789799515112239900,10.131239990234375,2.0713658332824707,0.888111412525177,-0.1785055249929428
1789799515122211000,10.141211181640625,2.1493194103240967,0.9209010601043701,-0.29493412375450134
1789799515132182800,10.151182861328126,2.2153213024139404,0.8283305764198303,-0.3062065839767456
1789799515142154000,10.161154052734375,2.269791603088379,0.6202415227890015,-0.25176331400871277
1789799515152125000,10.171125,2.3384108543395996,0.6670895218849182,-0.2087889015674591
1789799515162096000,10.18109619140625,2.445991277694702,0.8972042202949524,-0.21176178753376007
1789799515172067800,10.19106787109375,2.5413663387298584,1.0525826215744019,-0.2515581250190735
1789799515182039000,10.2010390625,2.498311758041382,0.9369597434997559,-0.327053964138031
1789799515192010000,10.211010009765625,2.3318800926208496,0.4640994071960449,-0.33969151973724365
1789799515201982000,10.22098193359375,2.204763412475586,0.0708722323179245,-0.26989567279815674
1789799515211953000,10.230952880859375,2.127500295639038,0.16664616763591766,-0.22146551311016083
1789799515221923800,10.240923828125,1.979784369468689,0.39250192046165466,-0.22934234142303467
1789799515231895800,10.250895751953125,1.7119884490966797,0.49836722016334534,-0.22966337203979492
1789799515241866800,10.26086669921875,1.451268196105957,0.3349098563194275,-0.2725866138935089
1789799515251838000,10.270837890625,1.325221300125122,0.17505183815956116,-0.28528958559036255
1789799515261809000,10.280808837890625,1.2851673364639282,0.16408653557300568,-0.22471332550048828
1789799515271780900,10.29078076171875,1.2517485618591309,0.0051600150763988495,-0.19108262658119202
1789799515281751800,10.300751708984375,1.1874399185180664,-0.2717786431312561,-0.21832995116710663
1789799515291723000,10.310722900390624,1.1307551860809326,-0.6254433989524841,-0.23804152011871338
1789799515301695000,10.320695068359376,1.0689501762390137,-1.038320779800415,-0.21452979743480682
1789799515311666000,10.330666015625,0.983579158782959,-1.234251856803894,-0.023607287555933
1789799515321636900,10.340636962890626,0.8085069060325623,-0.9840404987335205,0.2053084522485733
1789799515331607800,10.35060791015625,0.6625040769577026,-0.4061625599861145,0.3139975368976593
1789799515341580000,10.360580078125,0.5911973714828491,0.10083966702222824,0.298733115196228
1789799515351550700,10.37055078125,0.48120197653770447,0.19143171608448029,0.23042315244674683
1789799515361522000,10.38052197265625,0.3926931321620941,0.05698549374938011,0.25233885645866394
1789799515371494000,10.390493896484376,0.2974642217159271,-0.09996308386325836,0.3394277095794678
1789799515381464800,10.40046484375,0.15071766078472137,-0.1124008446931839,0.418500155210495
1789799515391435800,10.410435791015624,0.05074362829327583,-0.16744764149188995,0.44175535440444946
1789799515401408000,10.420407958984375,-0.01833956688642502,-0.31305116415023804,0.444883793592453
1789799515411379000,10.43037890625,-0.010174640454351902,-0.2476167231798172,0.47069811820983887
1789799515421350000,10.440349853515626,-0.036099180579185486,-0.34324443340301514,0.4230389893054962
1789799515431321900,10.45032177734375,-0.07801034301519394,-0.6806248426437378,0.28479912877082825
1789799515441293000,10.46029296875,-0.19283944368362427,-0.7026116847991943,0.19314457476139069
1789799515451264000,10.470263916015625,-0.31366732716560364,-0.5020253658294678,0.1907106190919876
1789799515461234700,10.480234619140624,-0.47057998180389404,-0.1943112015724182,0.25051698088645935
1789799515471207000,10.49020703125,-0.6505013108253479,0.2853798270225525,0.26218754053115845
1789799515481177900,10.500177734375,-0.8631951808929443,0.3096603751182556,0.22603964805603027
1789799515491149000,10.510149169921876,-1.149233102798462,0.07584575563669205,0.2668762803077698
1789799515501120800,10.520120849609375,-1.2977980375289917,-0.1514265388250351,0.3114389479160309
1789799515511092000,10.530092041015624,-1.3744471073150635,-0.18214508891105652,0.31395745277404785
1789799515521063200,10.540063232421875,-1.440222978591919,-0.06293080747127533,0.23040105402469635
1789799515531034000,10.5500341796875,-1.5447161197662354,-0.18611125648021698,0.023501217365264893
1789799515541006000,10.560006103515626,-1.6799744367599487,-0.609324038028717,-0.18233051896095276
1789799515550977000,10.56997705078125,-1.7275234460830688,-0.7271209955215454,-0.19725491106510162
1789799515560948000,10.579947998046874,-1.7331371307373047,-0.35128769278526306,-0.11351262032985687
1789799515570920000,10.589919921875,-1.7323143482208252,0.024805158376693726,-0.1321936398744583
1789799515580891000,10.599890869140625,-1.640815019607544,0.15780635178089142,-0.20066270232200623
1789799515590862000,10.609862060546876,-1.581500768661499,0.02140481397509575,-0.20709671080112457
1789799515600833800,10.619833740234375,-1.6772491931915283,-0.2641877830028534,-0.20151712000370026
1789799515610805000,10.629804931640624,-1.8486114740371704,-0.2573380470275879,-0.22378581762313843
1789799515620776000,10.63977587890625,-1.9435659646987915,0.2712480425834656,-0.24919691681861877
1789799515630747100,10.6497470703125,-1.8541512489318848,0.5383322238922119,-0.30586814880371094
1789799515640718800,10.65971875,-1.7650847434997559,0.29354432225227356,-0.3266410529613495
1789799515650690000,10.66968994140625,-1.7729426622390747,-0.1536647081375122,-0.23763775825500488
1789799515660661000,10.679660888671876,-1.8302149772644043,-0.39157339930534363,-0.12065735459327698
1789799515670633000,10.689633056640625,-1.7846510410308838,-0.21797166764736176,-0.1061243861913681
1789799515680604000,10.69960400390625,-1.6039226055145264,0.06306958943605423,-0.23655003309249878
1789799515690574800,10.709574951171875,-1.4722164869308472,0.03798174485564232,-0.38729754090309143
1789799515700546000,10.719546142578125,-1.4877607822418213,-0.2895923852920532,-0.4391482174396515
1789799515710517800,10.729517822265626,-1.6083515882492065,-0.5902592539787292,-0.3788938820362091
1789799515720489000,10.739489013671875,-1.6489280462265015,-0.7054135203361511,-0.32758063077926636
1789799515730460000,10.7494599609375,-1.6524399518966675,-0.7743097543716431,-0.3370018005371094
1789799515740432100,10.75943212890625,-1.6865100860595703,-0.8235893845558167,-0.36805132031440735
1789799515750402800,10.76940283203125,-1.704697608947754,-0.9082497954368591,-0.3847268223762512
1789799515760374000,10.7793740234375,-1.7332898378372192,-1.055452585220337,-0.3614364266395569
1789799515770345000,10.789344970703125,-1.7713756561279297,-1.0585659742355347,-0.3258875608444214
1789799515780317200,10.799317138671874,-1.7053707838058472,-0.9537878036499023,-0.33906540274620056
1789799515790288000,10.809287841796875,-1.5641332864761353,-0.8256571888923645,-0.3404290974140167
1789799515800258800,10.8192587890625,-1.4551889896392822,-0.6909430623054504,-0.29284319281578064
1789799515810231000,10.82923095703125,-1.3822811841964722,-0.6526927947998047,-0.19316934049129486
1789799515820202000,10.839201904296875,-1.26759672164917,-0.6029865145683289,-0.02893378958106041
1789799515830173000,10.8491728515625,-1.047742486000061,-0.37644654512405396,0.14811909198760986
1789799515840145000,10.859144775390625,-0.9422438740730286,-0.10498467832803726,0.2652938961982727
1789799515850116000,10.8691162109375,-0.7372526526451111,-0.05333200469613075,0.26092618703842163
1789799515860087000,10.879087158203125,-0.4649564027786255,-0.11041899025440216,0.24771106243133545
1789799515870058000,10.88905810546875,-0.41738569736480713,-0.13697358965873718,0.3052303194999695
1789799515880030000,10.899030029296876,-0.34451255202293396,-0.16715066134929657,0.33538609743118286
1789799515890001200,10.909001220703125,-0.2872397303581238,-0.22722548246383667,0.34192943572998047
1789799515899971800,10.918971923828124,-0.23397785425186157,-0.209829181432724,0.38973796367645264
1789799515909944000,10.928944091796875,-0.11570332199335098,-0.11171510815620422,0.4656205177307129
1789799515919915000,10.9389150390625,0.0346536859869957,0.046671874821186066,0.4762476086616516
1789799515929886200,10.94888623046875,0.2425224781036377,0.11579285562038422,0.38257941603660583
1789799515939857000,10.95885693359375,0.452352374792099,0.09646869450807571,0.3686998188495636
1789799515949829000,10.9688291015625,0.5851423144340515,0.15048468112945557,0.4192797541618347
1789799515959800000,10.978800048828125,0.694943904876709,0.34160536527633667,0.4130072295665741
1789799515969771000,10.98877099609375,0.8593864440917969,0.523637592792511,0.37845414876937866
1789799515979743000,10.998742919921876,0.9786521196365356,0.6981284022331238,0.34975406527519226
1789799515989714000,11.0087138671875,1.0920921564102173,0.7966738343238831,0.3241546154022217
1789799515999685000,11.01868505859375,1.239762306213379,0.8969855308532715,0.29397645592689514
1789799516009656000,11.028656005859375,1.3944154977798462,1.0676140785217285,0.28090640902519226
1789799516019628000,11.0386279296875,1.5804342031478882,1.2315045595169067,0.24213053286075592
1789799516029599000,11.048598876953125,1.759505033493042,1.1498011350631714,0.1922326385974884
1789799516039570200,11.058570068359375,1.778687596321106,1.0837409496307373,0.1353893280029297
1789799516049542000,11.0685419921875,1.7579420804977417,1.211240291595459,0.14988209307193756
1789799516059513000,11.07851318359375,1.7439466714859009,1.3236876726150513,0.2166861593723297
1789799516069484000,11.088484130859374,1.8526605367660522,1.3089510202407837,0.23281428217887878
1789799516079456000,11.0984560546875,1.9798142910003662,1.1552854776382446,0.15835043787956238
1789799516089427000,11.108427001953125,2.1013031005859375,0.8771734237670898,0.0525132492184639
1789799516099398000,11.11839794921875,2.233275890350342,0.48126232624053955,-0.022951947525143623
1789799516109369000,11.128369140625,2.3454298973083496,0.3303847312927246,-0.09895209968090057
1789799516119340800,11.1383408203125,2.404909610748291,0.4486698508262634,-0.12561379373073578
1789799516129312000,11.14831201171875,2.403463840484619,0.5228442549705505,-0.1116529330611229
1789799516139283000,11.158282958984374,2.330156087875366,0.3424113392829895,-0.08791511505842209
1789799516149255000,11.1682548828125,2.244274854660034,0.16630324721336365,-0.06052204221487045
1789799516159225900,11.178225830078125,2.221062183380127,0.12440293282270432,-0.03464890271425247
1789799516169197000,11.188197021484376,2.225752115249634,0.22261270880699158,0.0007803263142704964
1789799516179168000,11.19816796875,2.165961980819702,0.3180886209011078,-0.023309562355279922
1789799516189140000,11.208139892578124,2.060652732849121,0.17622485756874084,-0.06702280789613724
1789799516199111000,11.21811083984375,1.9454576969146729,0.02317698486149311,-0.10092192143201828
1789799516209081900,11.228081787109375,1.870816707611084,-0.020065493881702423,-0.1410471647977829
1789799516219054000,11.23805419921875,1.8217167854309082,-0.1509348303079605,-0.14624139666557312
1789799516229024800,11.248024658203125,1.7422720193862915,-0.4203767478466034,-0.07454492896795273
1789799516238996000,11.257995849609374,1.601253867149353,-0.5374152064323425,0.034508585929870605
1789799516248967000,11.267966796875,1.3950296640396118,-0.5036277770996094,0.09132684022188187
1789799516258939100,11.277939208984375,1.1921794414520264,-0.3602609932422638,0.07522297650575638
1789799516268909800,11.287909912109376,1.0513471364974976,-0.2000245749950409,-0.011966917663812637
1789799516278881000,11.297881103515625,0.9113242030143738,-0.11385959386825562,-0.04241456836462021
1789799516288853000,11.30785302734375,0.8983016014099121,-0.23251377046108246,0.05968146771192551
1789799516298824200,11.31782421875,0.8498597741127014,-0.1306161731481552,0.23546262085437775
1789799516308795000,11.327794921875,0.7606630921363831,-0.015700606629252434,0.30154138803482056
1789799516318765800,11.337765869140625,0.6745108962059021,-0.025258425623178482,0.28880348801612854
1789799516328738000,11.347738037109375,0.5163622498512268,-0.19881348311901093,0.25685563683509827
1789799516338709000,11.357708984375,0.28076252341270447,-0.1705525517463684,0.21878735721111298
1789799516348680000,11.367679931640625,-0.062657929956913,0.13507235050201416,0.17493896186351776
1789799516358652000,11.37765185546875,-0.3275798559188843,0.30683425068855286,0.14761626720428467
1789799516368623000,11.387623046875,-0.42489558458328247,0.11406153440475464,0.13131919503211975
1789799516378594000,11.397593994140625,-0.47703468799591064,-0.24578557908535004,0.1276847869157791
1789799516388565000,11.40756494140625,-0.5411017537117004,-0.3290221691131592,0.13148485124111176
1789799516398537000,11.417536865234375,-0.6029270887374878,-0.18309612572193146,0.13140256702899933
1789799516408508200,11.427508056640624,-0.671737790107727,-0.03720847889780998,0.11435136198997498
1789799516418478800,11.437478759765625,-0.7342370748519897,0.04548586905002594,0.1115124300122261
1789799516428451000,11.447451171875,-0.7501314282417297,0.14540652930736542,0.10537322610616684
1789799516438422000,11.457422119140626,-0.7108300924301147,0.24600183963775635,0.09218711405992508
1789799516448393200,11.467393310546875,-0.6663075685501099,0.3846327066421509,0.04631312936544418
1789799516458364000,11.477364013671876,-0.627217173576355,0.27653342485427856,-0.05461375415325165
1789799516468336000,11.487336181640625,-0.6109684705734253,0.2053765207529068,-0.08294489234685898
1789799516478307000,11.49730712890625,-0.6735266447067261,0.19478565454483032,-0.0452347956597805
1789799516488278000,11.507278076171875,-0.7674108147621155,0.2773982584476471,0.014934267848730087
1789799516498250000,11.51725,-0.8161778450012207,0.4484157860279083,0.036643289029598236
1789799516508221000,11.527220947265626,-0.8451972007751465,0.5220313668251038,-0.030635176226496696
1789799516518193000,11.53719287109375,-0.8904845118522644,0.5377927422523499,-0.1867685765028
1789799516528163800,11.547163818359374,-0.9578635096549988,0.5585078001022339,-0.3736879229545593
1789799516538136000,11.557135986328126,-1.0720018148422241,0.584279477596283,-0.5576350688934326
1789799516548107000,11.56710693359375,-1.2431446313858032,0.39921534061431885,-0.640819787979126
1789799516558078000,11.577077880859376,-1.4014991521835327,-0.19664247334003448,-0.5031684041023254
1789799516568050000,11.5870498046875,-1.6205732822418213,-0.5542818307876587,-0.30212318897247314
1789799516578021000,11.597021240234374,-1.8806480169296265,-0.2783626317977905,-0.2691492736339569
1789799516587992000,11.606991943359375,-1.873049259185791,0.5897803902626038,-0.47941285371780396
1789799516597963000,11.616962890625,-1.738860845565796,1.374367117881775,-0.629888117313385
1789799516607935000,11.62693505859375,-1.7121487855911255,1.3300304412841797,-0.5845391154289246
1789799516617906200,11.63690625,-1.716610074043274,0.6097593307495117,-0.3942927122116089
1789799516627877000,11.646877197265624,-1.7966707944869995,-0.10381676256656647,-0.1898934692144394
1789799516637847800,11.656847900390625,-1.922335147857666,-0.35030269622802734,-0.09017433226108551
1789799516647820000,11.666820068359375,-1.986474871635437,-0.30247974395751953,-0.11992467939853668
1789799516657791000,11.676791015625,-1.9628111124038696,-0.19839301705360413,-0.23713038861751556
1789799516667762000,11.686761962890625,-1.9020029306411743,-0.29005318880081177,-0.35487011075019836
1789799516677734000,11.69673388671875,-1.8774651288986206,-0.5579940676689148,-0.3519430458545685
1789799516687705000,11.706705078125,-1.8777291774749756,-0.8460995554924011,-0.26232197880744934
1789799516697676000,11.716676025390624,-1.9134986400604248,-1.0955640077590942,-0.21174295246601105
1789799516707647000,11.72664697265625,-1.9563939571380615,-1.3334707021713257,-0.26241645216941833
1789799516717619000,11.736618896484375,-1.917436957359314,-1.437309741973877,-0.34548309445381165
1789799516727590100,11.746590087890626,-1.925792932510376,-1.403906226158142,-0.45438581705093384
1789799516737561000,11.75656103515625,-1.9088525772094727,-1.3145947456359863,-0.5797111988067627
1789799516747533000,11.766532958984374,-1.8401168584823608,-1.2725352048873901,-0.6217386722564697
1789799516757504000,11.77650390625,-1.741470456123352,-1.3037432432174683,-0.5331195592880249
1789799516767475000,11.786474853515625,-1.6885230541229248,-1.245352864265442,-0.375978946685791
1789799516777446100,11.796446044921876,-1.6972988843917847,-0.9515351057052612,-0.28428712487220764
1789799516787417900,11.80641796875,-1.5699939727783203,-0.5635042786598206,-0.22716522216796875
1789799516797389000,11.81638916015625,-1.3129576444625854,-0.10310548543930054,-0.051139071583747864
1789799516807360000,11.826360107421875,-1.111987829208374,0.023224204778671265,0.10995366424322128
1789799516817331200,11.836331298828124,-0.957785427570343,0.14112208783626556,0.23408013582229614
1789799516827303000,11.846302978515626,-0.7788210511207581,0.22375594079494476,0.28548282384872437
1789799516837274000,11.856274169921875,-0.6377387642860413,0.2857969403266907,0.2894147038459778
1789799516847245000,11.8662451171875,-0.5166147351264954,0.27798208594322205,0.2629534900188446
1789799516857217000,11.876217041015625,-0.37163540720939636,0.06385248899459839,0.2251022607088089
1789799516867188000,11.88618798828125,-0.24736329913139343,-0.05378832295536995,0.22874978184700012
1789799516877159000,11.896158935546875,-0.09017235040664673,0.1193230077624321,0.2482350617647171
1789799516887130000,11.906130126953125,0.08713509887456894,0.2705167829990387,0.2797362506389618
1789799516897101800,11.916101806640626,0.24985210597515106,0.268363356590271,0.24660253524780273
1789799516907073000,11.926072998046875,0.33623412251472473,0.25001776218414307,0.1862940788269043
1789799516917044000,11.9360439453125,0.47742295265197754,0.3759258985519409,0.15980841219425201
1789799516927016000,11.946015869140625,0.6030474901199341,0.3721003532409668,0.1682129055261612
1789799516936987000,11.95598681640625,0.6833548545837402,0.3377852737903595,0.19150596857070923
1789799516946958000,11.9659580078125,0.7775164246559143,0.39470618963241577,0.22014597058296204
1789799516956929000,11.975928955078125,0.8974137902259827,0.4139568507671356,0.25181815028190613
1789799516966901000,11.98590087890625,0.9757611155509949,0.33502253890037537,0.23844873905181885
1789799516976872000,11.995871826171875,1.1145291328430176,0.23117709159851074,0.10141924023628235
1789799516986843000,12.0058427734375,1.3400616645812988,0.32310399413108826,-0.07215742021799088
1789799516996814800,12.01581494140625,1.5921591520309448,0.611194372177124,-0.11608732491731644
1789799517006786000,12.0257861328125,1.6594667434692383,0.8862617611885071,-0.02536367066204548
1789799517016757000,12.035757080078126,1.6713755130767822,1.0953289270401,0.02217162400484085
1789799517026728000,12.04572802734375,1.772754430770874,1.0590053796768188,-0.0008204244077205658
1789799517036700000,12.055699951171874,1.8681954145431519,0.9478999376296997,-0.031276069581508636
1789799517046670800,12.0656708984375,1.980755090713501,0.9668049812316895,-0.03691735863685608
1789799517056642000,12.07564208984375,2.0781335830688477,0.9278493523597717,-0.05008962005376816
1789799517066613000,12.085613037109376,2.156536340713501,0.8180448412895203,-0.08213594555854797
1789799517076585000,12.0955849609375,2.2365169525146484,0.7561870813369751,-0.10087501257658005
1789799517086556000,12.105555908203126,2.2690579891204834,0.7825197577476501,-0.11968820542097092
1789799517096527000,12.115527099609375,2.2083516120910645,0.7448224425315857,-0.11584553122520447
1789799517106499000,12.1254990234375,2.072781562805176,0.5557506680488586,-0.10225128382444382
1789799517116470000,12.135469970703125,2.0443830490112305,0.33748599886894226,-0.08758419007062912
1789799517126441000,12.14544091796875,2.1862170696258545,0.3005993962287903,-0.12558184564113617
1789799517136412000,12.155411865234376,2.3542428016662598,0.459696888923645,-0.22047826647758484
1789799517146384100,12.165384033203125,2.402600049972534,0.6688221096992493,-0.3109019696712494
1789799517156354800,12.175354736328124,2.1769979000091553,0.5678161382675171,-0.3117717504501343
1789799517166326000,12.185325927734375,1.942805290222168,-0.10651237517595291,-0.17034684121608734
1789799517176297000,12.195296875,1.9762974977493286,-0.5777970552444458,-0.13696864247322083
1789799517186269000,12.20526904296875,1.9599217176437378,-0.6208717823028564,-0.20642435550689697
1789799517196240000,12.215239990234375,1.891533613204956,-0.506435751914978,-0.2579099237918854
1789799517206211000,12.225211181640624,1.7350938320159912,-0.34929853677749634,-0.3062627911567688
1789799517216183000,12.23518310546875,1.5300301313400269,-0.351337730884552,-0.3504326343536377
1789799517226154000,12.245154052734375,1.3589270114898682,-0.417042076587677,-0.2639855146408081
1789799517236125000,12.255125,1.1882034540176392,-0.39968597888946533,-0.07371276617050171
1789799517246096000,12.265095947265625,1.0673190355300903,-0.16181053221225739,0.04434012621641159
1789799517256068000,12.275068115234374,1.035150408744812,0.280060350894928,0.031004883348941803
1789799517266038800,12.285038818359375,0.9939609169960022,0.45730406045913696,-0.032633546739816666
1789799517276010000,12.295010009765624,0.9094873070716858,0.3144957721233368,-0.0709226131439209
1789799517285981000,12.30498095703125,0.8462894558906555,0.11162123084068298,-0.03999077528715134
1789799517295953200,12.314953125,0.7675829529762268,-0.08572566509246826,0.04537392035126686
1789799517305923800,12.324923828125,0.7001029253005981,-0.08588455617427826,0.13511642813682556
1789799517315895000,12.33489501953125,0.6681178212165833,-0.008788705803453922,0.12028128653764725
1789799517325867000,12.344866943359374,0.5168671607971191,0.035521719604730606,-0.03116687387228012
1789799517335838000,12.354837890625,0.27952831983566284,-0.17908725142478943,-0.2247142344713211
1789799517345809000,12.364808837890624,0.10723353922367096,-0.7751220464706421,-0.20305649936199188
1789799517355779800,12.37477978515625,-0.08225143700838089,-0.9317057728767395,0.07837598025798798
1789799517365752000,12.384751953125,-0.24341639876365662,-0.5288943648338318,0.2338748574256897
1789799517375723000,12.394722900390626,-0.39067453145980835,-0.08134955912828445,0.1625404953956604
1789799517385694000,12.40469384765625,-0.5724342465400696,0.1567177176475525,0.13379870355129242
1789799517395665000,12.414664794921874,-0.8180978298187256,0.3651111423969269,0.21376463770866394
1789799517405637000,12.42463720703125,-1.0186830759048462,0.5441276431083679,0.27982157468795776
1789799517415607800,12.43460791015625,-1.114714503288269,0.5993874073028564,0.26300981640815735
