time,seconds_elapsed,z,y,x
1789799505027476700,0.046476806640625,-0.4455583095550537,0.22546827793121338,-0.5002119541168213
1789799505037447700,0.05644775390625,-0.33772557973861694,0.4526420533657074,-0.6150906085968018
1789799505047419000,0.0664189453125,-0.22204451262950897,0.722517192363739,-0.8136441707611084
1789799505057390600,0.076390625,-0.09612440317869186,0.9245973229408264,-0.993890106678009
1789799505067361800,0.08636181640625,0.010409497655928135,1.023259162902832,-1.0493733882904053
1789799505077332700,0.096332763671875,0.08453192561864853,1.1282525062561035,-1.0084991455078125
1789799505087304700,0.1063046875,0.15691505372524261,1.287441611289978,-0.9490829706192017
1789799505097275600,0.116275634765625,0.2458111047744751,1.3927927017211914,-0.8694747090339661
1789799505107246600,0.12624658203125,0.3561549186706543,1.4625211954116821,-0.7898792028427124
1789799505117218800,0.13621875,0.48360687494277954,1.46304190158844,-0.7441809177398682
1789799505127189800,0.146189697265625,0.6213319897651672,1.5379174947738647,-0.7072242498397827
1789799505137161700,0.15616162109375,0.7365304827690125,1.6819441318511963,-0.6842371821403503
1789799505147132700,0.166132568359375,0.830556333065033,1.8970409631729126,-0.6776996850967407
1789799505157103900,0.176103759765625,0.924104630947113,2.2216854095458984,-0.6921968460083008
1789799505167075600,0.18607568359375,1.0040497779846191,2.6302316188812256,-0.6999239921569824
1789799505177046800,0.196046875,0.9952182173728943,3.021803855895996,-0.6887611150741577
1789799505187017700,0.206017822265625,0.8607783913612366,3.1458146572113037,-0.6213147044181824
1789799505196989700,0.21598974609375,0.6962741613388062,2.981092929840088,-0.4483671486377716
1789799505206960600,0.225960693359375,0.4932512640953064,2.613480806350708,-0.16738952696323395
1789799505216931800,0.235931884765625,0.25094541907310486,2.0985968112945557,0.21019931137561798
1789799505226903600,0.245903564453125,0.01458853017538786,1.510805368423462,0.605145275592804
1789799505236874800,0.255874755859375,-0.3613227903842926,0.9293992519378662,0.8544568419456482
1789799505246845700,0.265845703125,-0.6626381278038025,0.0010013486025854945,0.9391746520996094
1789799505256818000,0.27581787109375,-0.8680711984634399,-0.930446982383728,0.9235320687294006
1789799505266788600,0.28578857421875,-1.1791713237762451,-1.7947990894317627,0.8581016659736633
1789799505276759600,0.295759521484375,-1.3905553817749023,-2.719510793685913,0.7723990082740784
1789799505286731800,0.305731689453125,-1.545582890510559,-3.6820545196533203,0.7345312237739563
1789799505296702700,0.31570263671875,-1.7246628999710083,-4.431638717651367,0.7242658138275146
1789799505306674700,0.3256748046875,-1.7769947052001953,-4.995494842529297,0.6213836669921875
1789799505316645600,0.335645751953125,-1.4598242044448853,-5.783719062805176,0.4004361033439636
1789799505326616800,0.345616943359375,-0.9388737082481384,-6.787321090698242,0.12607191503047943
1789799505336588500,0.355588623046875,-0.9209825992584229,-5.592777729034424,-0.648689329624176
1789799505346559700,0.365559814453125,-1.0250030755996704,-4.122068405151367,-1.0915777683258057
1789799505356530700,0.37553076171875,-0.6708194017410278,-2.765627861022949,-1.5343917608261108
1789799505366502700,0.385502685546875,0.1568300873041153,-1.3833987712860107,-1.9474456310272217
1789799505376473600,0.3954736328125,1.2945679426193237,-0.3734273910522461,-2.185307264328003
1789799505386444800,0.40544482421875,2.2753219604492188,0.4052872955799103,-2.2352869510650635
1789799505396416800,0.415416748046875,3.0157828330993652,0.5160212516784668,-1.9099557399749756
1789799505406387700,0.4253876953125,3.3246898651123047,0.09664718061685562,-1.2236138582229614
1789799505416359700,0.435359619140625,3.565570831298828,-0.5405399203300476,-0.4119236469268799
1789799505426331000,0.445330810546875,3.2622852325439453,-1.9184578657150269,0.20329825580120087
1789799505436301800,0.4553017578125,2.1613407135009766,-3.708340883255005,0.416810542345047
1789799505446273800,0.465273681640625,1.175446629524231,-3.989915370941162,0.5693318843841553
1789799505456244700,0.47524462890625,0.6311691999435425,-3.223862886428833,0.9368262887001038
1789799505466216000,0.4852158203125,0.3652823567390442,-2.158865451812744,1.1620678901672363
1789799505476187600,0.495187744140625,0.3552561104297638,-1.3372712135314941,1.0809820890426636
1789799505486158800,0.505158935546875,0.5313773155212402,-0.39753004908561707,0.7824963927268982
1789799505496129800,0.5151298828125,0.6948333978652954,0.17929092049598694,0.39700061082839966
1789799505506102300,0.525102294921875,0.7453609704971313,0.3782751262187958,0.074699267745018
1789799505516073200,0.5350732421875,0.7023701071739197,0.2808913290500641,-0.05603477358818054
1789799505526044200,0.545044189453125,0.6272777915000916,-0.01672704890370369,0.11203199625015259
1789799505536016100,0.55501611328125,0.5404874682426453,-0.3764761686325073,0.42583757638931274
1789799505545987000,0.564987060546875,0.45590147376060486,-0.7736093997955322,0.6915912628173828
1789799505555958300,0.574958251953125,0.36742568016052246,-0.9559730887413025,0.8671497702598572
1789799505565930200,0.58493017578125,0.2833089530467987,-0.9344598054885864,0.947789192199707
1789799505575901200,0.594901123046875,0.22228819131851196,-0.7912512421607971,0.9043956398963928
1789799505585873200,0.604873046875,0.18456211686134338,-0.5169749855995178,0.7642936706542969
1789799505595844400,0.61484423828125,0.17016799747943878,-0.25319764018058777,0.5817012190818787
1789799505605815300,0.624815185546875,0.18323799967765808,-0.12284895777702332,0.46410641074180603
1789799505615787300,0.634787353515625,0.2039661854505539,-0.031498804688453674,0.46949532628059387
1789799505625758200,0.64475830078125,0.17318643629550934,0.007742607966065407,0.5538767576217651
1789799505635729400,0.6547294921875,0.06938546895980835,0.001621066126972437,0.5865992903709412
1789799505645701000,0.664701171875,-0.06759848445653915,0.004898618441075087,0.5399700403213501
1789799505655672300,0.67467236328125,-0.17258907854557037,0.03021382912993431,0.43396875262260437
1789799505665643300,0.684643310546875,-0.2257566899061203,0.022036859765648842,0.2757468819618225
1789799505675615200,0.694615234375,-0.1997421383857727,-0.03769225254654884,0.1322733461856842
1789799505685586200,0.704586181640625,-0.12958967685699463,-0.12997610867023468,0.057859569787979126
1789799505695557400,0.714557373046875,-0.06740886718034744,-0.2583788335323334,0.04891108348965645
1789799505705529000,0.724529052734375,-0.027664383873343468,-0.4014664590358734,0.11286582797765732
1789799505715500300,0.734500244140625,-0.016683638095855713,-0.5061162114143372,0.23836356401443481
1789799505725472300,0.74447216796875,-0.02690112218260765,-0.49263447523117065,0.3643744885921478
1789799505735443500,0.754443359375,-0.05591200292110443,-0.40774887800216675,0.4264679551124573
1789799505745414100,0.7644140625,-0.11425946652889252,-0.18593071401119232,0.46818476915359497
1789799505755386400,0.774386474609375,-0.1801348775625229,0.20651988685131073,0.5109623670578003
1789799505765357300,0.784357421875,-0.17797452211380005,0.5218988656997681,0.47751834988594055
1789799505775328300,0.794328369140625,-0.10035429894924164,0.48582983016967773,0.2940657138824463
1789799505785300200,0.80430029296875,0.0012117383303120732,0.07193757593631744,0.009272061288356781
1789799505795271200,0.814271240234375,0.06370653957128525,-0.4737081825733185,-0.267860472202301
1789799505805242400,0.824242431640625,0.00021411814668681473,-0.7734461426734924,-0.3952051103115082
1789799505815214000,0.834214111328125,-0.11469542235136032,-0.5361518263816833,-0.29227420687675476
1789799505825185300,0.844185302734375,-0.148518905043602,0.0732656940817833,-0.1304839700460434
1789799505835156200,0.85415625,-0.09042230993509293,0.5895549058914185,-0.08358383923768997
1789799505845128200,0.864128173828125,-0.01125212199985981,0.7850722074508667,-0.12622743844985962
1789799505855099100,0.87409912109375,0.026225212961435318,0.6738647222518921,-0.23763999342918396
1789799505865070300,0.8840703125,0.008357798680663109,0.3716907203197479,-0.39108332991600037
1789799505875042300,0.894042236328125,-0.02454555593430996,0.02539989911019802,-0.5481011867523193
1789799505885013200,0.90401318359375,-0.036072250455617905,-0.2266557812690735,-0.6372872591018677
1789799505894984200,0.913984130859375,-0.009586048312485218,-0.29500314593315125,-0.6297070980072021
1789799505904956400,0.923956298828125,0.037453364580869675,-0.227963387966156,-0.5622010231018066
1789799505914927400,0.93392724609375,0.08879857510328293,-0.10170159488916397,-0.4792315661907196
1789799505924899300,0.9438994140625,0.1327417939901352,-0.02111700363457203,-0.44407039880752563
1789799505934870300,0.953870361328125,0.15120869874954224,-0.11495641618967056,-0.5381298065185547
1789799505944841200,0.96384130859375,0.18956753611564636,-0.2649986445903778,-0.783038854598999
1789799505954813200,0.973813232421875,0.10869026184082031,-0.4273156523704529,-0.977522075176239
1789799505964784000,0.9837841796875,-0.052811283618211746,-0.2992151975631714,-0.9863216876983643
1789799505974755300,0.99375537109375,-0.1550321877002716,0.0356951467692852,-0.820323646068573
1789799505984727000,1.00372705078125,-0.19065676629543304,0.5317517518997192,-0.47055312991142273
1789799505994698200,1.0136982421875,-0.18598930537700653,0.9394811987876892,-0.06744562089443207
1789799506004669200,1.023669189453125,-0.18239377439022064,1.0210742950439453,0.25718334317207336
1789799506014641400,1.033641357421875,-0.20498031377792358,0.7874932885169983,0.4927353858947754
1789799506024612000,1.043612060546875,-0.25157445669174194,0.37752917408943176,0.654608428478241
1789799506034583300,1.053583251953125,-0.2914925515651703,-0.008378570899367332,0.7462760806083679
1789799506044555300,1.06355517578125,-0.30751892924308777,-0.311164528131485,0.7344462871551514
1789799506054526200,1.073526123046875,-0.29503777623176575,-0.5788335204124451,0.6116229295730591
1789799506064497200,1.0834970703125,-0.2550205886363983,-0.7821629643440247,0.4832545518875122
1789799506074469400,1.093469482421875,-0.24076946079730988,-0.7991864085197449,0.44590502977371216
1789799506084440300,1.1034404296875,-0.30226266384124756,-0.5381518602371216,0.4885750114917755
1789799506094411000,1.113410888671875,-0.4808012545108795,-0.27053800225257874,0.5166063904762268
1789799506104383200,1.12338330078125,-0.5761570334434509,-0.40702128410339355,0.3645966053009033
1789799506114354200,1.133354248046875,-0.5386858582496643,-1.0153716802597046,-0.07283639162778854
1789799506124326100,1.143326171875,-0.4612374007701874,-1.5252964496612549,-0.6023902297019958
1789799506134297000,1.153297119140625,-0.3892606794834137,-1.3872312307357788,-0.958850085735321
1789799506144268300,1.163268310546875,-0.3656594753265381,-0.6291675567626953,-1.1161198616027832
1789799506154240300,1.173240234375,-0.40319645404815674,0.2942068576812744,-1.1334376335144043
1789799506164211200,1.183211181640625,-0.4795309007167816,0.8329153656959534,-1.114048957824707
1789799506174182100,1.19318212890625,-0.5572249293327332,0.9219637513160706,-1.1426825523376465
1789799506184154400,1.203154296875,-0.5805155634880066,0.7791378498077393,-1.2043671607971191
1789799506194125000,1.213125,-0.508233904838562,0.5521821975708008,-1.2370021343231201
1789799506204096300,1.22309619140625,-0.33584165573120117,0.3656938374042511,-1.1237399578094482
1789799506214068200,1.233068115234375,-0.13172048330307007,0.22110894322395325,-0.8212802410125732
1789799506224039400,1.243039306640625,0.01124919205904007,0.1679045855998993,-0.41566193103790283
1789799506234010000,1.253010009765625,0.040597494691610336,0.22149963676929474,-0.0326751209795475
1789799506243982300,1.262982421875,-0.008734636008739471,0.3080182671546936,0.2615746259689331
1789799506253953300,1.272953369140625,-0.07494241744279861,0.36722859740257263,0.47340163588523865
1789799506263924200,1.28292431640625,-0.0969872698187828,0.3899078071117401,0.6107959747314453
1789799506273896200,1.292896240234375,-0.05221686512231827,0.3614857792854309,0.6661295294761658
1789799506283867100,1.3028671875,0.03795377537608147,0.27455779910087585,0.6167891621589661
1789799506293838300,1.31283837890625,0.1307779848575592,0.19428479671478271,0.5038580894470215
1789799506303810300,1.322810302734375,0.20627912878990173,0.19550958275794983,0.4238945543766022
1789799506313781200,1.33278125,0.28229907155036926,0.21541164815425873,0.43535226583480835
1789799506323753500,1.34275341796875,0.35715892910957336,0.18559277057647705,0.5450473427772522
1789799506333724200,1.35272412109375,0.4031866192817688,0.08050283044576645,0.6867130994796753
1789799506343695000,1.362695068359375,0.40708333253860474,-0.10048852115869522,0.7790851593017578
1789799506353667300,1.372667236328125,0.3575376272201538,-0.25450393557548523,0.7817370891571045
1789799506363638300,1.38263818359375,0.28061676025390625,-0.2999214828014374,0.7064998745918274
1789799506373609200,1.392609130859375,0.21243183314800262,-0.28044578433036804,0.582869827747345
1789799506383581200,1.402581298828125,0.19037100672721863,-0.3188919723033905,0.43286648392677307
1789799506393552400,1.412552490234375,0.20543251931667328,-0.4710703194141388,0.2815246284008026
1789799506403523300,1.4225234375,0.2260832041501999,-0.6433744430541992,0.1526571810245514
1789799506413495300,1.432495361328125,0.24828624725341797,-0.8052017092704773,0.08866169303655624
1789799506423466200,1.44246630859375,0.3136301040649414,-1.0259183645248413,0.06760008633136749
1789799506433437400,1.4524375,0.4702165126800537,-1.2237834930419922,0.045159488916397095
1789799506443409200,1.4624091796875,0.734322726726532,-1.3149224519729614,-0.010179134085774422
1789799506453380400,1.47238037109375,1.0479093790054321,-1.5122416019439697,-0.01601305417716503
1789799506463351300,1.482351318359375,1.3523979187011719,-1.8804566860198975,-0.03099999390542507
1789799506473323300,1.4923232421875,1.632439136505127,-2.5158438682556152,-0.0708179771900177
1789799506483294200,1.502294189453125,1.897011399269104,-3.3655805587768555,-0.059597283601760864
1789799506493265200,1.51226513671875,2.165724992752075,-4.377038955688477,0.10291039943695068
1789799506503237000,1.522237060546875,2.458333969116211,-5.434212684631348,0.45113202929496765
1789799506513208300,1.532208251953125,2.7296900749206543,-6.416998386383057,0.9429158568382263
1789799506523179300,1.54217919921875,2.948970079421997,-7.1599321365356445,1.4958642721176147
1789799506533151500,1.5521513671875,3.1760637760162354,-7.599010944366455,2.071826696395874
1789799506543122200,1.5621220703125,3.393542766571045,-7.859307289123535,2.569288969039917
1789799506553093000,1.572093017578125,3.6971869468688965,-8.014193534851074,2.879162311553955
1789799506563065300,1.5820654296875,4.06300687789917,-7.879495620727539,2.993316650390625
1789799506573036300,1.592036376953125,4.420827388763428,-7.517648220062256,2.875811815261841
1789799506583008300,1.60200830078125,4.783049583435059,-6.92405366897583,2.5433268547058105
1789799506592979200,1.611979248046875,5.116724491119385,-6.086226463317871,2.0828564167022705
1789799506602950400,1.621950439453125,5.243666172027588,-4.775638103485107,1.5721760988235474
1789799506612922000,1.631922119140625,5.622421741485596,-3.751030445098877,1.0152387619018555
1789799506622893300,1.641893310546875,5.9693732261657715,-3.08758807182312,0.5176743268966675
1789799506632864300,1.6518642578125,6.087601661682129,-2.3631556034088135,0.13422730565071106
1789799506642836200,1.661836181640625,6.1360979080200195,-1.5250855684280396,-0.21147815883159637
1789799506652807200,1.67180712890625,6.170008182525635,-0.6322981119155884,-0.5204544067382812
1789799506662778400,1.6817783203125,6.13505744934082,0.0884595587849617,-0.7780103087425232
1789799506672750300,1.691750244140625,6.010241508483887,0.5559801459312439,-0.9568543434143066
1789799506682721300,1.70172119140625,5.87413215637207,0.7720786333084106,-0.9981317520141602
1789799506692692200,1.711692138671875,5.717578887939453,0.8627022504806519,-0.7850029468536377
1789799506702664400,1.72166455078125,5.6826605796813965,0.5387731790542603,-0.46938931941986084
1789799506712635400,1.731635498046875,5.638454914093018,0.08522728085517883,-0.06705652922391891
1789799506722606000,1.741606201171875,5.4138078689575195,-0.21327099204063416,0.3729104697704315
1789799506732578300,1.751578369140625,4.958407402038574,-0.23547349870204926,0.7709640860557556
1789799506742549200,1.76154931640625,4.337160110473633,-0.04670678451657295,1.0792196989059448
1789799506752520400,1.7715205078125,3.9181737899780273,0.6344730854034424,1.257565975189209
1789799506762492200,1.7814921875,3.3698313236236572,1.2303245067596436,1.1219269037246704
1789799506772463400,1.79146337890625,3.2241573333740234,1.7082569599151611,0.8285914063453674
1789799506782434300,1.801434326171875,3.165498733520508,2.53606915473938,0.5627773404121399
1789799506792406300,1.81140625,2.7676827907562256,2.3700568675994873,0.22135981917381287
1789799506802377200,1.821377197265625,2.3321001529693604,1.7772085666656494,-0.07335570454597473
1789799506812348400,1.831348388671875,2.058770179748535,1.9624087810516357,-0.5875095725059509
1789799506822320000,1.841320068359375,1.8574613332748413,2.477004289627075,-1.2449567317962646
1789799506832291300,1.851291259765625,1.6147421598434448,2.524172306060791,-1.2526012659072876
1789799506842262300,1.86126220703125,1.2365602254867554,2.360487699508667,-0.6219285130500793
1789799506852234200,1.871234130859375,0.7692655324935913,1.7709240913391113,-0.14982225000858307
1789799506862205200,1.881205078125,0.3737541437149048,0.8563032150268555,0.06084710359573364
1789799506872176000,1.891176025390625,0.3200477659702301,0.47541287541389465,0.16456177830696106
1789799506882148400,1.9011484375,0.3387037515640259,0.46426060795783997,-0.009493636898696423
1789799506892119300,1.911119384765625,0.2245798408985138,0.05212205648422241,-0.14236992597579956
1789799506902091300,1.92109130859375,0.07189895957708359,-0.479948490858078,0.014060425572097301
1789799506912062200,1.931062255859375,-0.0546315535902977,-0.9750586152076721,0.2991555333137512
1789799506922033400,1.941033447265625,-0.21368485689163208,-0.9886910915374756,0.4705001413822174
1789799506932004000,1.951004150390625,-0.4190257489681244,-0.8942596316337585,0.6362352967262268
1789799506941976300,1.960976318359375,-0.6875014305114746,-1.1609885692596436,1.3772170543670654
1789799506951947300,1.970947265625,-0.7441492676734924,-1.0776329040527344,1.940548300743103
1789799506961919200,1.980919189453125,-0.4372953176498413,-0.508233904838562,1.4450263977050781
1789799506971890200,1.99089013671875,-0.02015214040875435,0.06767145544290543,0.8042570948600769
1789799506981861400,2.000861328125,0.13708142936229706,0.4816012680530548,0.3321246802806854
1789799506991833000,2.0108330078125,-0.07572032511234283,0.39572522044181824,0.293081134557724
1789799507001804300,2.02080419921875,-0.4582655727863312,0.00842943787574768,0.5484710931777954
1789799507011775200,2.030775146484375,-0.7895708084106445,-0.5333811044692993,0.771906316280365
1789799507021747500,2.04074755859375,-0.846994161605835,-0.99149090051651,0.8158234357833862
1789799507031718100,2.05071826171875,-0.935979962348938,-1.1310330629348755,0.7537131905555725
1789799507041689300,2.060689453125,-1.204959750175476,-1.235744595527649,0.7029922604560852
1789799507051661300,2.070661376953125,-1.6132981777191162,-1.308220386505127,0.7445061206817627
1789799507061632500,2.080632568359375,-1.9470692873001099,-1.2275910377502441,0.7887476086616516
1789799507071603200,2.090603271484375,-2.256196975708008,-1.2995203733444214,0.6928991079330444
1789799507081575400,2.100575439453125,-2.5836331844329834,-1.5124096870422363,0.5790228843688965
1789799507091546400,2.11054638671875,-2.9258360862731934,-1.8800737857818604,0.4376945197582245
1789799507101517300,2.120517333984375,-3.341923475265503,-2.17825984954834,0.26413044333457947
1789799507111489300,2.1304892578125,-3.357820987701416,-2.4302194118499756,-0.03163515776395798
1789799507121460200,2.140460205078125,-3.133256196975708,-2.377880573272705,-0.23731854557991028
1789799507131431400,2.150431396484375,-2.982100486755371,-2.0477309226989746,-0.3137667179107666
1789799507141403100,2.160403076171875,-2.898221492767334,-2.1585628986358643,-0.1902082860469818
1789799507151374300,2.170374267578125,-2.5363049507141113,-2.397667407989502,0.05266720429062843
1789799507161345300,2.18034521484375,-2.093832015991211,-2.426292657852173,0.2100168764591217
1789799507171317200,2.190317138671875,-1.92120361328125,-2.5817627906799316,0.2795189917087555
1789799507181288200,2.2002880859375,-1.9424268007278442,-2.8183724880218506,0.19720228016376495
1789799507191260400,2.210260498046875,-1.5431431531906128,-2.130798578262329,-0.141756072640419
1789799507201231400,2.2202314453125,-1.4873355627059937,-1.12159264087677,-0.8249908685684204
1789799507211202300,2.230202392578125,-1.6254276037216187,-0.3528592586517334,-1.4652533531188965
1789799507221174300,2.24017431640625,-1.678449034690857,-0.046235404908657074,-1.7177878618240356
1789799507231145500,2.2501455078125,-1.75375497341156,0.4660577178001404,-1.6928625106811523
1789799507241116200,2.2601162109375,-1.7365500926971436,0.4486558139324188,-1.6600912809371948
1789799507251088400,2.27008837890625,-1.4717347621917725,-0.023868048563599586,-1.4234782457351685
1789799507261059300,2.280059326171875,-1.1282061338424683,-0.3565903306007385,-1.1864761114120483
1789799507271030300,2.2900302734375,-0.9190148115158081,-0.6654499173164368,-1.0078954696655273
1789799507281002200,2.300002197265625,-0.6951955556869507,-0.7273300886154175,-0.991277813911438
1789799507290973200,2.30997314453125,-0.2944449484348297,-0.6218739151954651,-1.181358814239502
1789799507300944400,2.3199443359375,0.058094728738069534,-0.4381616413593292,-1.3575149774551392
1789799507310916000,2.329916015625,0.3453267812728882,-0.2036077231168747,-1.4820928573608398
1789799507320887300,2.33988720703125,0.6387853026390076,0.07284730672836304,-1.5655386447906494
1789799507330858200,2.349858154296875,0.8526432514190674,0.3553237318992615,-1.597452998161316
1789799507340830200,2.359830322265625,1.1306796073913574,0.580780565738678,-1.5951887369155884
1789799507350801200,2.36980126953125,1.4342161417007446,0.4789729714393616,-1.559335708618164
1789799507360772400,2.3797724609375,1.7563691139221191,0.44751065969467163,-1.3005930185317993
1789799507370744300,2.389744384765625,2.2574634552001953,1.0850882530212402,-0.7299990653991699
1789799507380715300,2.39971533203125,2.7548279762268066,2.321349620819092,-0.493251770734787
1789799507390686200,2.409686279296875,2.932227373123169,2.8701651096343994,-0.43803539872169495
1789799507400658400,2.419658447265625,3.091087579727173,2.378448486328125,-0.36381256580352783
1789799507410629400,2.42962939453125,2.9606661796569824,1.6810131072998047,-0.21550698578357697
1789799507420600000,2.43960009765625,2.7564537525177,1.7029898166656494,-0.5189369320869446
1789799507430572300,2.449572265625,2.3096418380737305,2.388561964035034,-0.7068764567375183
1789799507440543200,2.459543212890625,2.010467052459717,1.721693992614746,-0.7491200566291809
1789799507450514400,2.469514404296875,1.7611404657363892,0.7456941604614258,-0.5680389404296875
1789799507460486100,2.479486083984375,1.4629963636398315,0.5044069886207581,-0.4960632920265198
1789799507470457300,2.489457275390625,1.183078646659851,0.6988049149513245,-0.5835646390914917
1789799507480428300,2.49942822265625,0.9780917167663574,0.9708942770957947,-0.6901875138282776
1789799507490400300,2.509400146484375,0.891074538230896,1.044763445854187,-0.6362454295158386
1789799507500371200,2.51937109375,0.7171754240989685,0.8773025274276733,-0.4097398519515991
1789799507510342700,2.5293427734375,0.31373926997184753,0.468665212392807,-0.17460349202156067
1789799507520314600,2.539314697265625,-0.06708662211894989,0.11218912154436111,0.012892629019916058
1789799507530285600,2.54928564453125,-0.7590970396995544,0.00043782367720268667,-0.08038778603076935
1789799507540256800,2.5592568359375,-1.3738858699798584,0.015501994639635086,-0.16659164428710938
1789799507550228500,2.569228515625,-1.4414020776748657,-0.44074997305870056,-0.22167566418647766
1789799507560199700,2.57919970703125,-1.5330257415771484,-1.0125929117202759,-0.1805785596370697
1789799507570171600,2.589171630859375,-1.731892466545105,-1.8725652694702148,-0.17273955047130585
1789799507580142800,2.599142822265625,-1.9786242246627808,-2.8242597579956055,-0.3981151580810547
1789799507590113500,2.609113525390625,-1.1386669874191284,-3.4365179538726807,-1.0451927185058594
1789799507600085800,2.619085693359375,-0.45301753282546997,-1.9494714736938477,-1.3471081256866455
1789799507610056700,2.629056640625,-0.3256968855857849,-0.9330099821090698,-1.21213698387146
1789799507620027600,2.639027587890625,-0.39124977588653564,-0.5418872237205505,-0.7641810178756714
1789799507629999600,2.64899951171875,-0.39127615094184875,-0.38791072368621826,-0.2369539588689804
1789799507639970600,2.658970458984375,-0.3998315632343292,-0.1685301661491394,0.29895687103271484
1789799507649941800,2.668941650390625,-0.4475644528865814,0.07411124557256699,0.6549698710441589
1789799507659913500,2.67891357421875,-0.37739816308021545,0.18106113374233246,0.6865559816360474
1789799507669884700,2.688884765625,-0.18653473258018494,0.27995362877845764,0.4420229494571686
1789799507679855600,2.698855712890625,-0.0678086057305336,0.27015212178230286,0.06676331907510757
1789799507689827600,2.70882763671875,-0.08816288411617279,0.12993749976158142,-0.19210553169250488
1789799507699798500,2.718798583984375,-0.08991311490535736,-0.07933183759450912,-0.2180287390947342
1789799507709769700,2.728769775390625,0.06703042984008789,0.04760560020804405,-0.07291895151138306
1789799507719741700,2.73874169921875,0.24557994306087494,0.4401765763759613,0.13615411520004272
1789799507729712600,2.748712646484375,0.30689334869384766,0.5897615551948547,0.25503015518188477
1789799507739683600,2.75868359375,0.3672243356704712,0.7166960835456848,0.33692875504493713
1789799507749655800,2.76865576171875,0.4406713843345642,0.9894623160362244,0.40323108434677124
1789799507759626800,2.778626708984375,0.7177495956420898,1.5262011289596558,-0.08152282238006592
1789799507769597700,2.78859765625,1.1597049236297607,1.7224880456924438,0.12231659144163132
1789799507779569700,2.798569580078125,0.7035523056983948,2.0786077976226807,0.30595991015434265
1789799507789540900,2.808540771484375,0.32869160175323486,1.93384850025177,0.7043091654777527
1789799507799511600,2.818511474609375,0.2776643633842468,1.535749912261963,0.8149573802947998
1789799507809483800,2.82848388671875,0.3659590780735016,0.9453920722007751,0.6571701765060425
1789799507819454700,2.838454833984375,0.680977463722229,0.8342447876930237,0.6679993867874146
1789799507829425700,2.84842578125,0.8803257346153259,1.115227460861206,0.7710740566253662
1789799507839397600,2.858397705078125,0.9605156183242798,1.2149313688278198,0.6192440986633301
1789799507849368600,2.86836865234375,1.151690125465393,1.1535335779190063,-0.03971225768327713
1789799507859339800,2.87833984375,0.8356016874313354,1.002036690711975,-0.24269840121269226
1789799507869311500,2.8883115234375,0.6089856028556824,0.5587927103042603,-0.21265873312950134
1789799507879282700,2.89828271484375,1.2371501922607422,0.12225054204463959,-0.29642394185066223
1789799507889254700,2.908254638671875,1.4072524309158325,0.26319462060928345,-0.8025020360946655
1789799507899225600,2.9182255859375,1.0510247945785522,1.5693765878677368,-1.7291412353515625
1789799507909196500,2.928196533203125,0.9216398596763611,1.7143332958221436,-1.14360773563385
1789799507919168800,2.938168701171875,1.4691897630691528,0.9871515035629272,-0.7083688974380493
1789799507929139700,2.9481396484375,1.8799099922180176,0.6369389295578003,-0.4923740029335022
1789799507939110700,2.958110595703125,1.8926284313201904,0.5778894424438477,-0.37260234355926514
1789799507949082600,2.96808251953125,1.7271376848220825,0.38511067628860474,-0.3569139242172241
1789799507959053800,2.9780537109375,1.659185528755188,0.5569165349006653,-0.24429842829704285
1789799507969024800,2.988024658203125,1.6915600299835205,0.6536358594894409,-0.15577282011508942
1789799507978996700,2.997996826171875,1.7025152444839478,0.5673174858093262,-0.230258509516716
1789799507988967700,3.0079677734375,1.697731375694275,0.3938903212547302,-0.42620110511779785
1789799507998938600,3.017938720703125,1.8374799489974976,0.014857509173452854,-0.6317116618156433
1789799508008910600,3.02791064453125,1.9878697395324707,-0.051112186163663864,-0.647497296333313
1789799508018881500,3.037881591796875,2.044635772705078,0.23853161931037903,-0.5210826396942139
1789799508028852700,3.047852783203125,2.0051424503326416,0.5123711228370667,-0.3803976774215698
1789799508038824400,3.057824462890625,1.877731204032898,0.426859974861145,-0.4007314443588257
1789799508048795600,3.067795654296875,1.7488347291946411,0.08153693377971649,-0.531982958316803
1789799508058766600,3.0777666015625,1.5917048454284668,-0.0346786193549633,-0.5580779314041138
1789799508068738800,3.08773876953125,1.3738877773284912,0.17316725850105286,-0.4840971827507019
1789799508078709500,3.09770947265625,1.2201666831970215,0.26771318912506104,-0.44712531566619873
1789799508088680700,3.1076806640625,1.109473466873169,0.16446511447429657,-0.3947718143463135
1789799508098652700,3.117652587890625,1.0120161771774292,-0.10567396134138107,-0.3334810435771942
1789799508108623600,3.12762353515625,0.8893767595291138,-0.1615297794342041,-0.28330227732658386
1789799508118594600,3.137594482421875,0.7828665375709534,-0.18057270348072052,-0.3141888380050659
1789799508128566800,3.14756689453125,0.8255708813667297,-0.17809464037418365,-0.29140469431877136
1789799508138537700,3.157537841796875,0.942105770111084,-0.2545904815196991,-0.19508160650730133
1789799508148508700,3.1675087890625,1.0278337001800537,-0.4095188081264496,-0.06519445031881332
1789799508158480600,3.177480712890625,1.0598118305206299,-0.5257021188735962,0.032770462334156036
1789799508168451600,3.18745166015625,0.9843035340309143,-0.6050456762313843,0.06950424611568451
1789799508178422800,3.1974228515625,0.8349582552909851,-0.5858967900276184,0.13409362733364105
1789799508188394500,3.20739453125,0.6444490551948547,-0.5170766711235046,0.21133141219615936
1789799508198365700,3.21736572265625,0.4543464779853821,-0.4053514897823334,0.26494431495666504
1789799508208336600,3.227336669921875,0.3346216678619385,-0.29723140597343445,0.2827930748462677
1789799508218308600,3.23730859375,0.24762177467346191,-0.34519094228744507,0.253028005361557
1789799508228279600,3.247279541015625,0.1012219563126564,-0.6260252594947815,0.19375349581241608
1789799508238251800,3.257251708984375,-0.07745537906885147,-0.8553453087806702,0.16238917410373688
1789799508248222500,3.267222412109375,-0.2743796408176422,-0.8290660381317139,0.17570337653160095
1789799508258193700,3.277193603515625,-0.4644395709037781,-0.6092042326927185,0.17752738296985626
1789799508268165600,3.28716552734375,-0.6248308420181274,-0.36973464488983154,0.1427140086889267
1789799508278136800,3.29713671875,-0.7680487036705017,-0.19083254039287567,0.1252191662788391
1789799508288107500,3.307107421875,-0.9001036882400513,-0.0274454727768898,0.1398915946483612
1789799508298079700,3.317079833984375,-0.9602847695350647,0.10239694267511368,0.170395165681839
1789799508308050700,3.32705078125,-0.8991228342056274,-0.12234615534543991,0.19799163937568665
1789799508318022000,3.33702197265625,-0.7814446687698364,-0.5574776530265808,0.28721287846565247
1789799508327993600,3.34699365234375,-0.6949263215065002,-0.6790695786476135,0.44806593656539917
1789799508337964800,3.35696484375,-0.6167974472045898,-0.42366018891334534,0.5886635184288025
1789799508347935700,3.366935791015625,-0.5889623165130615,-0.30659589171409607,0.5868533849716187
1789799508357907700,3.37690771484375,-0.6025015711784363,-0.4192412197589874,0.49658340215682983
1789799508367878700,3.386878662109375,-0.6594839096069336,-0.569858968257904,0.39359045028686523
1789799508377849600,3.396849609375,-0.6854845881462097,-0.7091196179389954,0.275522917509079
1789799508387821600,3.406821533203125,-0.7497871518135071,-0.6535442471504211,0.1456964761018753
1789799508397792500,3.41679248046875,-0.8107187151908875,-0.6111765503883362,0.017641844227910042
1789799508407763700,3.426763671875,-0.864403247833252,-0.581822395324707,-0.03334570676088333
1789799508417735700,3.436735595703125,-0.9359319806098938,-0.5288851261138916,-0.007119162008166313
1789799508427706600,3.44670654296875,-1.0243699550628662,-0.4167002737522125,0.05567631125450134
1789799508437677600,3.456677490234375,-1.0784374475479126,-0.2966175675392151,0.1096615195274353
1789799508447649800,3.46664990234375,-1.079965353012085,-0.2996021509170532,0.13702043890953064
1789799508457620700,3.476620849609375,-1.1148655414581299,-0.4166126549243927,0.14125272631645203
1789799508467591700,3.486591796875,-1.195332646369934,-0.4778062403202057,0.11978206038475037
1789799508477563600,3.496563720703125,-1.2970877885818481,-0.3881879448890686,0.08751626312732697
1789799508487534800,3.506534912109375,-1.3427863121032715,-0.19109351933002472,0.04927753284573555
1789799508497506600,3.516506591796875,-1.2892237901687622,-0.13214312493801117,-0.03927496820688248
1789799508507477500,3.5264775390625,-1.187334656715393,-0.28169798851013184,-0.1781311184167862
1789799508517448400,3.536448486328125,-1.1518765687942505,-0.35868412256240845,-0.26043692231178284
1789799508527420400,3.54642041015625,-1.2071433067321777,-0.32456183433532715,-0.26934972405433655
1789799508537391400,3.556391357421875,-1.309046745300293,-0.266103059053421,-0.2647690773010254
1789799508547362600,3.566362548828125,-1.3685840368270874,-0.19067087769508362,-0.291321337223053
1789799508557334500,3.57633447265625,-1.4051977396011353,0.1396593600511551,-0.3207750916481018
1789799508567305500,3.586305419921875,-1.3744779825210571,0.5543974041938782,-0.3469078838825226
1789799508577276400,3.5962763671875,-1.3262728452682495,0.5989675521850586,-0.3660466969013214
1789799508587248600,3.60624853515625,-1.362256646156311,0.38785478472709656,-0.290390282869339
1789799508597219600,3.616219482421875,-1.4271408319473267,0.148350328207016,-0.16018088161945343
1789799508607190300,3.626190185546875,-1.4662328958511353,0.062491875141859055,-0.14200827479362488
1789799508617162500,3.63616259765625,-1.4640192985534668,-0.006638728082180023,-0.2115681767463684
1789799508627133700,3.6461337890625,-1.4497833251953125,-0.11619052290916443,-0.26237863302230835
1789799508637104400,3.6561044921875,-1.4566212892532349,-0.27370399236679077,-0.2939288318157196
1789799508647076600,3.66607666015625,-1.5011085271835327,-0.2894541919231415,-0.3550145626068115
1789799508657047600,3.676047607421875,-1.5465831756591797,-0.23057807981967926,-0.45505326986312866
1789799508667018500,3.6860185546875,-1.570088505744934,-0.11192387342453003,-0.48602157831192017
1789799508676990500,3.695990478515625,-1.5424599647521973,-0.10412240773439407,-0.45593929290771484
1789799508686961400,3.70596142578125,-1.455206036567688,-0.1335252970457077,-0.43924206495285034
1789799508696932600,3.7159326171875,-1.3794535398483276,-0.08655379712581635,-0.48818671703338623
1789799508706904300,3.725904296875,-1.3383132219314575,-0.08588375151157379,-0.5075665712356567
1789799508716875500,3.73587548828125,-1.3814258575439453,-0.30110976099967957,-0.44997408986091614
1789799508726846500,3.745846435546875,-1.3216954469680786,-0.642264723777771,-0.4212026298046112
1789799508736818400,3.755818359375,-1.2101731300354004,-0.6863157749176025,-0.44988274574279785
1789799508746789400,3.765789306640625,-1.0808444023132324,-0.5567910671234131,-0.4534417986869812
1789799508756761600,3.77576171875,-1.0036895275115967,-0.704656183719635,-0.38241153955459595
1789799508766732500,3.785732666015625,-0.8844022154808044,-0.801276445388794,-0.3081591725349426
1789799508776703500,3.795703369140625,-0.7374948263168335,-0.7289953231811523,-0.29710811376571655
1789799508786675500,3.805675537109375,-0.6228411793708801,-0.5465184450149536,-0.1832105666399002
1789799508796646700,3.815646728515625,-0.5463749170303345,-0.2111029177904129,0.00018109494703821838
1789799508806617600,3.82561767578125,-0.4861203730106354,0.13992434740066528,0.16223391890525818
1789799508816589600,3.835589599609375,-0.44866353273391724,0.40719786286354065,0.23770684003829956
1789799508826560500,3.845560546875,-0.4426615834236145,0.3895038068294525,0.16703559458255768
1789799508836531500,3.855531494140625,-0.32030877470970154,0.2343757450580597,0.03863926976919174
1789799508846503400,3.86550341796875,-0.17011767625808716,0.13543319702148438,-0.05144135281443596
1789799508856474400,3.875474365234375,-0.030255373567342758,-0.10057134926319122,-0.05889048054814339
1789799508866445600,3.885445556640625,0.10847827047109604,-0.24622441828250885,-0.015184013172984123
1789799508876417300,3.895417236328125,0.1964384913444519,-0.23895666003227234,0.07742235064506531
1789799508886388500,3.905388427734375,0.18483082950115204,-0.15280525386333466,0.16546113789081573
1789799508896359400,3.915359375,0.15380367636680603,-0.15652276575565338,0.25934475660324097
1789799508906331600,3.92533154296875,0.16697406768798828,-0.045341916382312775,0.30489784479141235
1789799508916302300,3.93530224609375,0.2763402462005615,0.10138095170259476,0.28140291571617126
1789799508926273500,3.9452734375,0.45258691906929016,0.18944290280342102,0.24944284558296204
1789799508936245500,3.95524560546875,0.5933988690376282,0.11487891525030136,0.24481001496315002
1789799508946216700,3.965216796875,0.6823673844337463,0.23854465782642365,0.25037044286727905
1789799508956187400,3.9751875,0.8686932921409607,0.44819241762161255,0.23637951910495758
1789799508966159600,3.98515966796875,1.0405199527740479,0.5215082168579102,0.28876441717147827
1789799508976130600,3.995130615234375,1.171953797340393,0.45087558031082153,0.3405916690826416
1789799508986102500,4.0051025390625,1.2817027568817139,0.39990559220314026,0.3667774796485901
1789799508996073500,4.015073486328125,1.395124077796936,0.5229116678237915,0.3752892017364502
1789799509006044400,4.02504443359375,1.523262858390808,0.6554039120674133,0.33632636070251465
1789799509016016400,4.035016357421875,1.6375889778137207,0.5792719125747681,0.25111398100852966
1789799509025987300,4.0449873046875,1.7696635723114014,0.49107491970062256,0.1723451316356659
1789799509035958500,4.05495849609375,1.9623656272888184,0.6947572231292725,0.17750607430934906
1789799509045930500,4.064930419921875,2.114694833755493,1.0184077024459839,0.22629837691783905
1789799509055901400,4.0749013671875,2.0297439098358154,0.9487742781639099,0.15553446114063263
1789799509065872400,4.084872314453125,1.8862274885177612,0.6160328388214111,0.08178248256444931
1789799509075844600,4.0948447265625,1.8040423393249512,0.41278356313705444,0.11397610604763031
1789799509085815600,4.104815673828125,1.8988945484161377,0.30137795209884644,0.05981619656085968
1789799509095786500,4.114786376953125,1.9767451286315918,0.2907077372074127,0.022977221757173538
1789799509105758500,4.124758544921875,1.9836970567703247,0.32810065150260925,-0.03713831305503845
1789799509115729700,4.134729736328125,1.913441777229309,0.35708436369895935,-0.11933837831020355
1789799509125700400,4.144700439453125,1.8376727104187012,0.45723065733909607,-0.17676278948783875
1789799509135672600,4.154672607421875,1.8392032384872437,0.4478265047073364,-0.2479775846004486
1789799509145643500,4.1646435546875,1.8557859659194946,0.28652817010879517,-0.28965097665786743
1789799509155615500,4.174615478515625,1.7195940017700195,0.2623874247074127,-0.24766598641872406
1789799509165586400,4.18458642578125,1.5536447763442993,0.5978969931602478,-0.20057757198810577
1789799509175557400,4.194557373046875,1.5332788228988647,1.0288147926330566,-0.165593221783638
1789799509185529300,4.204529296875,1.6541913747787476,1.1997476816177368,-0.12051576375961304
1789799509195500300,4.214500244140625,1.8070399761199951,1.0110299587249756,-0.1293121874332428
1789799509205471500,4.224471435546875,1.8996860980987549,0.6149899363517761,-0.17512574791908264
1789799509215443500,4.234443359375,1.8264318704605103,0.2795749306678772,-0.17329534888267517
1789799509225414400,4.244414306640625,1.6557247638702393,0.12237944453954697,-0.1310373842716217
1789799509235385300,4.25438525390625,1.500185251235962,-0.1140781044960022,-0.09156746417284012
1789799509245357600,4.264357666015625,1.3704744577407837,-0.23983603715896606,-0.10667558014392853
1789799509255328500,4.27432861328125,1.344223141670227,-0.16547630727291107,-0.14228923618793488
1789799509265299500,4.284299560546875,1.2990670204162598,-0.1823738068342209,-0.1279744803905487
1789799509275271400,4.294271484375,1.1666557788848877,-0.36920973658561707,-0.01930711790919304
1789799509285242600,4.30424267578125,1.0848243236541748,-0.5023869872093201,0.041135452687740326
1789799509295213600,4.314213623046875,1.0026023387908936,-0.5395982265472412,-0.02184830792248249
1789799509305185500,4.324185546875,0.9765675663948059,-0.5075702667236328,-0.13226482272148132
1789799509315156500,4.334156494140625,0.8975214958190918,-0.5919687747955322,-0.23368066549301147
1789799509325127700,4.344127685546875,0.8008037209510803,-0.7471762299537659,-0.23038767278194427
1789799509335099400,4.354099365234375,0.7389638423919678,-0.5996701121330261,-0.08659694343805313
1789799509345070600,4.364070556640625,0.5729631185531616,-0.06707730144262314,0.07927777618169785
1789799509355041500,4.37404150390625,0.31512174010276794,0.21335861086845398,0.16252313554286957
1789799509365013500,4.384013427734375,0.14459845423698425,0.15651370584964752,0.1620568186044693
1789799509374984400,4.393984375,0.028010329231619835,-0.12749724090099335,0.13856826722621918
1789799509384956700,4.403956787109375,-0.09250570088624954,-0.24282675981521606,0.1039556935429573
1789799509394927600,4.413927734375,-0.18522365391254425,-0.06073392182588577,0.06267722696065903
1789799509404898300,4.423898193359375,-0.26329928636550903,0.0738728940486908,-0.030420223250985146
1789799509414870500,4.43387060546875,-0.33746564388275146,0.11096060276031494,-0.1299838274717331
1789799509424841500,4.443841552734375,-0.38223445415496826,0.03232438489794731,-0.16109567880630493
1789799509434812700,4.453812744140625,-0.3869301378726959,0.04403749853372574,-0.06042659282684326
1789799509444784400,4.463784423828125,-0.3966538608074188,0.28576356172561646,0.09343567490577698
1789799509454755600,4.473755615234375,-0.4139162302017212,0.6127132177352905,0.23284630477428436
1789799509464726500,4.4837265625,-0.41809284687042236,0.5265205502510071,0.32213065028190613
1789799509474698500,4.493698486328125,-0.42280876636505127,-0.03898068889975548,0.36050066351890564
1789799509484669400,4.50366943359375,-0.49147653579711914,-0.6342214345932007,0.3779456913471222
1789799509494640600,4.513640625,-0.565159261226654,-0.7785290479660034,0.40362364053726196
1789799509504612400,4.5236123046875,-0.7000121474266052,-0.41994428634643555,0.4076079726219177
1789799509514582800,4.533582763671875,-0.838402509689331,-0.04030720889568329,0.3303733766078949
1789799509524554000,4.543553955078125,-1.02325439453125,-0.033840253949165344,0.19845743477344513
1789799509534526000,4.55352587890625,-1.1352269649505615,-0.13463424146175385,0.13315938413143158
1789799509544497000,4.563496826171875,-1.1965014934539795,-0.15047898888587952,0.16804279386997223
1789799509554467800,4.5734677734375,-1.2125025987625122,-0.16646353900432587,0.19121895730495453
1789799509564440000,4.583440185546875,-1.1305997371673584,-0.44762304425239563,0.1330222338438034
1789799509574411000,4.593410888671875,-1.006353735923767,-0.8365785479545593,0.06624506413936615
1789799509584383000,4.603383056640625,-0.9148977994918823,-0.967661440372467,0.039575107395648956
1789799509594354000,4.61335400390625,-0.8897437453269958,-0.8498024344444275,0.015900403261184692
1789799509604325000,4.6233251953125,-0.8798083066940308,-0.5845603942871094,-0.03206392750144005
1789799509614296800,4.633296875,-0.8791084289550781,-0.1737488955259323,-0.003695402294397354
1789799509624268000,4.64326806640625,-0.9287018179893494,0.16851204633712769,0.02912326343357563
1789799509634239000,4.653239013671875,-1.0338436365127563,0.30398306250572205,-0.03093155100941658
1789799509644211000,4.6632109375,-1.0371052026748657,0.17156723141670227,-0.15299807488918304
1789799509654182000,4.673181884765625,-0.9899805784225464,-0.06648208945989609,-0.20234937965869904
1789799509664153000,4.683153076171875,-0.9727280735969543,-0.20445699989795685,-0.1791047751903534
1789799509674125000,4.693125,-1.0420973300933838,-0.2517496943473816,-0.15278182923793793
1789799509684096000,4.703095947265625,-1.1519724130630493,-0.2646809220314026,-0.2007456123828888
1789799509694067000,4.71306689453125,-1.2981057167053223,-0.24480415880680084,-0.266103595495224
1789799509704039200,4.7230390625,-1.4251562356948853,-0.1467399150133133,-0.2872634530067444
1789799509714010000,4.733010009765625,-1.485225796699524,-0.15793131291866302,-0.2567518949508667
1789799509723980800,4.742980712890625,-1.526561975479126,-0.34888049960136414,-0.2126009464263916
1789799509733953000,4.752953125,-1.6378624439239502,-0.5400464534759521,-0.18704499304294586
1789799509743924000,4.762924072265625,-1.7543504238128662,-0.439492404460907,-0.19630533456802368
1789799509753895200,4.772895263671875,-1.7435861825942993,-0.3180839717388153,-0.24318362772464752
1789799509763867000,4.782866943359375,-1.6748603582382202,-0.3148849606513977,-0.27771151065826416
1789799509773838000,4.792838134765625,-1.6488343477249146,-0.3287251591682434,-0.27077797055244446
1789799509783809800,4.802809814453125,-1.6468098163604736,-0.28096190094947815,-0.21434184908866882
1789799509793781000,4.812781005859375,-1.5694029331207275,-0.18747828900814056,-0.19380995631217957
1789799509803752000,4.822751953125,-1.4999521970748901,-0.056647565215826035,-0.23140978813171387
1789799509813724200,4.83272412109375,-1.4504650831222534,-0.04529903829097748,-0.2875787913799286
1789799509823694800,4.84269482421875,-1.4378308057785034,-0.21717439591884613,-0.27804839611053467
1789799509833666000,4.852666015625,-1.473058819770813,-0.4275446832180023,-0.21711048483848572
1789799509843638000,4.862637939453125,-1.550930142402649,-0.47900068759918213,-0.18799680471420288
1789799509853609000,4.87260888671875,-1.60433828830719,-0.4448259174823761,-0.17417339980602264
1789799509863580000,4.882579833984375,-1.661354660987854,-0.33427944779396057,-0.1375434845685959
1789799509873552100,4.89255224609375,-1.649006962776184,-0.1690971404314041,-0.09907758235931396
1789799509883523000,4.902523193359375,-1.5333431959152222,-0.10750462114810944,-0.041241180151700974
1789799509893494000,4.912493896484375,-1.4411120414733887,-0.09154029935598373,0.07772435247898102
1789799509903466000,4.922466064453125,-1.3588374853134155,-0.16589869558811188,0.1614602655172348
1789799509913437000,4.93243701171875,-1.2532141208648682,-0.41699615120887756,0.17342931032180786
1789799509923408100,4.942408203125,-1.1235239505767822,-0.5984024405479431,0.17080077528953552
1789799509933379800,4.9523798828125,-0.9488270282745361,-0.6673825979232788,0.1812874972820282
1789799509943351000,4.96235107421875,-0.7515115737915039,-0.6778466701507568,0.21503667533397675
1789799509953322000,4.972322021484375,-0.6143063306808472,-0.6439473032951355,0.18602445721626282
1789799509963294000,4.9822939453125,-0.5046205520629883,-0.5309528112411499,0.1922440081834793
1789799509973265000,4.992264892578125,-0.34888502955436707,-0.22261816263198853,0.27489280700683594
1789799509983237000,5.002237060546875,-0.2053299844264984,0.09720857441425323,0.35515597462654114
1789799509993207800,5.012207763671875,-0.20266017317771912,0.12080977112054825,0.38101819157600403
1789799510003179000,5.022178955078125,-0.20145082473754883,0.12117861956357956,0.321847528219223
1789799510013151000,5.03215087890625,-0.10265713930130005,0.25812476873397827,0.2345840036869049
1789799510023122200,5.0421220703125,0.0011201255256310105,0.46313783526420593,0.18352589011192322
1789799510033092900,5.0520927734375,0.023126358166337013,0.4728679358959198,0.2528815269470215
1789799510043065000,5.062065185546875,0.08691758662462234,0.3921147882938385,0.3715554475784302
1789799510053036000,5.0720361328125,0.23999741673469543,0.48515045642852783,0.3895070254802704
1789799510063007000,5.082007080078125,0.40857285261154175,0.7929263710975647,0.37062838673591614
1789799510072979000,5.09197900390625,0.5934409499168396,1.0484305620193481,0.39854446053504944
1789799510082950000,5.101949951171875,0.7578200697898865,1.1003142595291138,0.42948052287101746
1789799510092921000,5.111921142578125,0.9353905916213989,1.1240973472595215,0.38796159625053406
1789799510102892800,5.121892822265625,1.1521329879760742,1.2420775890350342,0.2840229272842407
1789799510112864000,5.131864013671875,1.3305519819259644,1.1745715141296387,0.16319771111011505
1789799510122835000,5.1418349609375,1.4440628290176392,0.968786358833313,0.0729953795671463
1789799510132807000,5.151806884765625,1.4984227418899536,0.7751346230506897,0.04793902859091759
1789799510142777900,5.16177783203125,1.5132379531860352,0.5272326469421387,0.0860683023929596
1789799510152749000,5.1717490234375,1.487768292427063,0.1828467845916748,0.10031116008758545
1789799510162721000,5.181720947265625,1.4817713499069214,-0.07259883731603622,0.08758657425642014
1789799510172692000,5.19169189453125,1.5762972831726074,0.007465373259037733,0.057917892932891846
1789799510182664000,5.201663818359375,1.7539368867874146,0.2522980272769928,0.03894659876823425
1789799510192635100,5.21163525390625,1.910534381866455,0.45843735337257385,0.003379285102710128
1789799510202606000,5.221606201171875,1.971400499343872,0.47896045446395874,-0.07085366547107697
1789799510212578000,5.231578125,2.0212066173553467,0.43333038687705994,-0.14124074578285217
1789799510222549000,5.241549072265625,2.17817759513855,0.6433826684951782,-0.17513640224933624
1789799510232520200,5.251520263671875,2.375030994415283,0.9439667463302612,-0.18758533895015717
1789799510242492000,5.261491943359375,2.4599664211273193,1.1139960289001465,-0.2011520117521286
1789799510252463000,5.271463134765625,2.386340379714966,0.9445270895957947,-0.29088377952575684
1789799510262434000,5.28143408203125,2.3943965435028076,0.6764460802078247,-0.31321170926094055
1789799510272406000,5.291406005859375,2.4230289459228516,0.566957414150238,-0.2216583639383316
1789799510282377000,5.301376953125,2.3634397983551025,0.49007755517959595,-0.18054766952991486
1789799510292348000,5.311347900390625,2.216632843017578,0.4635002911090851,-0.23663544654846191
1789799510302320000,5.321320068359375,2.030088186264038,0.42783787846565247,-0.3374747037887573
1789799510312290800,5.331290771484375,1.8537920713424683,0.3575051426887512,-0.39060717821121216
1789799510322262000,5.341261962890625,1.7067607641220093,0.3549162745475769,-0.3659460246562958
1789799510332234000,5.35123388671875,1.5711978673934937,0.44605496525764465,-0.34324443340301514
1789799510342205000,5.361204833984375,1.444947361946106,0.4986889064311981,-0.3498251140117645
1789799510352175900,5.37117578125,1.298087239265442,0.46883058547973633,-0.2946625351905823
1789799510362148000,5.381148193359375,1.1747006177902222,0.4069075882434845,-0.25794127583503723
1789799510372119000,5.391119140625,1.0872434377670288,0.4324755072593689,-0.2947400212287903
1789799510382091000,5.401091064453125,1.065018653869629,0.40291228890419006,-0.32309389114379883
1789799510392062000,5.41106201171875,1.0417598485946655,0.12345908582210541,-0.2652641534805298
1789799510402033200,5.421033203125,0.9967074990272522,-0.22783049941062927,-0.19751787185668945
1789799510412004900,5.4310048828125,0.9700902700424194,-0.40348196029663086,-0.24542413651943207
1789799510421976000,5.44097607421875,0.871799886226654,-0.39174699783325195,-0.3111909031867981
1789799510431947000,5.450947021484375,0.7443194389343262,-0.47065192461013794,-0.3276844024658203
1789799510441919000,5.4609189453125,0.6009481549263,-0.5622574687004089,-0.22397318482398987
1789799510451890000,5.470889892578125,0.45990023016929626,-0.5115154981613159,-0.059424709528684616
1789799510461860900,5.48086083984375,0.35761138796806335,-0.4279888868331909,0.026335999369621277
1789799510471833000,5.4908330078125,0.29492831230163574,-0.3418790400028229,0.04953106865286827
1789799510481803800,5.5008037109375,0.24886414408683777,-0.16825079917907715,0.08690054714679718
1789799510491775000,5.51077490234375,0.19492848217487335,-0.08378197997808456,0.12443859875202179
1789799510501747000,5.520746826171875,0.14153103530406952,-0.13514956831932068,0.13705798983573914
1789799510511718400,5.530718505859375,0.06435421854257584,-0.1820419728755951,0.13816292583942413
1789799510521689600,5.540689697265625,-0.016702014952898026,-0.1250428706407547,0.15284360945224762
1789799510531661600,5.55066162109375,-0.1106404960155487,0.08982229977846146,0.20608551800251007
1789799510541632800,5.5606328125,-0.20591454207897186,-0.04481833800673485,0.20544210076332092
1789799510551603500,5.570603515625,-0.2791197896003723,-0.1069919615983963,0.24545316398143768
1789799510561575700,5.58057568359375,-0.3080182671546936,-0.20818622410297394,0.2977962791919708
1789799510571546600,5.590546630859375,-0.33429035544395447,-0.5287642478942871,0.30410024523735046
1789799510581518600,5.6005185546875,-0.37152722477912903,-0.9429031014442444,0.285454660654068
1789799510591489500,5.610489501953125,-0.4618816077709198,-1.0317634344100952,0.299096941947937
1789799510601460700,5.620460693359375,-0.6131861805915833,-0.7610214352607727,0.3189915716648102
1789799510611432400,5.630432373046875,-0.7886562943458557,-0.3645297586917877,0.3094513416290283
1789799510621403600,5.640403564453125,-1.017643928527832,-0.13063177466392517,0.26656004786491394
1789799510631374600,5.65037451171875,-1.2330292463302612,-0.001799764228053391,0.2340732216835022
1789799510641346800,5.660346923828125,-1.355454444885254,0.05991926044225693,0.21917469799518585
1789799510651317500,5.6703173828125,-1.4182994365692139,0.05264483392238617,0.17754575610160828
1789799510661288400,5.680288330078125,-1.5252866744995117,0.01792733557522297,0.12291739881038666
1789799510671260700,5.6902607421875,-1.5725516080856323,-0.23948848247528076,0.06495236605405807
1789799510681231600,5.700231689453125,-1.5648795366287231,-0.43919894099235535,0.040769267827272415
1789799510691202600,5.71020263671875,-1.5223177671432495,-0.38693174719810486,0.04439462721347809
1789799510701174500,5.720174560546875,-1.4325287342071533,-0.32331228256225586,0.023605193942785263
1789799510711145700,5.730145751953125,-1.3219609260559082,-0.3456745743751526,0.0007038734620437026
1789799510721116400,5.740116455078125,-1.2320449352264404,-0.5652122497558594,-0.002034122357144952
1789799510731088600,5.750088623046875,-1.2812910079956055,-0.7468768358230591,-0.04150190204381943
1789799510741059600,5.7600595703125,-1.3351166248321533,-0.7177248597145081,-0.12747646868228912
1789799510751030800,5.77003076171875,-1.3276329040527344,-0.5631805062294006,-0.27361050248146057
1789799510761002500,5.78000244140625,-1.323182225227356,-0.38315457105636597,-0.41815251111984253
1789799510770973700,5.7899736328125,-1.3403409719467163,-0.07207339257001877,-0.46726173162460327
1789799510780944600,5.799944580078125,-1.3643693923950195,0.11101626604795456,-0.4202156662940979
1789799510790916600,5.80991650390625,-1.4050906896591187,-0.008100003935396671,-0.36494147777557373
1789799510800887600,5.819887451171875,-1.3913029432296753,0.018158763647079468,-0.3128244876861572
1789799510810858800,5.829858642578125,-1.3961126804351807,0.2459290772676468,-0.2866986095905304
1789799510820830500,5.83983056640625,-1.3774572610855103,0.2139274626970291,-0.28294089436531067
1789799510830801700,5.8498017578125,-1.4041748046875,-0.14508821070194244,-0.19474925100803375
1789799510840772600,5.859772705078125,-1.5180140733718872,-0.38185974955558777,-0.11159736663103104
1789799510850744800,5.869744873046875,-1.635796070098877,-0.3530387580394745,-0.11874262988567352
1789799510860715500,5.879715576171875,-1.6325536966323853,-0.2619919180870056,-0.20175495743751526
1789799510870687700,5.889687744140625,-1.5852396488189697,-0.2645839750766754,-0.2961408495903015
1789799510880658700,5.89965869140625,-1.6008658409118652,-0.3028663992881775,-0.3486194908618927
1789799510890629600,5.909629638671875,-1.6350853443145752,-0.37575045228004456,-0.38198092579841614
1789799510900601600,5.9196015625,-1.6828043460845947,-0.3314264118671417,-0.4029266834259033
1789799510910572500,5.929572509765625,-1.678376317024231,-0.16458654403686523,-0.38894349336624146
1789799510920543700,5.939543701171875,-1.5785887241363525,-0.001660480978898704,-0.3275136947631836
1789799510930515500,5.949515380859375,-1.4822996854782104,-0.09708420187234879,-0.2900483310222626
1789799510940486700,5.959486572265625,-1.4454668760299683,-0.46488699316978455,-0.3196331262588501
1789799510950457600,5.96945751953125,-1.5078247785568237,-0.7250695824623108,-0.330622136592865
1789799510960429600,5.9794296875,-1.5558727979660034,-0.9006856083869934,-0.29561859369277954
1789799510970400500,5.989400390625,-1.5119415521621704,-1.058380126953125,-0.23778966069221497
1789799510980371700,5.999371826171875,-1.4587645530700684,-1.0411492586135864,-0.17473265528678894
1789799510990343700,6.00934375,-1.4030195474624634,-0.9598733186721802,-0.10754616558551788
1789799511000314600,6.019314697265625,-1.3338357210159302,-0.876133918762207,-0.036257874220609665
1789799511010285600,6.02928564453125,-1.2358031272888184,-0.562853217124939,0.03590340539813042
1789799511020257800,6.0392578125,-0.9473649263381958,-0.10568488389253616,0.017773937433958054
1789799511030228700,6.049228759765625,-0.7047041058540344,0.16113322973251343,0.028203409165143967
1789799511040199400,6.059199462890625,-0.508820652961731,0.20844881236553192,0.19255639612674713
1789799511050171600,6.069171630859375,-0.29997846484184265,0.32581672072410583,0.2730506956577301
1789799511060142600,6.079142578125,-0.04472432658076286,0.5219177603721619,0.21014870703220367
1789799511070113500,6.089113525390625,0.13008369505405426,0.6040262579917908,0.16899514198303223
1789799511080085500,6.09908544921875,0.20520614087581635,0.7478896379470825,0.21840797364711761
1789799511090056700,6.109056640625,0.2513941526412964,0.7497709393501282,0.25479286909103394
1789799511100027600,6.119027587890625,0.3267557621002197,0.6639119386672974,0.24187548458576202
1789799511109999600,6.12899951171875,0.43762367963790894,0.8112167119979858,0.2254807949066162
1789799511119970600,6.138970458984375,0.6255192756652832,0.9843032956123352,0.19308103621006012
1789799511129942500,6.148942626953125,0.7957274913787842,1.1199679374694824,0.19154706597328186
1789799511139913500,6.15891357421875,0.9464157819747925,1.1244169473648071,0.21761301159858704
1789799511149884700,6.168884765625,1.1178109645843506,1.0878968238830566,0.20891273021697998
1789799511159856600,6.178856689453125,1.2797772884368896,0.9434130787849426,0.11076992005109787
1789799511169827600,6.18882763671875,1.4421418905258179,0.7932978868484497,-0.040399886667728424
1789799511179798500,6.198798583984375,1.573035478591919,0.6167084574699402,-0.1377650499343872
1789799511189770800,6.208770751953125,1.6322649717330933,0.3914354145526886,-0.14217472076416016
1789799511199741700,6.21874169921875,1.6744664907455444,0.2625599801540375,-0.10612137615680695
1789799511209712400,6.22871240234375,1.7664488554000854,0.26409557461738586,-0.08701479434967041
1789799511219684600,6.2386845703125,1.87173593044281,0.2658732235431671,-0.0940210372209549
1789799511229655600,6.248655517578125,1.9384653568267822,0.17796599864959717,-0.11856313049793243
1789799511239626800,6.258626708984375,1.9569445848464966,-0.005595034919679165,-0.18877311050891876
1789799511249598500,6.268598388671875,2.021609306335449,-0.043908603489398956,-0.20147931575775146
1789799511259569700,6.278569580078125,2.2473607063293457,0.38873204588890076,-0.12677578628063202
1789799511269540600,6.28854052734375,2.5162880420684814,0.911703884601593,-0.05855651944875717
1789799511279512600,6.2985126953125,2.6318111419677734,1.1401211023330688,-0.05046477168798447
1789799511289483500,6.3084833984375,2.5304887294769287,1.0090535879135132,-0.1102500781416893
1789799511299454700,6.318454833984375,2.373826026916504,0.8307304978370667,-0.18379352986812592
1789799511309426400,6.328426513671875,2.3581128120422363,0.9130618572235107,-0.1871296763420105
1789799511319397600,6.338397705078125,2.4009177684783936,1.0824156999588013,-0.17699208855628967
1789799511329368600,6.34836865234375,2.290081024169922,1.0923693180084229,-0.25980040431022644
1789799511339340800,6.3583408203125,2.099764823913574,0.8106111288070679,-0.331264466047287
1789799511349311500,6.3683115234375,2.0303218364715576,0.4572508931159973,-0.31262582540512085
1789799511359282700,6.37828271484375,2.0615897178649902,0.281869500875473,-0.30392953753471375
1789799511369254700,6.388254638671875,2.002546548843384,0.2176300585269928,-0.3727586567401886
1789799511379225900,6.398225830078125,1.7591701745986938,0.1318429857492447,-0.44551143050193787
1789799511389197600,6.408197509765625,1.4705318212509155,-0.09441012889146805,-0.4796728491783142
1789799511399168800,6.418168701171875,1.2579537630081177,-0.2775605022907257,-0.44884783029556274
1789799511409139700,6.4281396484375,1.1138191223144531,-0.3115136921405792,-0.4265851378440857
1789799511419111700,6.438111572265625,0.98432457447052,-0.3175659775733948,-0.44444215297698975
1789799511429082600,6.44808251953125,0.9061642289161682,-0.2708410918712616,-0.4092700779438019
1789799511439053600,6.458053466796875,0.8603360652923584,-0.2157117873430252,-0.33080482482910156
1789799511449025500,6.468025634765625,0.8498176336288452,-0.20778168737888336,-0.2931296229362488
1789799511458996500,6.47799658203125,0.8681297898292542,-0.17080263793468475,-0.311042845249176
1789799511468967700,6.4879677734375,0.8590201735496521,-0.09023988246917725,-0.27739620208740234
1789799511478939600,6.497939697265625,0.8219955563545227,-0.04277382791042328,-0.193014457821846
1789799511488910600,6.50791064453125,0.7832226157188416,0.016628511250019073,-0.08149619400501251
1789799511498881500,6.517881591796875,0.6866854429244995,-0.1519881933927536,-0.012014584615826607
1789799511508853000,6.52785302734375,0.5563790798187256,-0.37256425619125366,0.038664039224386215
1789799511518824000,6.537823974609375,0.4203416109085083,-0.4693821370601654,0.09861419349908829
1789799511528795000,6.547794921875,0.29396769404411316,-0.5055934190750122,0.15171442925930023
1789799511538766800,6.557766845703125,0.1497785747051239,-0.589891791343689,0.17034883797168732
1789799511548738000,6.567738037109375,0.005781190004199743,-0.7012052536010742,0.17332997918128967
1789799511558709000,6.577708984375,-0.0992078110575676,-0.7968369722366333,0.20737981796264648
1789799511568681000,6.587680908203125,-0.20261356234550476,-0.5685023069381714,0.30406561493873596
1789799511578652000,6.59765185546875,-0.2817358076572418,-0.14071983098983765,0.4016267955303192
1789799511588622800,6.607622802734375,-0.3502485454082489,0.11825314164161682,0.44737884402275085
1789799511598594800,6.6175947265625,-0.4238719046115875,0.10377006977796555,0.4523371160030365
1789799511608565800,6.627565673828125,-0.519964337348938,0.022846193984150887,0.45048487186431885
1789799511618537000,6.637536865234375,-0.6185221076011658,0.008538893423974514,0.44034862518310547
1789799511628509000,6.647509033203125,-0.739025890827179,-0.04886554181575775,0.4309615194797516
1789799511638480000,6.65747998046875,-0.8524818420410156,-0.08353564143180847,0.4412250816822052
1789799511648450800,6.667450927734375,-0.9172787070274353,-0.1265808492898941,0.43921491503715515
1789799511658423000,6.677423095703125,-0.9781891703605652,-0.10649528354406357,0.41268476843833923
1789799511668393700,6.687393798828125,-1.0146899223327637,-0.2624702453613281,0.31495821475982666
1789799511678365000,6.697364990234375,-1.0649685859680176,-0.5000308752059937,0.1842939406633377
1789799511688337000,6.7073369140625,-1.1520171165466309,-0.6037119626998901,0.09370864927768707
1789799511698308000,6.71730810546875,-1.2879343032836914,-0.47060081362724304,0.0678432285785675
1789799511708278800,6.72727880859375,-1.4288493394851685,-0.20536167919635773,0.06054403632879257
1789799511718251000,6.7372509765625,-1.5454176664352417,0.014552044682204723,0.019298862665891647
1789799511728222000,6.747221923828125,-1.6592707633972168,0.25775110721588135,-0.0943845584988594
1789799511738194000,6.75719384765625,-1.7221431732177734,0.4167966842651367,-0.2567865252494812
1789799511748164900,6.767164794921875,-1.7872135639190674,0.5328980088233948,-0.3432982265949249
1789799511758135800,6.7771357421875,-1.8659390211105347,0.44832584261894226,-0.2799360454082489
1789799511768107800,6.787107666015625,-2.001018762588501,0.24037611484527588,-0.1102394238114357
1789799511778078700,6.79707861328125,-2.146918773651123,-0.021403824910521507,0.018248245120048523
1789799511788050000,6.8070498046875,-2.1978635787963867,-0.3105602562427521,0.03628610074520111
1789799511798022000,6.81702197265625,-2.186314344406128,-0.5516756772994995,-0.00424214918166399
1789799511807992800,6.826992919921875,-2.2448716163635254,-0.6246052980422974,-0.0900137796998024
1789799511817963800,6.8369638671875,-2.3504674434661865,-0.5590430498123169,-0.18598371744155884
1789799511827936000,6.84693603515625,-2.448173761367798,-0.5222498774528503,-0.2370346486568451
1789799511837907000,6.856906982421875,-2.484372138977051,-0.6914359927177429,-0.233679860830307
1789799511847878000,6.8668779296875,-2.5460965633392334,-0.7481203079223633,-0.2108379304409027
1789799511857849900,6.876849853515625,-2.5643272399902344,-0.6920660734176636,-0.22310897707939148
1789799511867821000,6.886821044921875,-2.479161024093628,-0.83907550573349,-0.23888182640075684
1789799511877792000,6.8967919921875,-2.4039807319641113,-1.1174017190933228,-0.18202465772628784
1789799511887764000,6.906763916015625,-2.3432419300079346,-1.3180674314498901,-0.17255818843841553
1789799511897735000,6.91673486328125,-2.243374824523926,-1.3936713933944702,-0.23233124613761902
1789799511907706000,6.9267060546875,-2.0990941524505615,-1.2983306646347046,-0.26181164383888245
1789799511917677800,6.936677734375,-1.9023257493972778,-1.1707671880722046,-0.25195688009262085
1789799511927649000,6.94664892578125,-1.6870243549346924,-0.9694049954414368,-0.17595557868480682
1789799511937620000,6.956619873046875,-1.4658517837524414,-0.6819695234298706,-0.09380905330181122
1789799511947592000,6.966592041015625,-1.2748639583587646,-0.15601995587348938,0.056472063064575195
1789799511957563000,6.97656298828125,-1.0709763765335083,0.3153214752674103,0.3088401257991791
1789799511967533800,6.986533935546875,-0.8746989965438843,0.43820929527282715,0.48319754004478455
1789799511977506000,6.996506103515625,-0.7098442912101746,0.14229881763458252,0.408031702041626
1789799511987476700,7.006476806640625,-0.5762742161750793,-0.3522704243659973,0.30610692501068115
1789799511997448000,7.016447998046875,-0.457794189453125,-0.6426112055778503,0.29419007897377014
1789799512007420000,7.026419921875,-0.323378324508667,-0.7223007082939148,0.30477747321128845
1789799512017390800,7.036390869140625,-0.19663237035274506,-0.7507991790771484,0.34014666080474854
1789799512027361800,7.04636181640625,-0.056049954146146774,-0.6784493327140808,0.39809516072273254
1789799512037334000,7.056333984375,0.045889727771282196,-0.6319750547409058,0.41101497411727905
1789799512047305000,7.066304931640625,0.20127105712890625,-0.28260481357574463,0.29898831248283386
1789799512057276000,7.07627587890625,0.47195422649383545,0.4154890775680542,0.1291436105966568
1789799512067247900,7.086247802734375,0.5926209688186646,0.6956453919410706,0.062014900147914886
1789799512077219000,7.096218994140625,0.6086705327033997,0.9201511740684509,0.14878201484680176
1789799512087190000,7.10618994140625,0.7207413911819458,1.1168359518051147,0.11928005516529083
1789799512097162000,7.116161865234375,0.9193271994590759,1.2039633989334106,0.06374116241931915
1789799512107133000,7.1261328125,1.1126511096954346,1.337449312210083,0.10575971752405167
1789799512117103900,7.136103759765625,1.1232507228851318,1.2164334058761597,0.15632808208465576
1789799512127075800,7.146075927734375,1.035346269607544,0.8120076656341553,0.14664536714553833
1789799512137046800,7.156046875,0.9784538745880127,0.701299250125885,0.08627070486545563
1789799512147018000,7.16601806640625,1.090797781944275,0.9247725605964661,0.07226167619228363
1789799512156989700,7.17598974609375,1.30596923828125,1.2871235609054565,0.10916882753372192
1789799512166961000,7.1859609375,1.4889565706253052,1.4695138931274414,0.048764608800411224
1789799512176931800,7.195931884765625,1.6237343549728394,1.3918486833572388,-0.03954048454761505
1789799512186904000,7.205904052734375,1.7021993398666382,1.0558080673217773,-0.07318020612001419
1789799512196874800,7.215874755859375,1.8458654880523682,0.9539099335670471,-0.08415935188531876
1789799512206847000,7.225846923828125,2.0653932094573975,1.2438080310821533,-0.06564026325941086
1789799512216818000,7.23581787109375,2.279775857925415,1.4094364643096924,-0.09335178136825562
1789799512226789000,7.2457890625,2.3078670501708984,1.2669527530670166,-0.2031259536743164
1789799512236760800,7.2557607421875,2.1435046195983887,0.954285204410553,-0.333465039730072
1789799512246732000,7.26573193359375,2.0904767513275146,0.8762742877006531,-0.38463929295539856
1789799512256703000,7.275702880859375,2.2165706157684326,0.9091680645942688,-0.39358165860176086
1789799512266675000,7.285675048828125,2.387888193130493,0.7390961647033691,-0.4220729470252991
1789799512276646000,7.29564599609375,2.4521827697753906,0.5243990421295166,-0.44776979088783264
1789799512286616800,7.305616943359375,2.2268643379211426,0.4190928637981415,-0.46957069635391235
1789799512296588800,7.3155888671875,2.0457096099853516,0.4540921449661255,-0.46519431471824646
1789799512306559700,7.325559814453125,2.027329444885254,0.4886634349822998,-0.43137750029563904
1789799512316531000,7.335531005859375,2.0689306259155273,0.3781965672969818,-0.3817462921142578
1789799512326503000,7.3455029296875,2.023453950881958,0.11187140643596649,-0.40057456493377686
1789799512336473900,7.355473876953125,1.9701544046401978,-0.08381793648004532,-0.49283525347709656
1789799512346444800,7.36544482421875,1.8819067478179932,-0.12495844811201096,-0.5721098780632019
1789799512356417000,7.3754169921875,1.7705456018447876,-0.2700927257537842,-0.524372935295105
1789799512366388000,7.385387939453125,1.6775357723236084,-0.6786485314369202,-0.303352952003479
1789799512376359000,7.39535888671875,1.553673505783081,-0.8044149875640869,-0.12026169896125793
1789799512386331000,7.405330810546875,1.4176392555236816,-0.5876238346099854,-0.06699208170175552
1789799512396302000,7.415302001953125,1.276641607284546,-0.2699766159057617,-0.024942900985479355
1789799512406272800,7.425272705078125,1.1743278503417969,0.03700701892375946,0.11473031342029572
1789799512416245000,7.435244873046875,1.0658679008483887,0.23070432245731354,0.3114452362060547
1789799512426216000,7.4452158203125,0.9637979865074158,0.33353856205940247,0.39801955223083496
1789799512436187000,7.455186767578125,0.9574117064476013,0.15837499499320984,0.3147597908973694
1789799512446158800,7.465158935546875,0.9799511432647705,-0.3608551323413849,0.20688501000404358
1789799512456129800,7.4751298828125,0.8639797568321228,-0.8631888031959534,0.2743473947048187
1789799512466101000,7.48510107421875,0.6552289724349976,-0.9046989679336548,0.4442445635795593
1789799512476072700,7.49507275390625,0.40966367721557617,-0.6106066107749939,0.5140558481216431
1789799512486044000,7.5050439453125,0.18720105290412903,-0.36136671900749207,0.42135363817214966
1789799512496014800,7.515014892578125,-0.065882608294487,-0.15491235256195068,0.2664703130722046
1789799512505986800,7.52498681640625,-0.26054608821868896,-0.4648566246032715,0.09095946699380875
1789799512515959300,7.534959228515625,-0.39370736479759216,-0.9339489936828613,0.09434621036052704
1789799512525930200,7.54493017578125,-0.49749207496643066,-0.8612015843391418,0.2198633849620819
1789799512535902200,7.554902099609375,-0.545585572719574,-0.3952732980251312,0.29356610774993896
1789799512545873200,7.564873046875,-0.5922622680664062,0.1855323165655136,0.3200584352016449
1789799512555844000,7.574843994140625,-0.6910759210586548,0.1737707257270813,0.2674388885498047
1789799512565816000,7.584816162109375,-0.7601956129074097,-0.11360059678554535,0.2154790312051773
1789799512575787000,7.594787109375,-0.7991179823875427,-0.20253100991249084,0.1967594027519226
1789799512585758200,7.60475830078125,-0.8023832440376282,-0.03743339329957962,0.22904729843139648
1789799512595730200,7.614730224609375,-0.7693989276885986,0.046899065375328064,0.16772109270095825
1789799512605701000,7.624701171875,-0.7735468149185181,0.0848909243941307,-0.03422694653272629
1789799512615672000,7.634672119140625,-0.8221284747123718,0.12324230372905731,-0.2625674307346344
1789799512625644300,7.644644287109375,-0.989338219165802,0.12355522811412811,-0.31675025820732117
1789799512635615200,7.654615234375,-1.1988738775253296,0.12800456583499908,-0.1851608008146286
1789799512645586200,7.664586181640625,-1.4675847291946411,0.3504682779312134,-0.06021593511104584
1789799512655558100,7.67455810546875,-1.5296251773834229,0.7234650254249573,-0.05459320545196533
1789799512665529300,7.684529296875,-1.4054206609725952,0.9859941005706787,-0.2112099826335907
1789799512675500000,7.6945,-1.3053902387619019,0.6285629868507385,-0.48155996203422546
1789799512685472300,7.70447216796875,-1.2967309951782227,-0.007814513519406319,-0.6165052652359009
1789799512695443200,7.714443115234375,-1.4234728813171387,-0.478118896484375,-0.48981738090515137
1789799512705414100,7.7244140625,-1.7293697595596313,-0.5252885222434998,-0.38760843873023987
1789799512715386000,7.73438623046875,-1.7489911317825317,0.0356658510863781,-0.4095534384250641
1789799512725357000,7.744357177734375,-1.5602283477783203,0.41944679617881775,-0.5603504180908203
1789799512735328300,7.754328369140625,-1.5901817083358765,0.21064405143260956,-0.7650111317634583
1789799512745300000,7.764300048828125,-1.6927211284637451,-0.08575751632452011,-0.7808060646057129
1789799512755271200,7.774271240234375,-1.793978214263916,-0.407512903213501,-0.6177937388420105
1789799512765242000,7.7842421875,-1.9728516340255737,-0.5687015056610107,-0.40677493810653687
1789799512775214000,7.794214111328125,-2.1971521377563477,-0.5659307837486267,-0.25491032004356384
1789799512785185000,7.80418505859375,-2.336771249771118,-0.304955393075943,-0.15508092939853668
1789799512795156200,7.81415625,-2.2285892963409424,-0.20293261110782623,-0.12459758669137955
1789799512805128200,7.824128173828125,-2.0416030883789062,-0.32847535610198975,-0.13616050779819489
1789799512815099100,7.83409912109375,-1.951675534248352,-0.4583233594894409,-0.14399711787700653
1789799512825070000,7.844070068359375,-1.9193916320800781,-0.5198706388473511,-0.08022026717662811
1789799512835042300,7.854042236328125,-2.0166516304016113,-0.4419339895248413,0.030833812430500984
1789799512845013200,7.86401318359375,-2.114964485168457,-0.44058963656425476,0.0353742353618145
1789799512854984000,7.87398388671875,-2.0945210456848145,-0.5313647985458374,-0.0920359194278717
1789799512864956200,7.8839560546875,-1.9200496673583984,-0.718268096446991,-0.273165225982666
1789799512874927000,7.893927001953125,-1.7688233852386475,-1.0311030149459839,-0.43759864568710327
1789799512884898300,7.903898193359375,-1.7315902709960938,-1.324453353881836,-0.5148777365684509
1789799512894870000,7.9138701171875,-1.8038886785507202,-1.5535030364990234,-0.4853736162185669
1789799512904841200,7.92384130859375,-1.8111602067947388,-1.6641563177108765,-0.3710710108280182
1789799512914812200,7.933812255859375,-1.7533283233642578,-1.4452240467071533,-0.2719380259513855
1789799512924784000,7.9437841796875,-1.6003097295761108,-1.0362730026245117,-0.2538474500179291
1789799512934755000,7.953755126953125,-1.345065951347351,-0.6643654704093933,-0.20678380131721497
1789799512944726300,7.963726318359375,-1.0459706783294678,-0.24158386886119843,-0.01589294709265232
1789799512954698000,7.973697998046875,-0.7897412180900574,0.37909752130508423,0.28985604643821716
1789799512964669200,7.983669189453125,-0.5965749621391296,0.917084813117981,0.5485158562660217
1789799512974640000,7.99364013671875,-0.5182138681411743,0.997553825378418,0.5503816604614258
1789799512984612400,8.0036123046875,-0.25246313214302063,0.8600846529006958,0.3235916495323181
1789799512994583000,8.0135830078125,-0.06406792998313904,0.5397681593894958,0.0883178785443306
1789799513004554200,8.02355419921875,0.024153539910912514,0.04647189378738403,-0.05173749476671219
1789799513014526200,8.033526123046874,0.1592157483100891,-0.20602773129940033,-0.0863889530301094
1789799513024497200,8.0434970703125,0.37774062156677246,-0.14941371977329254,-0.02327762544155121
1789799513034468000,8.053468017578124,0.591834306716919,-0.0866459459066391,0.1334294229745865
1789799513044440300,8.0634404296875,0.7496180534362793,-0.1311657428741455,0.22085994482040405
1789799513054411300,8.073411376953125,0.8643222451210022,-0.20627275109291077,0.13782177865505219
1789799513064382000,8.0833818359375,0.9626259207725525,-0.2829299569129944,-0.06686718016862869
1789799513074354200,8.093354248046875,1.1266710758209229,-0.12572357058525085,-0.21453599631786346
1789799513084325000,8.1033251953125,1.3526911735534668,0.13172714412212372,-0.25566133856773376
1789799513094296300,8.11329638671875,1.5725513696670532,0.420775443315506,-0.19155211746692657
1789799513104268000,8.12326806640625,1.7884799242019653,0.7205685377120972,-0.11593565344810486
1789799513114239200,8.1332392578125,1.9477214813232422,0.7302398085594177,-0.05432102829217911
1789799513124210200,8.143210205078125,1.9418513774871826,0.6124868392944336,-0.0027268105186522007
1789799513134181400,8.153181396484374,1.93354332447052,0.5599229335784912,0.04921548441052437
1789799513144153000,8.163153076171875,2.0515100955963135,0.8265421390533447,0.12336427718400955
1789799513154124300,8.173124267578125,2.1857476234436035,1.25922429561615,0.1401059776544571
1789799513164095200,8.18309521484375,2.165572166442871,1.4536441564559937,0.11032357811927795
1789799513174067200,8.193067138671875,2.1465518474578857,1.5148634910583496,0.11117472499608994
1789799513184038100,8.2030380859375,2.1772031784057617,1.3697960376739502,0.20242980122566223
1789799513194009000,8.213009033203125,2.3533823490142822,1.0328755378723145,0.2924443781375885
1789799513203981000,8.22298095703125,2.4961044788360596,0.8689561486244202,0.181509867310524
1789799513213952000,8.232951904296876,2.485600233078003,0.7512673735618591,-0.05325230211019516
1789799513223923200,8.242923095703125,2.4351561069488525,0.58428555727005,-0.1876274198293686
1789799513233895200,8.252895263671874,2.418133497238159,0.383597731590271,-0.12417254596948624
1789799513243866000,8.2628662109375,2.427769660949707,0.2585386037826538,0.027588218450546265
1789799513253837000,8.272837158203124,2.323824644088745,0.004858138505369425,0.14702646434307098
1789799513263809300,8.282809326171876,2.131288766860962,-0.38677701354026794,0.19980072975158691
1789799513273780200,8.2927802734375,2.0145318508148193,-0.6122021675109863,0.13864096999168396
1789799513283751200,8.302751220703126,2.0162887573242188,-0.5586739182472229,-0.02622707560658455
1789799513293723100,8.31272314453125,2.039278030395508,-0.5061041712760925,-0.12625087797641754
1789799513303694300,8.3226943359375,1.976041555404663,-0.5738723278045654,-0.07904741168022156
1789799513313665000,8.3326650390625,1.7922760248184204,-0.6335713267326355,0.07638638466596603
1789799513323637200,8.34263720703125,1.595157265663147,-0.8215609788894653,0.23361435532569885
1789799513333608200,8.352608154296876,1.4134680032730103,-1.0676599740982056,0.3247389495372772
1789799513343579100,8.3625791015625,1.2249411344528198,-1.0643045902252197,0.40527746081352234
1789799513353551000,8.372551025390624,1.0539132356643677,-0.8660693168640137,0.42708662152290344
1789799513363522000,8.38252197265625,0.9604219198226929,-0.6316943764686584,0.37385293841362
1789799513373493200,8.3924931640625,0.9017588496208191,-0.363722562789917,0.29283052682876587
1789799513383465000,8.40246484375,0.7912153005599976,0.063696950674057,0.33439770340919495
1789799513393436200,8.412436279296875,0.5424214601516724,0.3428519070148468,0.4720058739185333
1789799513403407000,8.422406982421874,0.356176495552063,0.41617751121520996,0.47242507338523865
1789799513413379000,8.432379150390625,0.24108478426933289,0.4102479815483093,0.3132098317146301
1789799513423350000,8.44235009765625,0.05541186034679413,0.19307811558246613,0.1614040732383728
1789799513433321200,8.4523212890625,-0.12282365560531616,0.0578976534307003,0.2216722071170807
1789799513443293200,8.462293212890625,-0.26251018047332764,-0.30794477462768555,0.351802259683609
1789799513453264100,8.47226416015625,-0.412477046251297,-0.797454297542572,0.38638898730278015
1789799513463235000,8.482235107421875,-0.46083179116249084,-1.3115122318267822,0.3215077221393585
1789799513473207300,8.492207275390625,-0.5439797043800354,-1.1454650163650513,0.299282044172287
1789799513483178200,8.50217822265625,-0.7291194200515747,-0.26332351565361023,0.32385608553886414
1789799513493149000,8.51214892578125,-0.8733567595481873,0.7490130066871643,0.3874262869358063
1789799513503121200,8.52212109375,-0.9336733818054199,0.9622523188591003,0.3710086941719055
1789799513513092000,8.532092041015625,-0.9277518391609192,0.5116710066795349,0.3149086833000183
1789799513523063000,8.54206298828125,-0.8868992328643799,-0.060315538197755814,0.3013230860233307
1789799513533035000,8.552034912109375,-0.8716164231300354,-0.39023298025131226,0.2545960545539856
1789799513543006000,8.562005859375,-0.9434711337089539,-0.17775695025920868,0.12015809863805771
1789799513552977200,8.57197705078125,-0.98716139793396,0.32645881175994873,-0.02816931903362274
1789799513562948900,8.581948974609375,-0.9116796851158142,0.4954691231250763,-0.13668940961360931
1789799513572920000,8.591920166015624,-0.9072055816650391,0.20182447135448456,-0.2281884253025055
1789799513582891000,8.60189111328125,-0.9939833283424377,-0.20125214755535126,-0.26202601194381714
1789799513592862000,8.611862060546875,-1.096325397491455,-0.13116228580474854,-0.197029709815979
1789799513602834000,8.621833984375,-1.1687535047531128,0.14348313212394714,-0.16593037545681
1789799513612804900,8.631804931640625,-1.212270975112915,0.08400595188140869,-0.2378050982952118
1789799513622776000,8.641776123046874,-1.3290382623672485,0.051125235855579376,-0.4232436716556549
1789799513632747800,8.651747802734375,-1.463492512702942,0.15291763842105865,-0.6354970932006836
1789799513642719000,8.661718994140625,-1.5764166116714478,0.24501001834869385,-0.6973764300346375
1789799513652690000,8.67168994140625,-1.6238222122192383,0.12184041738510132,-0.5759298801422119
1789799513662662100,8.681662109375,-1.6272633075714111,-0.0011952266795560718,-0.4625018537044525
1789799513672632800,8.6916328125,-1.6380409002304077,0.05715756118297577,-0.4717606008052826
1789799513682604000,8.70160400390625,-1.6385308504104614,0.19852347671985626,-0.5705918669700623
1789799513692576000,8.711575927734375,-1.578869104385376,-0.035234153270721436,-0.649590253829956
1789799513702547200,8.721547119140626,-1.48319673538208,-0.5222248435020447,-0.6151909828186035
1789799513712518000,8.731517822265625,-1.5294424295425415,-0.7974255084991455,-0.45037516951560974
1789799513722490000,8.741489990234374,-1.7746458053588867,-0.8619741797447205,-0.29796671867370605
1789799513732461000,8.7514609375,-2.0452682971954346,-0.5652362108230591,-0.22602833807468414
1789799513742432000,8.761431884765624,-2.02630615234375,-0.11221229285001755,-0.2660415470600128
1789799513752404000,8.771404052734376,-1.8187336921691895,0.028428977355360985,-0.3970208466053009
1789799513762375000,8.781375,-1.6193169355392456,0.0596284419298172,-0.46911075711250305
1789799513772346000,8.79134619140625,-1.7011396884918213,0.039212651550769806,-0.3627592921257019
1789799513782317800,8.80131787109375,-1.8608782291412354,-0.04665059223771095,-0.16679111123085022
1789799513792289000,8.8112890625,-1.814284086227417,-0.0534384585916996,-0.013576528988778591
1789799513802260000,8.821260009765625,-1.7399230003356934,-0.3839718997478485,-0.075419120490551
1789799513812232000,8.83123193359375,-1.763481616973877,-0.8120787739753723,-0.2678314447402954
1789799513822203000,8.841202880859376,-1.6698155403137207,-1.2244950532913208,-0.36548957228660583
1789799513832174000,8.851174072265625,-1.5706623792648315,-1.4288772344589233,-0.3613949418067932
1789799513842145000,8.86114501953125,-1.4851280450820923,-1.449004054069519,-0.31634998321533203
1789799513852117000,8.871116943359375,-1.3600091934204102,-1.488282561302185,-0.26981762051582336
1789799513862088000,8.881087890625,-1.3135743141174316,-1.2918243408203125,-0.21122649312019348
1789799513872059100,8.89105908203125,-1.2461907863616943,-0.8012434244155884,-0.14053606986999512
1789799513882030800,8.90103076171875,-0.9515610337257385,-0.5503992438316345,-0.03578862547874451
1789799513892002000,8.911001953125,-0.7572349905967712,-0.5875886678695679,0.04496987164020538
1789799513901973000,8.920972900390625,-0.7365682721138,-0.8643717765808105,0.038186799734830856
1789799513911945200,8.9309453125,-0.668800950050354,-0.799486517906189,0.05108901485800743
1789799513921916000,8.940916015625,-0.6172347068786621,-0.4654926061630249,0.0871088057756424
1789799513931886800,8.950886962890625,-0.47495347261428833,-0.2048783153295517,0.09283646196126938
1789799513941859000,8.960859130859374,-0.34174853563308716,-0.18807083368301392,0.12174853682518005
1789799513951830000,8.970830078125,-0.3337468206882477,-0.2826088070869446,0.20505169034004211
1789799513961801000,8.980801025390624,-0.2543521225452423,-0.09558910876512527,0.2703942060470581
1789799513971773000,8.99077294921875,-0.008042213506996632,0.3975452184677124,0.27341315150260925
1789799513981744000,9.000744140625,0.2541726231575012,0.8415109515190125,0.2434328943490982
1789799513991715000,9.010715087890626,0.41776660084724426,0.9404838681221008,0.31696489453315735
1789799514001687000,9.02068701171875,0.5124225616455078,0.7239422798156738,0.4866447448730469
1789799514011658000,9.030657958984374,0.6048116087913513,0.8317416906356812,0.5717058181762695
1789799514021629200,9.040629150390625,0.8224336504936218,1.207818627357483,0.505096435546875
1789799514031601000,9.050600830078125,1.0370932817459106,1.3694640398025513,0.3412260413169861
1789799514041572000,9.060572021484376,1.2176933288574219,1.3016974925994873,0.24351945519447327
1789799514051543000,9.07054296875,1.2957767248153687,1.1453001499176025,0.32737359404563904
1789799514061515000,9.080514892578124,1.354269027709961,1.0028237104415894,0.4648371934890747
1789799514071486000,9.09048583984375,1.5170785188674927,0.9069347381591797,0.49860766530036926
1789799514081457000,9.100456787109374,1.7758115530014038,0.9281177520751953,0.4248215854167938
1789799514091428000,9.110427978515625,2.011305809020996,1.0807299613952637,0.306527704000473
1789799514101399800,9.12039990234375,2.1960713863372803,1.136008858680725,0.19271431863307953
1789799514111371000,9.13037109375,2.2494912147521973,1.0099753141403198,0.1354409158229828
1789799514121342000,9.140342041015625,2.287044048309326,0.7471996545791626,0.13055561482906342
1789799514131314000,9.15031396484375,2.3711161613464355,0.48790255188941956,0.12210913002490997
1789799514141284900,9.160284912109375,2.476310968399048,0.504418671131134,0.10663510113954544
1789799514151256000,9.170256103515625,2.5386998653411865,0.676710844039917,0.07785218954086304
1789799514161228000,9.18022802734375,2.4179306030273438,0.6285619139671326,-0.017537714913487434
1789799514171199000,9.190198974609375,2.19647479057312,0.40916115045547485,-0.07853955030441284
1789799514181170000,9.200169921875,2.178626775741577,0.23300741612911224,0.017247429117560387
1789799514191142100,9.21014208984375,2.318493366241455,0.16559429466724396,0.15544632077217102
1789799514201113000,9.220113037109375,2.4581661224365234,0.22662222385406494,0.20796571671962738
1789799514211083800,9.230083740234376,2.456543445587158,0.4238676428794861,0.18777096271514893
1789799514221055000,9.240054931640625,2.256849765777588,0.49529656767845154,0.11470634490251541
1789799514231027000,9.25002685546875,2.060542345046997,0.41607657074928284,0.03230973705649376
1789799514240998100,9.259998046875,1.930037021636963,0.27903056144714355,0.06077812984585762
1789799514250968800,9.26996875,1.810558557510376,0.19493965804576874,0.2098030298948288
1789799514260941000,9.279941162109376,1.686387062072754,0.22643953561782837,0.27240967750549316
1789799514270912000,9.289912109375,1.5722445249557495,0.3372483253479004,0.11217793822288513
1789799514280883200,9.29988330078125,1.440403699874878,0.16852456331253052,-0.07764606177806854
1789799514290855000,9.30985498046875,1.2469139099121094,-0.24502812325954437,-0.0032631712965667248
1789799514300826000,9.319826171875,1.0951999425888062,-0.410603791475296,0.18135035037994385
1789799514310797000,9.329797119140625,0.9985698461532593,-0.49680790305137634,0.12081243842840195
1789799514320769000,9.33976904296875,0.8276407122612,-0.6103869080543518,-0.05931978300213814
1789799514330740000,9.349739990234376,0.6499825716018677,-0.5817725658416748,-0.13842418789863586
1789799514340711000,9.3597109375,0.5285046100616455,-0.3685239553451538,-0.06742750853300095
1789799514350683000,9.369682861328124,0.43498608469963074,-0.09760325402021408,-0.020988905802369118
1789799514360653800,9.37965380859375,0.37810683250427246,0.16529680788516998,-0.018909242004156113
1789799514370625000,9.389625,0.3207077085971832,0.16303765773773193,-0.051353733986616135
1789799514380597000,9.399596923828126,0.21468380093574524,0.04722477123141289,-0.061771221458911896
1789799514390568000,9.40956787109375,0.08572395890951157,0.012916863895952702,-0.028375182300806046
1789799514400539000,9.419538818359374,-0.024982048198580742,0.06542295217514038,0.019891150295734406
1789799514410510000,9.429510009765625,-0.09859395027160645,0.14502723515033722,0.06714361906051636
1789799514420482000,9.43948193359375,-0.15605059266090393,0.1832294762134552,0.06876868009567261
1789799514430453000,9.449452880859376,-0.1974925696849823,0.18676428496837616,0.047633033245801926
1789799514440424000,9.459423828125,-0.2153053879737854,0.11799348145723343,0.051182493567466736
1789799514450396200,9.469396240234374,-0.19409038126468658,-0.09840593487024307,0.07530514150857925
1789799514460366800,9.479366943359375,-0.1903553009033203,-0.3541479706764221,0.11957007646560669
1789799514470338000,9.489338134765624,-0.2277093231678009,-0.4481849670410156,0.10963355004787445
1789799514480310000,9.49931005859375,-0.32784897089004517,-0.3729671835899353,0.07040678709745407
1789799514490281200,9.50928125,-0.4285108745098114,0.03790343925356865,0.03582058101892471
1789799514500252000,9.519251953125,-0.5426342487335205,0.23563195765018463,0.026311498135328293
1789799514510224100,9.52922412109375,-0.6940234899520874,0.19604220986366272,0.023308783769607544
1789799514520193800,9.53919384765625,-0.8854659199714661,0.3164977729320526,0.08359476178884506
1789799514530165000,9.5491650390625,-1.0064038038253784,0.47157737612724304,0.11529436707496643
1789799514540136000,9.559135986328124,-1.0442075729370117,0.24787691235542297,0.07291202247142792
1789799514550108000,9.56910791015625,-1.1132549047470093,-0.032393891364336014,0.023678697645664215
1789799514560078800,9.579078857421875,-1.2227421998977661,-0.19393911957740784,0.034206438809633255
1789799514570050000,9.589050048828126,-1.4013707637786865,-0.31485408544540405,0.050524160265922546
1789799514580021800,9.599021728515625,-1.61150062084198,-0.3564867377281189,0.028438832610845566
1789799514589993000,9.608992919921874,-1.7849410772323608,-0.24072392284870148,0.005656553898006678
1789799514599964000,9.6189638671875,-1.8165632486343384,0.129876509308815,-0.01465697307139635
1789799514609936000,9.628935791015625,-1.8761333227157593,0.35882261395454407,-0.1111086755990982
1789799514619906800,9.63890673828125,-1.8693054914474487,0.17577315866947174,-0.2038538008928299
1789799514629877800,9.648877685546875,-1.8398267030715942,-0.16842763125896454,-0.18952731788158417
1789799514639850000,9.65885009765625,-1.7961740493774414,-0.3048696219921112,-0.09954763203859329
1789799514649821000,9.668821044921875,-1.7938238382339478,-0.26265931129455566,-0.09512252360582352
1789799514659792000,9.6787919921875,-1.8145432472229004,-0.1801159679889679,-0.15546070039272308
1789799514669762800,9.6887626953125,-1.751010537147522,-0.0039017973467707634,-0.15534751117229462
1789799514679735000,9.698735107421875,-1.7988446950912476,0.043768785893917084,-0.14429005980491638
1789799514689705700,9.708705810546874,-1.8589844703674316,-0.10957895964384079,-0.18014925718307495
1789799514699677000,9.718677001953125,-1.9020988941192627,-0.37520742416381836,-0.24818743765354156
1789799514709649000,9.72864892578125,-1.9353876113891602,-0.5615842342376709,-0.23953163623809814
1789799514719620000,9.7386201171875,-1.9744231700897217,-0.5832602381706238,-0.17712178826332092
1789799514729590800,9.7485908203125,-1.9704161882400513,-0.25635242462158203,-0.10668224096298218
1789799514739563000,9.75856298828125,-1.849562168121338,0.14288631081581116,-0.10952463001012802
1789799514749534000,9.768533935546875,-1.6893796920776367,0.15161801874637604,-0.17396007478237152
1789799514759505000,9.7785048828125,-1.6080288887023926,-0.27113136649131775,-0.17877720296382904
1789799514769476900,9.788476806640626,-1.6458015441894531,-0.8202030062675476,-0.13567261397838593
1789799514779447800,9.79844775390625,-1.6657750606536865,-1.1027393341064453,-0.13484330475330353
1789799514789419000,9.8084189453125,-1.6880433559417725,-1.228489875793457,-0.1935228556394577
1789799514799390000,9.818389892578125,-1.6588889360427856,-1.385925531387329,-0.266480952501297
1789799514809362000,9.82836181640625,-1.5466454029083252,-1.6250741481781006,-0.2946785092353821
1789799514819332900,9.838332763671875,-1.4501444101333618,-1.8674887418746948,-0.20557419955730438
1789799514829304000,9.848303955078125,-1.3239860534667969,-1.8332058191299438,-0.10762500017881393
1789799514839275800,9.85827587890625,-1.1434247493743896,-1.5780518054962158,-0.1237509697675705
1789799514849247000,9.8682470703125,-0.9295494556427002,-1.2753963470458984,-0.14035896956920624
1789799514859218000,9.878218017578124,-0.7291865348815918,-1.0289276838302612,-0.125358447432518
1789799514869190000,9.88818994140625,-0.630763828754425,-0.7328305244445801,-0.06190411373972893
1789799514879160800,9.898160888671875,-0.5384701490402222,-0.3876928687095642,0.05312926322221756
1789799514889132000,9.908132080078126,-0.40043875575065613,-0.11702196300029755,0.1796587109565735
1789799514899104000,9.91810400390625,-0.2931394577026367,0.13464009761810303,0.31256961822509766
1789799514909075000,9.928074951171874,-0.23966744542121887,0.29061904549598694,0.3863280117511749
1789799514919046000,9.9380458984375,-0.21636691689491272,0.17886988818645477,0.40985143184661865
1789799514929016800,9.948016845703124,-0.12241938710212708,0.2838303744792938,0.3750585615634918
1789799514938988800,9.95798876953125,0.03465171903371811,0.558214008808136,0.3246625065803528
1789799514948959700,9.967959716796875,0.2628353536128998,0.7305650115013123,0.3036038279533386
1789799514958931000,9.977930908203126,0.45429879426956177,0.8114781975746155,0.28096669912338257
1789799514968903000,9.98790283203125,0.5705481767654419,0.8191880583763123,0.3008303940296173
1789799514978873900,9.997873779296874,0.6975333094596863,0.8846778869628906,0.2923882007598877
1789799514988844800,10.0078447265625,0.8805249333381653,0.9515836834907532,0.19785742461681366
1789799514998817000,10.017817138671875,1.0554554462432861,0.9439470767974854,0.11686670035123825
1789799515008788000,10.0277880859375,1.1969209909439087,0.7223941683769226,0.02231888845562935
1789799515018759000,10.037759033203125,1.2878689765930176,0.4505951404571533,-0.1023133248090744
1789799515028731000,10.04773095703125,1.3892542123794556,0.4292307198047638,-0.18511392176151276
1789799515038702000,10.0577021484375,1.5328651666641235,0.5199002027511597,-0.18886978924274445
1789799515048673000,10.067673095703125,1.6264585256576538,0.5388008952140808,-0.12259116023778915
1789799515058643700,10.077643798828126,1.688902735710144,0.4663296341896057,-0.08493912220001221
1789799515068616000,10.087615966796875,1.7518718242645264,0.30744728446006775,-0.11193319410085678
1789799515078587000,10.0975869140625,1.7879518270492554,0.2191387414932251,-0.16556473076343536
1789799515088558000,10.10755810546875,1.8409745693206787,0.3748718798160553,-0.1763944774866104
1789799515098529800,10.11752978515625,1.9353023767471313,0.6595941781997681,-0.12497416138648987
1789799515108501000,10.1275009765625,2.041149377822876,0.8391335606575012,-0.13985270261764526
1789799515118472000,10.137471923828125,2.123201370239258,0.9205109477043152,-0.2621714174747467
1789799515128444000,10.14744384765625,2.1952035427093506,0.8805150985717773,-0.319825142621994
1789799515138414800,10.157414794921875,2.2528305053710938,0.6917166709899902,-0.2755143940448761
1789799515148386000,10.167385986328124,2.3110270500183105,0.6039913296699524,-0.22527839243412018
1789799515158357000,10.17735693359375,2.402529239654541,0.8114963173866272,-0.21173621714115143
1789799515168329000,10.187328857421875,2.515202283859253,1.0076240301132202,-0.23605993390083313
1789799515178300000,10.1972998046875,2.5314829349517822,1.024604082107544,-0.3057931959629059
1789799515188270800,10.207270751953125,2.4028513431549072,0.6640397906303406,-0.347174733877182
1789799515198242800,10.217242919921874,2.2411704063415527,0.16525447368621826,-0.3060044050216675
1789799515208213800,10.2272138671875,2.1591086387634277,0.09076745063066483,-0.23561571538448334
1789799515218185000,10.23718505859375,2.052034854888916,0.3132583200931549,-0.23089100420475006
1789799515228157000,10.247156982421876,1.8243217468261719,0.48104599118232727,-0.23138874769210815
1789799515238127900,10.2571279296875,1.535814642906189,0.4221680164337158,-0.25742965936660767
1789799515248098800,10.267098876953124,1.3619440793991089,0.21014711260795593,-0.29546093940734863
1789799515258070000,10.277070068359375,1.286859393119812,0.17437925934791565,-0.2543182969093323
1789799515268041700,10.287041748046875,1.272886872291565,0.07562578469514847,-0.1973080039024353
1789799515278013000,10.297012939453126,1.2162659168243408,-0.15332163870334625,-0.20780353248119354
1789799515287983900,10.30698388671875,1.152604341506958,-0.48520079255104065,-0.2370101511478424
1789799515297956000,10.3169560546875,1.0901468992233276,-0.8891503810882568,-0.24169199168682098
1789799515307926800,10.3269267578125,1.0289077758789062,-1.2026947736740112,-0.11863929778337479
1789799515317897700,10.336897705078124,0.8784950971603394,-1.1375048160552979,0.1285688877105713
1789799515327869000,10.346868896484375,0.7118051648139954,-0.6506869196891785,0.28227588534355164
1789799515337841000,10.3568408203125,0.6149092316627502,-0.05501797795295715,0.3112785220146179
1789799515347811800,10.366811767578126,0.5241940021514893,0.20203033089637756,0.24673548340797424
1789799515357782800,10.37678271484375,0.4212074279785156,0.12490838021039963,0.22936075925827026
1789799515367755000,10.386755126953124,0.34160658717155457,-0.06198933348059654,0.29823383688926697
1789799515377726000,10.396725830078125,0.2063893973827362,-0.11599185317754745,0.38828781247138977
1789799515387697000,10.40669677734375,0.08149166405200958,-0.12674489617347717,0.43365371227264404
1789799515397668900,10.4166689453125,0.007428887765854597,-0.2699132263660431,0.4378460645675659
1789799515407640000,10.42664013671875,-0.037637121975421906,-0.284298300743103,0.4595335125923157
1789799515417611000,10.436611083984374,-0.01780429668724537,-0.25295448303222656,0.4536026418209076
1789799515427583000,10.4465830078125,-0.05251966789364815,-0.5736169219017029,0.3328040540218353
1789799515437554000,10.456553955078125,-0.14616626501083374,-0.7597423195838928,0.21251758933067322
1789799515447525000,10.466525146484376,-0.2660180926322937,-0.5519601106643677,0.17977163195610046
1789799515457495800,10.476495849609375,-0.4035048484802246,-0.37168779969215393,0.22184477746486664
1789799515467468000,10.486468017578124,-0.5838599801063538,0.1368934065103531,0.26697683334350586
1789799515477439000,10.49643896484375,-0.7668420672416687,0.3616258502006531,0.22985050082206726
1789799515487410000,10.506409912109374,-1.0450196266174316,0.1657112091779709,0.24277029931545258
1789799515497382000,10.5163818359375,-1.2611924409866333,-0.07377595454454422,0.2943163216114044
1789799515507352800,10.526352783203125,-1.3430308103561401,-0.20306123793125153,0.31604957580566406
1789799515517324000,10.536323974609376,-1.418671727180481,-0.1024257093667984,0.27116093039512634
1789799515527295000,10.546294921875,-1.4907515048980713,-0.0924425795674324,0.1089475229382515
1789799515537267000,10.556266845703124,-1.6362794637680054,-0.4424855411052704,-0.12401195615530014
1789799515547238000,10.56623779296875,-1.7181525230407715,-0.7628057599067688,-0.22239045798778534
1789799515557209000,10.576208984375,-1.7308192253112793,-0.5168732404708862,-0.14568157494068146
1789799515567180800,10.586180908203126,-1.7429355382919312,-0.10181371122598648,-0.11638732999563217
1789799515577152000,10.596152099609375,-1.683620810508728,0.14833088219165802,-0.18639729917049408
1789799515587123000,10.606123046875,-1.5840060710906982,0.0974770188331604,-0.21519805490970612
1789799515597095000,10.616094970703125,-1.6263765096664429,-0.1608344167470932,-0.20321597158908844
1789799515607065900,10.62606591796875,-1.7833794355392456,-0.3296529948711395,-0.21972329914569855
1789799515617037000,10.636037109375,-1.9251503944396973,0.04152427241206169,-0.2407151460647583
1789799515627008000,10.646008056640625,-1.900675654411316,0.5120419859886169,-0.28734657168388367
1789799515636980000,10.65597998046875,-1.7884730100631714,0.42586901783943176,-0.33386266231536865
1789799515646951000,10.665950927734375,-1.7550204992294312,0.013422598131000996,-0.285122275352478
1789799515656922000,10.675922119140624,-1.8099061250686646,-0.35603854060173035,-0.16132791340351105
1789799515666894000,10.68589404296875,-1.820269227027893,-0.3165294826030731,-0.09641175717115402
1789799515676865000,10.695864990234375,-1.6785342693328857,-0.029275065287947655,-0.18006271123886108
1789799515686836000,10.7058359375,-1.5018044710159302,0.09379493445158005,-0.34045425057411194
1789799515696807000,10.715806884765625,-1.4656288623809814,-0.153523251414299,-0.43931877613067627
1789799515706779000,10.72577880859375,-1.5621123313903809,-0.5006899833679199,-0.4115539789199829
1789799515716749800,10.735749755859375,-1.6421221494674683,-0.6781367063522339,-0.3438897132873535
1789799515726721000,10.745720947265625,-1.6452257633209229,-0.7485112547874451,-0.3308711349964142
1789799515736693000,10.75569287109375,-1.673498511314392,-0.809110164642334,-0.3586899936199188
1789799515746664000,10.765663818359375,-1.7004115581512451,-0.8662852644920349,-0.3864843249320984
1789799515756635000,10.775634765625,-1.7142384052276611,-1.0061858892440796,-0.37978726625442505
1789799515766606000,10.785606201171875,-1.7709933519363403,-1.0709929466247559,-0.3331958055496216
1789799515776578000,10.795578125,-1.7401909828186035,-1.000230073928833,-0.33667734265327454
1789799515786549000,10.805549072265626,-1.6212458610534668,-0.8822045922279358,-0.34738725423812866
1789799515796520000,10.81552001953125,-1.4927425384521484,-0.7325152158737183,-0.3195053040981293
1789799515806492200,10.8254921875,-1.4025849103927612,-0.6539514660835266,-0.24510003626346588
1789799515816463000,10.835463134765625,-1.323691487312317,-0.639955461025238,-0.1014174371957779
1789799515826433800,10.845433837890624,-1.1335030794143677,-0.4794986844062805,0.08389037102460861
1789799515836406000,10.855406005859376,-0.9824358820915222,-0.15900376439094543,0.23953668773174286
1789799515846377000,10.865376953125,-0.8361082077026367,-0.07368966937065125,0.26474910974502563
1789799515856348200,10.87534814453125,-0.5452068448066711,-0.07496345788240433,0.24270585179328918
1789799515866318800,10.88531884765625,-0.41801002621650696,-0.14186818897724152,0.27598416805267334
1789799515876291000,10.895291015625,-0.3836398124694824,-0.13899117708206177,0.32708466053009033
1789799515886262000,10.905261962890625,-0.3008711636066437,-0.2207571417093277,0.3332456052303314
1789799515896233000,10.91523291015625,-0.25841715931892395,-0.22404827177524567,0.36142638325691223
1789799515906205000,10.925204833984376,-0.17045269906520844,-0.16151246428489685,0.4332830011844635
1789799515916176100,10.935176025390625,-0.02804708108305931,-0.015064170584082603,0.48439544439315796
1789799515926147000,10.94514697265625,0.164356991648674,0.11478916555643082,0.415658175945282
1789799515936117800,10.95511767578125,0.3787720799446106,0.09656169265508652,0.3564872741699219
1789799515946090000,10.965090087890625,0.5466939806938171,0.11321603506803513,0.39733991026878357
1789799515956061000,10.97506103515625,0.6437757611274719,0.26196637749671936,0.41896235942840576
1789799515966032100,10.9850322265625,0.8053194284439087,0.44974690675735474,0.38526034355163574
1789799515976003800,10.99500390625,0.9368768930435181,0.6443435549736023,0.3552638292312622
1789799515985975000,11.00497509765625,1.047924280166626,0.7570607662200928,0.3288884162902832
1789799515995946000,11.014946044921874,1.1794530153274536,0.8609699010848999,0.30082693696022034
1789799516005917200,11.024917236328125,1.3382568359375,0.9829487800598145,0.28076934814453125
1789799516015889000,11.034888916015625,1.5048176050186157,1.1961287260055542,0.2562565505504608
1789799516025860000,11.044860107421876,1.7066377401351929,1.197585940361023,0.20816652476787567
1789799516035831000,11.0548310546875,1.7881879806518555,1.0808883905410767,0.15047791600227356
1789799516045803000,11.064802978515624,1.769818902015686,1.155073642730713,0.12935559451580048
1789799516055774000,11.07477392578125,1.7356622219085693,1.2870622873306274,0.18683061003684998
1789799516065745000,11.084744873046875,1.8069978952407837,1.337744116783142,0.23357440531253815
1789799516075716900,11.094716796875,1.935481309890747,1.2148139476776123,0.19105863571166992
1789799516085687800,11.104687744140625,2.0572493076324463,1.0096549987792969,0.08557508885860443
1789799516095659000,11.114658935546874,2.1825597286224365,0.6154996752738953,0.000806138850748539
1789799516105630000,11.1246298828125,2.3100266456604004,0.34738272428512573,-0.0779951959848404
1789799516115602000,11.134601806640624,2.388542652130127,0.3876883387565613,-0.12286493927240372
1789799516125572900,11.14457275390625,2.411288022994995,0.5203558206558228,-0.12579414248466492
1789799516135544000,11.1545439453125,2.3672502040863037,0.4250516891479492,-0.10135005414485931
1789799516145516000,11.16451611328125,2.2699451446533203,0.2221001833677292,-0.07379405945539474
1789799516155487000,11.174487060546875,2.2290923595428467,0.12003745883703232,-0.0487358458340168
1789799516165458000,11.1844580078125,2.227330207824707,0.1694106012582779,-0.01432381197810173
1789799516175429000,11.19442919921875,2.1995232105255127,0.30651360750198364,-0.012349343858659267
1789799516185401000,11.204401123046875,2.105292320251465,0.24561801552772522,-0.05633091554045677
1789799516195372000,11.2143720703125,1.984856128692627,0.05999596044421196,-0.09206388145685196
1789799516205343000,11.224343017578125,1.8957594633102417,-0.0032144354190677404,-0.13007491827011108
1789799516215315200,11.234315185546874,1.844552755355835,-0.0878630131483078,-0.15706577897071838
1789799516225286000,11.244285888671875,1.7798664569854736,-0.31565117835998535,-0.11197500675916672
1789799516235256800,11.2542568359375,1.6622636318206787,-0.5192711353302002,-0.009786051698029041
1789799516245228000,11.26422802734375,1.4748791456222534,-0.5307621359825134,0.07639756798744202
1789799516255200000,11.274199951171875,1.2593518495559692,-0.4212164878845215,0.08676019310951233
1789799516265171000,11.2841708984375,1.1079727411270142,-0.2632113993167877,0.017592309042811394
1789799516275142000,11.294141845703125,0.9507889747619629,-0.11254305392503738,-0.045890260487794876
1789799516285114000,11.304114013671875,0.8953731060028076,-0.19674980640411377,-0.003201119601726532
1789799516295085000,11.3140849609375,0.8817305564880371,-0.20176374912261963,0.17161676287651062
1789799516305056000,11.324055908203125,0.7893977165222168,-0.04081613942980766,0.2877098023891449
1789799516315027000,11.33402685546875,0.7159586548805237,-0.017777930945158005,0.2930838167667389
1789799516324999200,11.343999267578125,0.5783823728561401,-0.12454592436552048,0.2688559591770172
1789799516334970000,11.35397021484375,0.3767680525779724,-0.24533173441886902,0.2285655289888382
1789799516344940800,11.36394091796875,0.07573258131742477,0.03648583963513374,0.18968471884727478
1789799516354913000,11.3739130859375,-0.2516210377216339,0.24819250404834747,0.14748479425907135
1789799516364884000,11.383884033203126,-0.3991929292678833,0.26174959540367126,0.1365479975938797
1789799516374855200,11.393855224609375,-0.45222339034080505,-0.15014582872390747,0.12028646469116211
1789799516384825900,11.403825927734376,-0.516743540763855,-0.32898348569869995,0.1259177178144455
1789799516394798000,11.413798095703125,-0.5765482783317566,-0.2536274790763855,0.1320887953042984
1789799516404769000,11.42376904296875,-0.6469870209693909,-0.07803381234407425,0.11583791673183441
1789799516414740000,11.433739990234375,-0.7118093967437744,0.003965979442000389,0.10496210306882858
1789799516424712000,11.4437119140625,-0.7559704780578613,0.11840840429067612,0.10579993575811386
1789799516434683100,11.45368310546875,-0.7255175113677979,0.18569210171699524,0.09095334261655807
1789799516444654000,11.463654052734375,-0.682682991027832,0.35297322273254395,0.06878332793712616
1789799516454624800,11.473624755859374,-0.6407997012138367,0.3293648362159729,-0.024712003767490387
1789799516464597000,11.483596923828125,-0.6093586683273315,0.22162586450576782,-0.08595991879701614
1789799516474568000,11.49356787109375,-0.6383317708969116,0.1890745759010315,-0.06791460514068604
1789799516484539100,11.5035390625,-0.7363424897193909,0.23029525578022003,-0.010007626377046108
1789799516494510800,11.5135107421875,-0.8026375770568848,0.3870598375797272,0.03343731909990311
1789799516504482000,11.52348193359375,-0.8287517428398132,0.5051992535591125,0.0018634138396009803
1789799516514453800,11.533453857421875,-0.8698065280914307,0.5316343307495117,-0.12444978207349777
1789799516524425000,11.543425048828125,-0.9286136627197266,0.5470601320266724,-0.3061516582965851
1789799516534397000,11.55339697265625,-1.0189144611358643,0.5832208395004272,-0.4951364994049072
1789799516544368000,11.5633681640625,-1.1752429008483887,0.50965416431427,-0.6383224129676819
1789799516554338800,11.5733388671875,-1.342067003250122,0.052624594420194626,-0.580179750919342
1789799516564311000,11.58331103515625,-1.5176936388015747,-0.5033286809921265,-0.3726566731929779
1789799516574282000,11.593281982421875,-1.8046107292175293,-0.4552551209926605,-0.2491815984249115
1789799516584253200,11.603253173828126,-1.9174422025680542,0.21100331842899323,-0.3945465087890625
1789799516594223900,11.613223876953125,-1.7721704244613647,1.156485676765442,-0.5989058017730713
1789799516604196000,11.623196044921874,-1.7175607681274414,1.4541285037994385,-0.6287374496459961
1789799516614167000,11.6331669921875,-1.7075527906417847,0.9131081700325012,-0.4818718433380127
1789799516624138000,11.643137939453124,-1.755635380744934,0.12485325336456299,-0.2604728639125824
1789799516634109000,11.65310888671875,-1.8762544393539429,-0.31597793102264404,-0.11884276568889618
1789799516644081000,11.663080810546875,-1.9733760356903076,-0.3368379473686218,-0.0992853045463562
1789799516654052000,11.673052001953126,-1.9783015251159668,-0.22826646268367767,-0.18905220925807953
1789799516664023000,11.68302294921875,-1.9207122325897217,-0.23556512594223022,-0.32659250497817993
1789799516673995000,11.6929951171875,-1.8820937871932983,-0.44789761304855347,-0.37163427472114563
1789799516683966000,11.702966064453125,-1.875485897064209,-0.7438831925392151,-0.30304402112960815
1789799516693937200,11.712937255859375,-1.891461730003357,-1.001429796218872,-0.2223515808582306
1789799516703907800,11.722907958984376,-1.948777675628662,-1.256282091140747,-0.24007971584796906
1789799516713880000,11.732880126953125,-1.9324421882629395,-1.417914628982544,-0.31835001707077026
1789799516723851000,11.74285107421875,-1.9153685569763184,-1.4301220178604126,-0.4143947958946228
1789799516733822200,11.752822265625,-1.9263274669647217,-1.3468575477600098,-0.5405319333076477
1789799516743794000,11.7627939453125,-1.863598108291626,-1.2901420593261719,-0.6279869675636292
1789799516753765000,11.77276513671875,-1.7826001644134521,-1.2715108394622803,-0.5812804698944092
1789799516763736000,11.782736083984375,-1.6796023845672607,-1.3211809396743774,-0.4429806172847748
1789799516773707000,11.79270703125,-1.7077797651290894,-1.056219220161438,-0.3046512305736542
1789799516783679000,11.802678955078125,-1.6302980184555054,-0.7351051568984985,-0.2672080099582672
1789799516793650000,11.81264990234375,-1.4143664836883545,-0.2499919980764389,-0.1313239336013794
1789799516803621000,11.82262109375,-1.170730710029602,0.0015126754296943545,0.05772455036640167
1789799516813592000,11.832592041015625,-1.0203238725662231,0.09000419080257416,0.18942691385746002
1789799516823564000,11.84256396484375,-0.8516170978546143,0.20702402293682098,0.2751109302043915
1789799516833535000,11.852534912109375,-0.671937882900238,0.24747051298618317,0.28052592277526855
1789799516843506200,11.862506103515624,-0.5714472532272339,0.3127049207687378,0.2777133584022522
1789799516853478000,11.872477783203125,-0.4244426190853119,0.15265053510665894,0.22711384296417236
1789799516863449000,11.882448974609375,-0.2890579104423523,-0.05251993238925934,0.22226954996585846
1789799516873420000,11.892419921875,-0.15712730586528778,0.044077444821596146,0.23247851431369781
1789799516883391000,11.902390869140625,0.020478643476963043,0.22045621275901794,0.2670218348503113
1789799516893363000,11.912363037109374,0.2014303207397461,0.28985899686813354,0.26801255345344543
1789799516903334000,11.922333984375,0.29874035716056824,0.2216373234987259,0.19750162959098816
1789799516913305000,11.93230517578125,0.42455634474754333,0.34157678484916687,0.1660962998867035
1789799516923276800,11.94227685546875,0.5659342408180237,0.38464486598968506,0.15412165224552155
1789799516933248000,11.952248046875,0.6514185070991516,0.34392407536506653,0.18077270686626434
1789799516943219000,11.962218994140626,0.7358737587928772,0.35979413986206055,0.2032439261674881
1789799516953190100,11.972190185546875,0.8557825684547424,0.4256647527217865,0.23945945501327515
1789799516963161900,11.982161865234374,0.9472829103469849,0.3632993698120117,0.25002580881118774
1789799516973133000,11.992133056640625,1.0530298948287964,0.2659355401992798,0.1599332094192505
1789799516983104000,12.00210400390625,1.2475322484970093,0.24550829827785492,-0.016889767721295357
1789799516993076000,12.012075927734376,1.5077507495880127,0.5081034302711487,-0.1261076033115387
1789799517003047000,12.022046875,1.660380244255066,0.7773429155349731,-0.06830954551696777
1789799517013017900,12.032017822265624,1.6587141752243042,1.0394940376281738,0.014359232038259506
1789799517022989000,12.041989013671875,1.733148455619812,1.0939147472381592,0.007172158919274807
1789799517032960800,12.051960693359375,1.8354088068008423,0.9786693453788757,-0.027964523062109947
1789799517042932000,12.061931884765626,1.9354150295257568,0.9462509751319885,-0.03808639943599701
1789799517052903000,12.07190283203125,2.048269033432007,0.9596591591835022,-0.04812784865498543
1789799517062874000,12.0818740234375,2.124861717224121,0.8531000018119812,-0.07185927778482437
1789799517072845800,12.091845703125,2.2091357707977295,0.7709686160087585,-0.10309629142284393
1789799517082817000,12.101817138671874,2.268535614013672,0.7554618120193481,-0.11737322807312012
1789799517092788000,12.1117880859375,2.2470884323120117,0.7815227508544922,-0.12268730252981186
1789799517102760200,12.12176025390625,2.1221187114715576,0.6389243006706238,-0.11111719906330109
1789799517112731000,12.13173095703125,2.032088279724121,0.40313202142715454,-0.09696223586797714
1789799517122701800,12.141701904296875,2.1235482692718506,0.2886003851890564,-0.10468593239784241
1789799517132673000,12.151673095703124,2.296097755432129,0.37532567977905273,-0.18929162621498108
1789799517142645000,12.16164501953125,2.4083926677703857,0.6084345579147339,-0.2833816409111023
1789799517152616000,12.171615966796875,2.296827554702759,0.6588582992553711,-0.3316724896430969
1789799517162587000,12.1815869140625,1.9958873987197876,0.1851930320262909,-0.23529507219791412
1789799517172558000,12.19155810546875,1.9570279121398926,-0.48051467537879944,-0.13118144869804382
1789799517182530000,12.201530029296874,1.9797489643096924,-0.6200171709060669,-0.18476691842079163
1789799517192501000,12.2115009765625,1.924120306968689,-0.5695905089378357,-0.24472160637378693
1789799517202472000,12.221471923828124,1.8051464557647705,-0.39026308059692383,-0.28726106882095337
1789799517212444200,12.231444091796876,1.6057865619659424,-0.34156638383865356,-0.34770604968070984
1789799517222414800,12.241414794921875,1.4229016304016113,-0.38381052017211914,-0.3214067816734314
1789799517232385800,12.2513857421875,1.2506835460662842,-0.43731287121772766,-0.1499495506286621
1789799517242357000,12.26135693359375,1.0954489707946777,-0.292334645986557,0.014658837579190731
1789799517252329000,12.271328857421874,1.0472694635391235,0.12320129573345184,0.04496560990810394
1789799517262300000,12.2812998046875,1.0190130472183228,0.43549874424934387,-0.01338797714561224
1789799517272270800,12.291270751953125,0.9404476881027222,0.38747262954711914,-0.06785095483064651
1789799517282242000,12.301241943359376,0.8672751784324646,0.19471409916877747,-0.060565076768398285
1789799517292214000,12.311214111328125,0.8017030954360962,-0.022486399859189987,0.008655539713799953
1789799517302185000,12.32118505859375,0.7179277539253235,-0.10769850015640259,0.10402360558509827
1789799517312156000,12.331156005859375,0.6884742975234985,-0.03958815708756447,0.1388702690601349
1789799517322128100,12.341128173828125,0.5946242213249207,0.026866767555475235,0.034023482352495193
1789799517332099000,12.35109912109375,0.365142822265625,-0.043595679104328156,-0.16509094834327698
1789799517342070000,12.361070068359375,0.16880473494529724,-0.5531499981880188,-0.2596329152584076
1789799517352041000,12.371041015625,-0.008644887246191502,-0.9698476195335388,-0.03888614475727081
1789799517362013200,12.38101318359375,-0.18827643990516663,-0.7073398232460022,0.20470227301120758
1789799517371984100,12.390984130859374,-0.3310953676700592,-0.23685142397880554,0.19760015606880188
1789799517381954800,12.400954833984375,-0.4924760162830353,0.08384456485509872,0.12007873505353928
1789799517391926000,12.410926025390625,-0.7253335118293762,0.29305025935173035,0.1766647845506668
