time,seconds_elapsed,z,y,x
1789453531534785000,0.050784912109375,-0.16222192347049713,0.3321388065814972,-0.11602567136287689
1789453531544724000,0.060723876953125,-0.24929770827293396,0.5499656796455383,-0.053212087601423264
1789453531554664000,0.070663818359375,-0.26265478134155273,0.7525451183319092,0.01540665328502655
1789453531564603100,0.08060302734375,-0.18497757613658905,0.8102023005485535,0.08672744035720825
1789453531574543000,0.090543212890625,-0.038590800017118454,0.7049927711486816,0.14917190372943878
1789453531584482000,0.10048193359375,0.1304304450750351,0.4682798683643341,0.19914771616458893
1789453531594422000,0.110422119140625,0.28557875752449036,0.274549275636673,0.2433631271123886
1789453531604361000,0.12036083984375,0.43345901370048523,0.17918093502521515,0.26498159766197205
1789453531614301000,0.130301025390625,0.5269037485122681,0.16391544044017792,0.22341418266296387
1789453531624239900,0.140239990234375,0.5540724992752075,0.22276756167411804,0.07410512119531631
1789453531634180000,0.15018017578125,0.5169115662574768,0.33494842052459717,-0.1808781772851944
1789453531644119000,0.160119140625,0.44162559509277344,0.5225577354431152,-0.5086440443992615
1789453531654059000,0.17005908203125,0.312313437461853,0.7449181079864502,-0.8983497619628906
1789453531663998000,0.179998046875,0.16109168529510498,1.1808704137802124,-1.3774415254592896
1789453531673938000,0.18993798828125,0.10801301896572113,1.856814980506897,-1.903637409210205
1789453531683876900,0.199876953125,0.1421384960412979,2.564591884613037,-2.3466057777404785
1789453531693816800,0.20981689453125,0.16460466384887695,3.239966630935669,-2.736114740371704
1789453531703756000,0.219756103515625,0.3136085271835327,3.1619393825531006,-2.9310219287872314
1789453531713696000,0.229696044921875,0.5846919417381287,2.4317076206207275,-2.954106569290161
1789453531723635000,0.239635009765625,0.6958152651786804,1.6485257148742676,-3.0641560554504395
1789453531733575200,0.2495751953125,0.7229337096214294,0.7098240256309509,-3.3397207260131836
1789453531743514000,0.25951416015625,0.7079369425773621,-0.07253039628267288,-3.380924701690674
1789453531753454000,0.2694541015625,0.7484737038612366,-0.46329814195632935,-2.8013360500335693
1789453531763393800,0.279393798828125,0.6840577125549316,-0.398952454328537,-1.6408904790878296
1789453531773333000,0.2893330078125,0.8152782917022705,-0.7475586533546448,-0.3552235960960388
1789453531783273000,0.29927294921875,0.8913464546203613,-1.7061573266983032,0.6185569763183594
1789453531793212000,0.3092119140625,0.9164139628410339,-2.866828680038452,1.2205554246902466
1789453531803152100,0.319152099609375,0.8948008418083191,-3.8666417598724365,1.5122262239456177
1789453531813091000,0.329091064453125,0.4437771737575531,-4.151163578033447,0.9289950132369995
1789453531823031000,0.339031005859375,-0.16862602531909943,-3.654175281524658,0.08628588914871216
1789453531832970000,0.348969970703125,-0.2479781061410904,-2.4975969791412354,-0.6642341613769531
1789453531842910000,0.358909912109375,0.16118143498897552,-1.8745743036270142,-0.6292091012001038
1789453531852849000,0.368848876953125,0.5670791268348694,-1.655799388885498,-0.30644381046295166
1789453531862788900,0.378788818359375,0.9071741104125977,-1.3262379169464111,0.08445709198713303
1789453531872727800,0.388727783203125,1.0874152183532715,-0.6449097394943237,0.5162668228149414
1789453531882668000,0.39866796875,1.1233344078063965,-0.049080993980169296,0.8458388447761536
1789453531892607000,0.40860693359375,1.1755088567733765,0.4787394106388092,0.9020808339118958
1789453531902547000,0.418546875,1.3288041353225708,0.7436754703521729,0.7816534638404846
1789453531912486100,0.428486083984375,1.556288719177246,0.5094121098518372,0.5823473334312439
1789453531922426000,0.438426025390625,1.7026230096817017,0.03068467602133751,0.3983082175254822
1789453531932365000,0.448364990234375,1.6225700378417969,-0.44372257590293884,0.32433441281318665
1789453531942305300,0.45830517578125,1.2914003133773804,-0.8982972502708435,0.30459877848625183
1789453531952244200,0.468244140625,0.9393845200538635,-1.3240677118301392,0.27928808331489563
1789453531962184200,0.47818408203125,0.762345016002655,-1.6698871850967407,0.18481671810150146
1789453531972124400,0.48812451171875,0.7227907180786133,-1.7939209938049316,0.05064826458692551
1789453531982063400,0.4980634765625,0.6636810302734375,-1.5081161260604858,0.01420583389699459
1789453531992003300,0.50800341796875,0.5028961300849915,-0.950711727142334,0.10251838713884354
1789453532001942300,0.5179423828125,0.3022208511829376,-0.5261519551277161,0.20377522706985474
1789453532011882200,0.52788232421875,0.12887489795684814,-0.32420551776885986,0.33778148889541626
1789453532021821200,0.5378212890625,0.062486279755830765,-0.258891761302948,0.497020959854126
1789453532031761200,0.54776123046875,0.10673363506793976,-0.26721012592315674,0.6325929164886475
1789453532041700000,0.5577001953125,0.11720358580350876,-0.33321818709373474,0.6840270757675171
1789453532051640300,0.567640380859375,0.047624245285987854,-0.40806499123573303,0.6058214902877808
1789453532061579300,0.577579345703125,-0.031554996967315674,-0.4389107823371887,0.35857972502708435
1789453532071519200,0.587519287109375,-0.0968778133392334,-0.35772404074668884,-0.020501546561717987
1789453532081458400,0.59745849609375,-0.20567433536052704,-0.3052094578742981,-0.434594064950943
1789453532091398100,0.607398193359375,-0.34850046038627625,-0.23021163046360016,-0.743955135345459
1789453532101337000,0.617337158203125,-0.4305362105369568,0.008290686644613743,-0.8244001269340515
1789453532111277300,0.62727734375,-0.44642195105552673,0.25037816166877747,-0.7046369910240173
1789453532121217300,0.63721728515625,-0.4203914403915405,0.33159339427948,-0.47833648324012756
1789453532131156200,0.64715625,-0.36441949009895325,0.2879577577114105,-0.20806372165679932
1789453532141096400,0.657096435546875,-0.2683265209197998,0.21929426491260529,0.033310551196336746
1789453532151035400,0.667035400390625,-0.1901387870311737,0.03809678554534912,0.27291569113731384
1789453532160975000,0.67697509765625,-0.14344611763954163,-0.14921371638774872,0.4367797076702118
1789453532170914000,0.6869140625,-0.1446826159954071,-0.20215602219104767,0.5205401182174683
1789453532180854300,0.696854248046875,-0.20468735694885254,-0.060147225856781006,0.554853081703186
1789453532190793200,0.706793212890625,-0.24877093732357025,0.11652927845716476,0.5188647508621216
1789453532200733200,0.716733154296875,-0.24911661446094513,0.28367912769317627,0.42445966601371765
1789453532210672000,0.726672119140625,-0.20608019828796387,0.39293184876441956,0.2951413691043854
1789453532220612400,0.7366123046875,-0.17346659302711487,0.28466448187828064,0.22416917979717255
1789453532230551300,0.74655126953125,-0.1984739452600479,0.10612883418798447,0.2310747653245926
1789453532240491300,0.7564912109375,-0.27964362502098083,-0.13056999444961548,0.28529244661331177
1789453532250430500,0.766430419921875,-0.3558686375617981,-0.27188771963119507,0.3545610010623932
1789453532260370200,0.7763701171875,-0.4466797411441803,-0.2646055519580841,0.4533536434173584
1789453532270310100,0.78631005859375,-0.5143253803253174,-0.04340579733252525,0.5268129110336304
1789453532280249000,0.7962490234375,-0.49226829409599304,0.19284161925315857,0.5549092888832092
1789453532290189300,0.806189208984375,-0.4129047393798828,0.27674931287765503,0.5591117739677429
1789453532300128300,0.816128173828125,-0.31950634717941284,0.37067845463752747,0.5237290263175964
1789453532310068200,0.826068115234375,-0.24673335254192352,0.36686986684799194,0.5040815472602844
1789453532320007400,0.83600732421875,-0.22482378780841827,0.3254782259464264,0.4791460931301117
1789453532329947100,0.845947021484375,-0.24786120653152466,0.29862451553344727,0.43284064531326294
1789453532339886000,0.855885986328125,-0.27194762229919434,0.15738403797149658,0.3510397970676422
1789453532349826300,0.865826416015625,-0.29812464118003845,0.07658185809850693,0.23058819770812988
1789453532359765200,0.87576513671875,-0.3056134581565857,0.04071493819355965,0.13033537566661835
1789453532369705200,0.885705322265625,-0.26330140233039856,0.03490205854177475,0.05396576225757599
1789453532379645400,0.8956455078125,-0.20612147450447083,0.05408880114555359,-0.010869159363210201
1789453532389584400,0.90558447265625,-0.16024160385131836,0.084513820707798,-0.042885150760412216
1789453532399524000,0.915524169921875,-0.11212573945522308,0.0937720313668251,-0.04285478964447975
1789453532409463000,0.925463134765625,-0.06708875298500061,0.09512012451887131,-0.021587051451206207
1789453532419403300,0.9354033203125,-0.040354881435632706,0.06463439017534256,0.008386560715734959
1789453532429342200,0.94534228515625,-0.02401239238679409,0.02050873637199402,0.03508102148771286
1789453532439282200,0.9552822265625,-0.02593386173248291,-0.0160018689930439,0.05391542986035347
1789453532449221000,0.96522119140625,-0.0733778104186058,-0.06527327746152878,0.04579518362879753
1789453532459161300,0.975161376953125,-0.15559518337249756,-0.10872568190097809,0.04181642085313797
1789453532469100300,0.985100341796875,-0.24510961771011353,-0.09018582105636597,0.034926291555166245
1789453532479040300,0.995040283203125,-0.3093397319316864,-0.03546132147312164,0.013538445346057415
1789453532488980200,1.004980224609375,-0.33025941252708435,0.0038751657120883465,-0.027574369683861732
1789453532498919200,1.014919189453125,-0.3213447332382202,0.040163666009902954,-0.07413467764854431
1789453532508859100,1.024859130859375,-0.2981427311897278,0.06674361228942871,-0.10948894172906876
1789453532518798300,1.03479833984375,-0.27561771869659424,0.033239979296922684,-0.1162981167435646
1789453532528738300,1.04473828125,-0.27164801955223083,-0.007458448875695467,-0.0742310881614685
1789453532538677200,1.05467724609375,-0.28227484226226807,-0.011787683703005314,0.0034437335561960936
1789453532548617200,1.0646171875,-0.3147965669631958,0.050039466470479965,0.07772915065288544
1789453532558556400,1.074556396484375,-0.3419131338596344,0.16718366742134094,0.13966281712055206
1789453532568496000,1.08449609375,-0.3743179440498352,0.281463623046875,0.17894232273101807
1789453532578436000,1.09443603515625,-0.4140893220901489,0.3722127079963684,0.20633240044116974
1789453532588375300,1.104375244140625,-0.45819661021232605,0.4360915720462799,0.24810248613357544
1789453532598315300,1.114315185546875,-0.5185568928718567,0.4153101146221161,0.30955758690834045
1789453532608254200,1.124254150390625,-0.5846933126449585,0.36284637451171875,0.37113893032073975
1789453532618194400,1.1341943359375,-0.6228824853897095,0.28613507747650146,0.41716286540031433
1789453532628133400,1.14413330078125,-0.6230308413505554,0.2161615937948227,0.43020838499069214
1789453532638073000,1.154072998046875,-0.6018975973129272,0.20668978989124298,0.4085763096809387
1789453532648012300,1.16401220703125,-0.5721029043197632,0.22818470001220703,0.3600625693798065
1789453532657952300,1.1739521484375,-0.5283911228179932,0.2381363958120346,0.3081285357475281
1789453532667892200,1.183892333984375,-0.4649333357810974,0.21298444271087646,0.2826748490333557
1789453532677831200,1.1938310546875,-0.4401126801967621,0.14808081090450287,0.28195685148239136
1789453532687771400,1.203771484375,-0.47485971450805664,0.13495701551437378,0.31504637002944946
1789453532697710300,1.21371044921875,-0.5107485055923462,0.16851603984832764,0.3669164776802063
1789453532707650300,1.223650390625,-0.5303933024406433,0.20722801983356476,0.3983577489852905
1789453532717589200,1.23358935546875,-0.5299826264381409,0.24898238480091095,0.39759716391563416
1789453532727529200,1.243529296875,-0.5091985464096069,0.2842724621295929,0.36544081568717957
1789453532737468200,1.25346826171875,-0.4742903411388397,0.29499781131744385,0.31343966722488403
1789453532747408100,1.263408203125,-0.438178688287735,0.302232027053833,0.259453684091568
1789453532757347300,1.273347412109375,-0.39693111181259155,0.28480032086372375,0.2234104573726654
1789453532767287300,1.283287353515625,-0.3803824782371521,0.24495196342468262,0.19005994498729706
1789453532777227300,1.293227294921875,-0.3870222866535187,0.1957375407218933,0.15155011415481567
1789453532787166200,1.303166259765625,-0.3905280828475952,0.1533951461315155,0.11236914992332458
1789453532797106200,1.313106201171875,-0.36714497208595276,0.12321780622005463,0.08162561804056168
1789453532807045000,1.323045166015625,-0.3502860963344574,0.10939999669790268,0.05125386640429497
1789453532816985000,1.332985107421875,-0.3492000699043274,0.10126537084579468,0.04785647243261337
1789453532826924300,1.34292431640625,-0.3734857141971588,0.1008152961730957,0.05841617286205292
1789453532836864300,1.3528642578125,-0.41312873363494873,0.05787794664502144,0.0634641945362091
1789453532846803200,1.36280322265625,-0.43297645449638367,-0.004306064918637276,0.02816825546324253
1789453532856743400,1.372743408203125,-0.42152488231658936,-0.029606893658638,-0.05049832910299301
1789453532866683100,1.38268310546875,-0.33751732110977173,0.00458782771602273,-0.1586674153804779
1789453532876622000,1.3926220703125,-0.19599027931690216,0.09227240830659866,-0.2573540508747101
1789453532886562300,1.402562255859375,-0.07962745428085327,0.13372690975666046,-0.33047324419021606
1789453532896501200,1.412501220703125,-0.010384996421635151,0.11997514218091965,-0.33474522829055786
1789453532906441200,1.422441162109375,0.00044581317342817783,0.1337926834821701,-0.24452559649944305
1789453532916380200,1.432380126953125,0.025379393249750137,0.13581295311450958,-0.12716194987297058
1789453532926321000,1.44232080078125,-0.030352046713232994,0.07805432379245758,0.022947659716010094
1789453532936260000,1.452260009765625,-0.06175843998789787,-0.0032684975303709507,0.09658566117286682
1789453532946199800,1.46219970703125,-0.043175432831048965,-0.05965027958154678,0.05059899389743805
1789453532956139800,1.472139892578125,-0.014783740043640137,-0.01998116448521614,-0.04958326369524002
1789453532966079000,1.482078857421875,0.015897206962108612,0.009414806962013245,-0.16766995191574097
1789453532976019000,1.49201904296875,0.10626625269651413,0.08475510030984879,-0.25472337007522583
1789453532985958000,1.5019580078125,0.21768546104431152,0.170148566365242,-0.261138916015625
1789453532995898000,1.511898193359375,0.28534093499183655,0.20951060950756073,-0.1900959014892578
1789453533005837000,1.521837158203125,0.29756245017051697,0.27212658524513245,-0.10714030265808105
1789453533015776800,1.53177685546875,0.26741600036621094,0.09242819994688034,0.0026048377621918917
1789453533025715700,1.5417158203125,0.15721198916435242,-0.18357302248477936,0.12004943937063217
1789453533035656000,1.551656005859375,0.14698731899261475,-0.2952122092247009,0.04544844105839729
1789453533045596000,1.561595947265625,0.13904817402362823,-0.3668017089366913,-0.13604864478111267
1789453533055534800,1.571534912109375,0.1264309138059616,-0.36364105343818665,-0.3418111205101013
1789453533065475000,1.58147509765625,0.136623352766037,-0.3076976239681244,-0.5220298767089844
1789453533075414000,1.5914140625,0.13267283141613007,-0.3023686408996582,-0.6378238797187805
1789453533085353700,1.601353759765625,0.1313614845275879,-0.3395034968852997,-0.6655972003936768
1789453533095293000,1.61129296875,0.13304780423641205,-0.4607580304145813,-0.6301952600479126
1789453533105233000,1.62123291015625,0.14414119720458984,-0.7013551592826843,-0.5600694417953491
1789453533115172900,1.6311728515625,0.1397128850221634,-1.0352658033370972,-0.4800741970539093
1789453533125111800,1.64111181640625,0.16725210845470428,-1.253217339515686,-0.4203898310661316
1789453533135052000,1.651052001953125,0.2535422444343567,-1.3773376941680908,-0.4368116855621338
1789453533144991000,1.660990966796875,0.23516272008419037,-1.3664482831954956,-0.5108912587165833
1789453533154931000,1.670930908203125,0.14750076830387115,-1.4003801345825195,-0.7096967101097107
1789453533164870000,1.680869873046875,-0.22687043249607086,-1.4155817031860352,-0.8906883597373962
1789453533174809900,1.690809814453125,-0.3792458474636078,-1.557198166847229,-1.0186835527420044
1789453533184749800,1.700749755859375,-0.3807388246059418,-1.983596920967102,-1.1112353801727295
1789453533194688800,1.710688720703125,-0.03656626492738724,-2.3037867546081543,-1.0418161153793335
1789453533204629000,1.72062890625,0.4103182852268219,-2.579174041748047,-1.1085189580917358
1789453533214568000,1.73056787109375,0.8241711258888245,-2.3979806900024414,-1.1906055212020874
1789453533224508000,1.7405078125,1.1654655933380127,-2.206925630569458,-1.3066046237945557
1789453533234447000,1.750447021484375,1.729179859161377,-2.5409882068634033,-1.416053056716919
1789453533244386800,1.76038671875,2.2953977584838867,-2.8105392456054688,-1.2414964437484741
1789453533254325800,1.77032568359375,2.8182480335235596,-2.8517277240753174,-0.7941985726356506
1789453533264266000,1.780265869140625,3.311429500579834,-2.790353298187256,-0.2012185901403427
1789453533274206000,1.7902060546875,3.7808048725128174,-2.731729030609131,0.29713019728660583
1789453533284145000,1.800144775390625,4.211004257202148,-2.5900216102600098,0.6718676090240479
1789453533294084900,1.8100849609375,4.337754726409912,-2.424849510192871,1.1562074422836304
1789453533304024000,1.820024169921875,4.072203636169434,-2.522702693939209,1.7424423694610596
1789453533313963800,1.8299638671875,3.643380641937256,-2.633777379989624,2.159050226211548
1789453533323902700,1.83990283203125,3.1257171630859375,-2.758061647415161,2.372180700302124
1789453533333843000,1.849843017578125,3.0623209476470947,-3.1310527324676514,2.7111337184906006
1789453533343783000,1.859782958984375,3.1409082412719727,-3.914778709411621,2.851933717727661
1789453533353721900,1.869721923828125,3.4205894470214844,-4.534121036529541,2.4136226177215576
1789453533363662000,1.879662109375,4.040150165557861,-4.677695274353027,1.6153943538665771
1789453533373601000,1.88960107421875,4.813959121704102,-4.168405055999756,0.8031308054924011
1789453533383541000,1.899541015625,5.3836493492126465,-3.620742082595825,0.06972741335630417
1789453533393480000,1.90947998046875,5.570314407348633,-3.193654775619507,-0.306041419506073
1789453533403420000,1.919419921875,5.364116668701172,-2.975684881210327,-0.3780021667480469
1789453533413359900,1.92935986328125,4.887970924377441,-3.0549869537353516,-0.20178185403347015
1789453533423298800,1.939298828125,4.544125080108643,-3.1151304244995117,0.3142143785953522
1789453533433239000,1.949239013671875,4.178950786590576,-2.9662821292877197,1.027819037437439
1789453533443178000,1.959177978515625,3.696244239807129,-2.582050323486328,1.2757856845855713
1789453533453118000,1.969117919921875,3.613847494125366,-2.5891945362091064,1.6802924871444702
1789453533463057000,1.979056884765625,3.510658025741577,-2.9025025367736816,2.294010639190674
1789453533472996900,1.988996826171875,3.758164644241333,-3.5668466091156006,2.8355541229248047
1789453533482936800,1.998936767578125,3.9028286933898926,-3.7833354473114014,3.108120918273926
1789453533492875800,2.008875732421875,3.884002923965454,-3.6827118396759033,3.1689846515655518
1789453533502816000,2.01881591796875,3.904555320739746,-3.170471429824829,2.7976162433624268
1789453533512755000,2.0287548828125,3.8838999271392822,-2.53151798248291,2.1990315914154053
1789453533522695000,2.03869482421875,3.989171028137207,-0.930903971195221,1.2969733476638794
1789453533532634000,2.048634033203125,4.06128454208374,0.6454272270202637,-0.08901802450418472
1789453533542573800,2.05857373046875,3.942922830581665,1.805555820465088,-1.8151525259017944
1789453533552513800,2.068513671875,3.6604349613189697,2.7777388095855713,-3.395099639892578
1789453533562452700,2.07845263671875,3.357086420059204,3.8132548332214355,-4.6124444007873535
1789453533572393000,2.08839306640625,3.064020872116089,3.968205451965332,-5.412931442260742
1789453533582332000,2.098331787109375,2.754459857940674,3.5606539249420166,-5.597629547119141
1789453533592272000,2.10827197265625,2.9989452362060547,4.411272048950195,-4.571467399597168
1789453533602211000,2.118211181640625,3.342313766479492,4.418308734893799,-3.166954517364502
1789453533612150800,2.12815087890625,3.761258602142334,4.698573589324951,-1.4332836866378784
1789453533622090800,2.1380908203125,3.8325679302215576,3.6018013954162598,-0.2431175708770752
1789453533632030000,2.148030029296875,3.804654121398926,3.218280553817749,0.6932666301727295
1789453533641970000,2.157969970703125,2.7564809322357178,0.14125566184520721,1.0535776615142822
1789453533651908900,2.167908935546875,1.9674954414367676,-3.473494052886963,1.9831061363220215
1789453533661849000,2.17784912109375,2.8371734619140625,-1.513692855834961,3.9331204891204834
1789453533671788000,2.1877880859375,3.3617255687713623,-2.156709909439087,4.0250773429870605
1789453533681728000,2.19772802734375,3.2534239292144775,-1.219525694847107,4.630208492279053
1789453533691667700,2.207667724609375,2.5132479667663574,-0.8391359448432922,3.1088201999664307
1789453533701607000,2.21760693359375,1.2760088443756104,-0.26987355947494507,0.9198960661888123
1789453533711547000,2.227546875,0.24322783946990967,-1.151840329170227,-0.09538670629262924
1789453533721485800,2.23748583984375,-0.22586774826049805,-2.141108751296997,0.7404232025146484
1789453533731426000,2.247426025390625,-0.5696685314178467,-2.498321056365967,1.9202467203140259
1789453533741365000,2.257364990234375,-0.7007889747619629,-1.54604971408844,0.8895666599273682
1789453533751305000,2.267304931640625,-0.9238234162330627,-1.887356162071228,0.008729576133191586
1789453533761245000,2.277244873046875,-1.4638866186141968,-2.9455502033233643,0.7305061221122742
1789453533771183900,2.287183837890625,-1.735544204711914,-3.2766778469085693,1.076534390449524
1789453533781123800,2.297123779296875,-1.755173921585083,-2.835798978805542,0.3627893924713135
1789453533791062800,2.307062744140625,-1.7427853345870972,-2.496114730834961,-1.0317192077636719
1789453533801003000,2.3170029296875,-1.991433024406433,-3.044571876525879,-1.4960660934448242
1789453533810943000,2.32694287109375,-2.3097877502441406,-3.8100156784057617,-1.2089762687683105
1789453533820882000,2.3368818359375,-2.605685234069824,-4.320898532867432,-0.7306371927261353
1789453533830822000,2.34682177734375,-2.7749252319335938,-4.516395568847656,-0.5085670948028564
1789453533840760800,2.3567607421875,-2.7187507152557373,-4.328026294708252,-0.5072389841079712
1789453533850700800,2.36670068359375,-2.3242557048797607,-4.081345558166504,-0.6547378897666931
1789453533860639700,2.3766396484375,-1.6591962575912476,-3.680603265762329,-0.7800598740577698
1789453533870580000,2.386580078125,0.11150442063808441,-3.5447418689727783,-0.6855061650276184
1789453533880520000,2.39652001953125,0.5642649531364441,-3.1497294902801514,-0.9521839618682861
1789453533890459000,2.406458984375,-0.3558292090892792,-2.563725709915161,-1.1119552850723267
1789453533900398800,2.41639892578125,-0.8469352722167969,-2.179523468017578,-0.9381650686264038
1789453533910338000,2.426338134765625,-1.3996338844299316,-1.5841286182403564,-0.6242479085922241
1789453533920277800,2.43627783203125,-1.716113805770874,-1.3525002002716064,-0.4372897148132324
1789453533930217500,2.446217529296875,-1.7860215902328491,-1.214080572128296,-0.3868345320224762
1789453533940156400,2.456156494140625,-1.7785958051681519,-1.07145357131958,-0.006619286723434925
1789453533950096400,2.466096435546875,-1.5128685235977173,-0.8668085932731628,0.07321935147047043
1789453533960036600,2.47603662109375,-1.077724814414978,-0.7202218174934387,-0.005565207917243242
1789453533969975600,2.4859755859375,-0.8634144067764282,-0.4271867573261261,-0.2931138873100281
1789453533979915300,2.495915283203125,-0.1854819804430008,-0.8488895297050476,-0.054599862545728683
1789453533989854200,2.505854248046875,0.14268603920936584,-1.8934385776519775,1.7445193529129028
1789453533999794400,2.51579443359375,-0.7598227858543396,-1.102744698524475,0.38264989852905273
1789453534009733400,2.5257333984375,-0.7542564868927002,-0.9937593340873718,0.5601692795753479
1789453534019673300,2.53567333984375,-0.8104212284088135,-1.1172198057174683,0.6328988671302795
1789453534029613600,2.545613525390625,-0.9854226112365723,-1.225379228591919,0.7722378969192505
1789453534039552500,2.555552490234375,-1.1037055253982544,-1.199816346168518,0.7395281195640564
1789453534049492500,2.565492431640625,-0.9479878544807434,-1.1350038051605225,0.6727395057678223
1789453534059431400,2.575431396484375,-0.7202170491218567,-1.0054194927215576,0.6378510594367981
1789453534069371400,2.585371337890625,-0.6532334685325623,-0.784082293510437,0.554258406162262
1789453534079310300,2.595310302734375,-0.7447726726531982,-0.602510392665863,0.40967807173728943
1789453534089250300,2.605250244140625,-0.8746089935302734,-0.476845383644104,0.2502937316894531
1789453534099190500,2.6151904296875,-0.9165140986442566,-0.37399888038635254,0.09064814448356628
1789453534109129500,2.62512939453125,-0.773621141910553,-0.17054137587547302,-0.05193457007408142
1789453534119069400,2.6350693359375,-0.6358949542045593,0.008259261026978493,-0.0959630161523819
1789453534129008400,2.64500830078125,-0.8260614275932312,0.24085070192813873,0.08028152585029602
1789453534138948400,2.6549482421875,-1.1888436079025269,0.5814005732536316,0.1618613302707672
1789453534148888300,2.664888427734375,-1.5886951684951782,0.5404757261276245,0.02666117250919342
1789453534158827300,2.6748271484375,-2.0270657539367676,0.4892149567604065,-0.043046802282333374
1789453534168767500,2.684767578125,-2.5440149307250977,0.9002776145935059,-0.19168740510940552
1789453534178706400,2.69470654296875,-1.3577929735183716,0.9051671624183655,0.0002743055811151862
1789453534188646400,2.704646484375,0.20515182614326477,0.7389454245567322,0.03428793326020241
1789453534198585600,2.714585693359375,0.7121010422706604,0.5110321044921875,-0.023418240249156952
1789453534208525300,2.724525390625,0.3572971522808075,0.0896553173661232,0.11468476802110672
1789453534218465300,2.73446533203125,0.12289077043533325,-0.24129144847393036,0.28172942996025085
1789453534228404500,2.744404541015625,0.14646640419960022,-0.34171098470687866,0.27997973561286926
1789453534238344400,2.754344482421875,0.10075484216213226,-0.4074186384677887,0.20809701085090637
1789453534248283400,2.764283447265625,-0.003703924361616373,-0.4827978014945984,0.18385398387908936
1789453534258223400,2.774223388671875,-0.16834001243114471,-0.7041435241699219,0.1668023020029068
1789453534268162600,2.78416259765625,-0.32418501377105713,-0.9524193406105042,0.17277097702026367
1789453534278102300,2.794102294921875,-0.39596572518348694,-1.1270675659179688,0.1866585612297058
1789453534288041500,2.80404150390625,-0.3953252136707306,-1.0443344116210938,0.040952228009700775
1789453534297981400,2.8139814453125,-0.33863183856010437,-0.7183237671852112,-0.21802394092082977
1789453534307921400,2.82392138671875,-0.25236061215400696,-0.30211326479911804,-0.48759204149246216
1789453534317860400,2.8338603515625,-0.1517953872680664,0.10047361254692078,-0.738357663154602
1789453534327800600,2.843800537109375,-0.08919219672679901,0.3137398064136505,-1.0011826753616333
1789453534337739500,2.853739501953125,-0.02840101532638073,0.2753399610519409,-1.1035923957824707
1789453534347679500,2.863679443359375,0.04417917877435684,0.20587725937366486,-1.0204988718032837
1789453534357619200,2.873619140625,0.0879354476928711,0.1590311974287033,-0.9402468800544739
1789453534367558400,2.883558349609375,0.07413467764854431,0.11846006661653519,-0.7574847936630249
1789453534377498400,2.893498291015625,0.09053975343704224,0.0915650725364685,-0.659675121307373
1789453534387437300,2.903437255859375,0.1300690472126007,-0.019330820068717003,-0.6417006254196167
1789453534397377500,2.91337744140625,-0.023311447352170944,-0.020838169381022453,-0.5266702175140381
1789453534407316500,2.92331640625,-0.3766796290874481,0.6577848196029663,-0.3438718914985657
1789453534417256400,2.93325634765625,-0.36316436529159546,1.6930832862854004,-0.5496892333030701
1789453534427196400,2.943196533203125,-0.3170836865901947,1.7252849340438843,-0.8426076769828796
1789453534437135400,2.95313525390625,-0.3231032192707062,0.7562501430511475,-0.3299856185913086
1789453534447075300,2.963075439453125,-0.3279283344745636,-0.37546974420547485,0.4740820825099945
1789453534457014300,2.97301416015625,-0.3389365077018738,-0.3658594787120819,0.3966408371925354
1789453534466954500,2.98295458984375,-0.3327409327030182,-0.15120309591293335,0.027752002701163292
1789453534476894500,2.99289453125,-0.29607081413269043,-0.21917521953582764,-0.11036911606788635
1789453534486833400,3.00283349609375,-0.22807390987873077,-0.24553918838500977,-0.10085950046777725
1789453534496773400,3.0127734375,-0.10637704282999039,0.024054469540715218,-0.19012466073036194
1789453534506712300,3.02271240234375,0.024579910561442375,0.26909270882606506,-0.2951759994029999
1789453534516652300,3.03265234375,0.019514312967658043,0.34957370162010193,-0.23814651370048523
1789453534526591200,3.04259130859375,-0.19477933645248413,0.3913392722606659,-0.1685759723186493
1789453534536531500,3.052531494140625,-0.4289790689945221,0.42088329792022705,-0.06308895349502563
1789453534546471400,3.062471435546875,-0.549025297164917,0.5805177092552185,-0.004412325099110603
1789453534556410400,3.072410400390625,-0.5878552794456482,0.599760890007019,-0.09253685921430588
1789453534566350300,3.082350341796875,-0.5087258219718933,0.32534080743789673,-0.1300850361585617
1789453534576289500,3.09228955078125,-0.2085058093070984,-0.1162365972995758,-0.28939399123191833
1789453534586229200,3.102229248046875,-0.028610339388251305,-0.8883256316184998,-0.8788154721260071
1789453534596168400,3.11216845703125,0.1251017302274704,-2.538466691970825,-1.7927814722061157
1789453534606108400,3.1221083984375,0.7154510021209717,-2.8897194862365723,-1.5645219087600708
1789453534616048400,3.13204833984375,0.8578710556030273,-1.104851245880127,-0.6663138270378113
1789453534625987300,3.1419873046875,0.5847662687301636,0.6450042724609375,0.11231109499931335
1789453534635927600,3.151927490234375,0.5648666024208069,0.7174468040466309,0.2846711575984955
1789453534645866500,3.161866455078125,0.6030640602111816,0.46393758058547974,0.367311954498291
1789453534655806200,3.17180615234375,0.6569821238517761,0.3477827310562134,0.3561147153377533
1789453534665746400,3.181746337890625,0.7259273529052734,0.3876401484012604,0.31393927335739136
1789453534675685400,3.191685302734375,0.726854145526886,0.40799573063850403,0.34502795338630676
1789453534685625300,3.201625244140625,0.800888180732727,0.48937156796455383,0.24353648722171783
1789453534695564500,3.211564453125,0.9602818489074707,0.6320333480834961,0.18647107481956482
1789453534705504500,3.22150439453125,1.1519079208374023,0.6446511745452881,0.018613897264003754
1789453534715443500,3.231443359375,1.437049150466919,0.6319449543952942,-0.16303952038288116
1789453534725383400,3.241383544921875,1.7146037817001343,0.8536083698272705,-0.2594797611236572
1789453534735323400,3.251323486328125,1.7540571689605713,1.2774786949157715,-0.1969578117132187
1789453534745262300,3.261262451171875,1.7611148357391357,1.3269000053405762,-0.30976665019989014
1789453534755202300,3.271202392578125,1.6818573474884033,1.0628769397735596,-0.31032297015190125
1789453534765141500,3.2811416015625,1.5859822034835815,0.6727930307388306,-0.25358858704566956
1789453534775081500,3.29108154296875,1.5928730964660645,0.39930078387260437,-0.33615216612815857
1789453534785020400,3.3010205078125,1.8624303340911865,0.16133935749530792,-0.6026976108551025
1789453534794960400,3.31096044921875,2.3118224143981934,-0.5262954831123352,-1.121217966079712
1789453534804900400,3.320900390625,3.1847939491271973,-1.5817517042160034,-1.5700432062149048
1789453534814839300,3.33083935546875,4.079176902770996,-1.9258122444152832,-1.4224600791931152
1789453534824779500,3.340779541015625,3.794889450073242,-1.1113791465759277,-0.6528558135032654
1789453534834718500,3.350718505859375,3.097618818283081,-0.1356678158044815,-0.45457708835601807
1789453534844658400,3.360658447265625,2.704284191131592,0.37899845838546753,-0.4755159318447113
1789453534854598400,3.370598388671875,2.5812432765960693,0.27882951498031616,-0.33805206418037415
1789453534864537600,3.38053759765625,2.4593429565429688,-0.021339910104870796,-0.21080251038074493
1789453534874477300,3.390477294921875,2.2038071155548096,-0.13708142936229706,-0.1656227856874466
1789453534884416300,3.400416259765625,2.001802682876587,-0.15377305448055267,-0.15965916216373444
1789453534894356500,3.4103564453125,1.946225643157959,-0.26788923144340515,-0.13120383024215698
1789453534904295400,3.42029541015625,2.005603790283203,-0.4587255120277405,-0.02466779574751854
1789453534914235400,3.4302353515625,2.1078433990478516,-0.6166728138923645,0.0829409584403038
1789453534924175600,3.440175537109375,2.116213321685791,-0.8221585750579834,0.18088670074939728
1789453534934114800,3.45011474609375,2.0365796089172363,-1.0911924839019775,0.36005350947380066
1789453534944054500,3.460054443359375,1.786561369895935,-1.0828179121017456,0.6319897174835205
1789453534953993500,3.469993408203125,1.2548500299453735,-0.9502193331718445,0.8556909561157227
1789453534963933700,3.47993359375,0.7203016877174377,-0.5757706165313721,0.8262249231338501
1789453534973873700,3.489873779296875,0.6514043807983398,-0.8889144062995911,-0.8487704992294312
1789453534983812600,3.4998125,1.526713490486145,-0.9191157221794128,-0.8180333375930786
1789453534993752800,3.5097529296875,2.0517454147338867,-0.2525307834148407,-0.4425870180130005
1789453535003691800,3.51969189453125,2.314250946044922,0.3207729458808899,-0.6025857329368591
1789453535013631500,3.529631591796875,2.2812037467956543,0.17384903132915497,-0.5701934099197388
1789453535023570400,3.5395703125,1.8183521032333374,-0.3374704420566559,-0.6557523012161255
1789453535033510700,3.5495107421875,1.240833044052124,-0.642343282699585,-1.0587905645370483
1789453535043450600,3.55945068359375,0.3452647030353546,-0.18388114869594574,-1.0270030498504639
1789453535053389600,3.5693896484375,0.016157131642103195,0.09137678146362305,-0.7835723161697388
1789453535063329800,3.579329833984375,0.13081473112106323,0.28839290142059326,-0.28906670212745667
1789453535073268700,3.589268798828125,0.15658427774906158,0.337277352809906,0.007632886059582233
1789453535083208400,3.59920849609375,0.34231820702552795,0.2063361257314682,0.25157204270362854
1789453535093148700,3.609148681640625,0.5180572867393494,0.04325772449374199,0.2070823460817337
1789453535103087600,3.619087646484375,0.6875743865966797,-0.366157203912735,-0.11498384177684784
1789453535113027600,3.629027587890625,0.4975365400314331,0.23506604135036469,0.0812397301197052
1789453535122966800,3.638966796875,0.7592331171035767,0.4601380527019501,0.3064432740211487
1789453535132906800,3.64890673828125,0.7047227621078491,-0.21369630098342896,0.8951640725135803
1789453535142845700,3.658845703125,-0.14600726962089539,-0.8517335057258606,0.5018183588981628
1789453535152785700,3.66878564453125,-0.342806339263916,-0.016763001680374146,-0.04987701028585434
1789453535162725600,3.6787255859375,0.09928824007511139,0.0768527016043663,0.24431467056274414
1789453535172664600,3.68866455078125,1.1629763841629028,-0.15272456407546997,0.37458479404449463
1789453535182604500,3.6986044921875,1.2459716796875,-1.1800717115402222,0.7848215699195862
1789453535192543700,3.708543701171875,1.3377494812011719,-0.9313175678253174,0.4924115538597107
1789453535202483700,3.718483642578125,1.6145882606506348,-0.840870201587677,1.4685930013656616
1789453535212423700,3.728423583984375,1.1614325046539307,-0.8859891891479492,1.276529312133789
1789453535222363000,3.73836279296875,0.9057943224906921,-0.7623724937438965,1.033698558807373
1789453535232302600,3.748302490234375,2.690901517868042,-0.5063430666923523,1.9258800745010376
1789453535242241500,3.758241455078125,3.135054111480713,-1.3828703165054321,2.1743059158325195
1789453535252181800,3.768181640625,3.3426284790039062,1.9638344049453735,2.892683506011963
1789453535262121700,3.778121826171875,3.1072237491607666,0.6040438413619995,2.279078483581543
1789453535272060700,3.788060791015625,3.2417848110198975,-0.1712135672569275,0.42766639590263367
1789453535282000600,3.798000732421875,2.49914813041687,1.4886244535446167,-1.1249994039535522
1789453535291939800,3.80793994140625,2.0298960208892822,1.1054677963256836,-1.5863022804260254
1789453535301879600,3.817879638671875,3.0140180587768555,0.6967407464981079,-0.7395244240760803
1789453535311818500,3.827818603515625,2.4981024265289307,-0.6183053255081177,1.4333076477050781
1789453535321758700,3.8377587890625,0.8667659759521484,-0.5687841176986694,2.8422811031341553
1789453535331698700,3.84769873046875,0.04752543941140175,-0.7826774716377258,2.960289716720581
1789453535341637600,3.8576376953125,-0.26122334599494934,-1.1427773237228394,2.1423285007476807
1789453535351577900,3.867577880859375,-0.3411296308040619,-1.1322849988937378,1.1470575332641602
1789453535361516800,3.877516845703125,-0.5870826840400696,-0.6065852642059326,0.4694415330886841
1789453535371456500,3.88745654296875,-0.9302152395248413,-0.2304374724626541,0.1359059065580368
1789453535381396700,3.897396728515625,-1.0841838121414185,-0.01369290892034769,-0.08753810077905655
1789453535391335700,3.907335693359375,-1.0419721603393555,-0.16493169963359833,-0.26640984416007996
1789453535401275600,3.917275634765625,-0.8729421496391296,-0.6581824421882629,-0.2427346110343933
1789453535411214600,3.927214599609375,-0.5741205215454102,-0.09333527088165283,-0.7605279684066772
1789453535421154800,3.93715478515625,-0.642719566822052,-0.0004620584368240088,-1.0272523164749146
1789453535431093800,3.94709375,-0.5556062459945679,0.08396413922309875,-1.2350702285766602
1789453535441033700,3.95703369140625,-0.46580925583839417,-0.05516205355525017,-1.451387882232666
1789453535450973700,3.9669736328125,-0.4665304124355316,-0.11716337502002716,-1.4458529949188232
1789453535460912600,3.97691259765625,-0.3650786280632019,-0.2338106334209442,-1.46407151222229
1789453535470852600,3.9868525390625,-0.2991105318069458,-0.19366081058979034,-1.5380210876464844
1789453535480791600,3.99679150390625,-0.1416759043931961,-0.08797859400510788,-1.659256100654602
1789453535490731800,4.006731689453125,0.0005829659639857709,0.03280428424477577,-1.825575828552246
1789453535500671700,4.016671630859375,0.04831506684422493,0.1760365515947342,-1.939805269241333
1789453535510610700,4.026610595703125,0.10262304544448853,0.16652773320674896,-1.944081425666809
1789453535520550700,4.036550537109375,0.09192992001771927,0.031132886186242104,-1.7985197305679321
1789453535530489600,4.046489501953125,0.03406662493944168,-0.16804173588752747,-1.5161805152893066
1789453535540429600,4.0564296875,-0.057738661766052246,-0.2821637690067291,-1.258605718612671
1789453535550369800,4.066369873046875,-0.2394229769706726,-0.22360007464885712,-1.043817162513733
1789453535560308700,4.076308837890625,-0.30286532640457153,0.16035425662994385,-0.9364821910858154
1789453535570248700,4.086248779296875,-0.09532997757196426,0.4346065819263458,-0.6825208067893982
1789453535580187600,4.096187744140625,0.020978517830371857,0.48323217034339905,-0.9229475259780884
1789453535590127600,4.106127685546875,-0.04445881024003029,0.4558769762516022,-1.2934999465942383
1789453535600067600,4.116067626953125,-0.1850028783082962,0.3884074091911316,-1.4412190914154053
1789453535610006500,4.126006591796875,-0.5471344590187073,0.43988364934921265,-1.498307228088379
1789453535619946800,4.13594677734375,-0.7209925651550293,0.3666065037250519,-1.4451707601547241
1789453535629885700,4.1458857421875,-0.5364331007003784,-0.0019177423091605306,-1.2983860969543457
1789453535639825700,4.15582568359375,-0.12857794761657715,-0.2846378684043884,-1.1219804286956787
1789453535649765600,4.165765625,-0.09945841133594513,-0.1337554007768631,-0.9690004587173462
1789453535659704600,4.17570458984375,-0.12194401770830154,-0.00820999313145876,-0.8963965773582458
1789453535669644500,4.18564453125,-0.14820411801338196,0.14466051757335663,-0.8991249799728394
1789453535679583500,4.19558349609375,-0.17214512825012207,0.22782623767852783,-0.9354147911071777
1789453535689523700,4.205523681640625,-0.1834784746170044,0.158961683511734,-0.9475740194320679
1789453535699463700,4.215463623046875,-0.1705206036567688,0.013855894096195698,-0.9380100965499878
1789453535709402600,4.225402587890625,-0.1553991734981537,-0.13444383442401886,-0.8984829187393188
1789453535719342600,4.235342529296875,-0.18478289246559143,-0.2320111244916916,-0.7929378151893616
1789453535729281500,4.245281494140625,-0.2373289316892624,-0.26957768201828003,-0.6693525314331055
1789453535739221500,4.255221435546875,-0.3068472743034363,-0.21787241101264954,-0.5624383091926575
1789453535749161700,4.26516162109375,-0.3873991072177887,-0.11474975198507309,-0.495484858751297
1789453535759100700,4.2751005859375,-0.439567506313324,-0.11904409527778625,-0.4788432717323303
1789453535769040600,4.28504052734375,-0.47352176904678345,-0.22046099603176117,-0.4972694218158722
1789453535778979600,4.2949794921875,-0.5058996677398682,-0.3608492612838745,-0.5328550934791565
1789453535788919800,4.304919921875,-0.5715625882148743,-0.4396823048591614,-0.5711231231689453
1789453535798859500,4.314859619140625,-0.6461523771286011,-0.3507167398929596,-0.591310441493988
1789453535808798500,4.324798583984375,-0.6823338270187378,-0.19495004415512085,-0.600493848323822
1789453535818738700,4.33473876953125,-0.6827002763748169,-0.008770322427153587,-0.6140117645263672
1789453535828677600,4.344677734375,-0.6399935483932495,0.05108022689819336,-0.6130051016807556
1789453535838617600,4.35461767578125,-0.5871739983558655,-0.04587135091423988,-0.6188219785690308
1789453535848557800,4.364557861328125,-0.5760363936424255,-0.18898695707321167,-0.6166037917137146
1789453535858496800,4.374496826171875,-0.5789187550544739,-0.24126455187797546,-0.5900164246559143
1789453535868436500,4.3844365234375,-0.5714675188064575,-0.24513572454452515,-0.536616861820221
1789453535878375700,4.394375732421875,-0.5697367191314697,-0.21554213762283325,-0.5304630398750305
1789453535888315600,4.404315673828125,-0.5946153998374939,-0.19454550743103027,-0.5627999901771545
1789453535898255600,4.414255615234375,-0.6300152540206909,-0.17354196310043335,-0.6138956546783447
1789453535908194600,4.424194580078125,-0.7008255124092102,-0.16973496973514557,-0.6487524509429932
1789453535918134800,4.434134765625,-0.7992897629737854,-0.05578949674963951,-0.6678499579429626
1789453535928073700,4.44407373046875,-0.8190722465515137,-0.16682760417461395,-0.6423898935317993
1789453535938013400,4.454013427734375,-0.8062986731529236,-0.2208884358406067,-0.6277342438697815
1789453535947953700,4.46395361328125,-0.7681922912597656,-0.2758787274360657,-0.6467164158821106
1789453535957892600,4.473892578125,-0.7202751040458679,-0.4056452512741089,-0.6898849606513977
1789453535967832600,4.48383251953125,-0.6870042085647583,-0.4924815893173218,-0.7404908537864685
1789453535977771800,4.493771728515625,-0.7493658661842346,-0.44092199206352234,-0.7365986704826355
1789453535987711700,4.503711669921875,-0.7864919304847717,-0.5479208827018738,-0.7296496629714966
1789453535997651500,4.5136513671875,-0.8132971525192261,-0.4664793014526367,-0.7177309393882751
1789453536007590700,4.523590576171875,-0.764276385307312,-0.39308762550354004,-0.7355325818061829
1789453536017530600,4.533530517578125,-0.6750380992889404,-0.47694551944732666,-0.7690780162811279
1789453536027469600,4.543469482421875,-0.6705743670463562,-0.46485981345176697,-0.7332444190979004
1789453536037409500,4.553409423828125,-0.7061624526977539,-0.4272594451904297,-0.6840882897377014
1789453536047349800,4.563349853515625,-0.7180367112159729,-0.5466609597206116,-0.6735195517539978
1789453536057288700,4.573288818359375,-0.7788814306259155,-0.5021947026252747,-0.6181082129478455
1789453536067228700,4.583228759765625,-0.8675441741943359,-0.22478730976581573,-0.5310268402099609
1789453536077167900,4.59316796875,-0.8376147747039795,-0.2822718918323517,-0.5532267093658447
1789453536087107600,4.603107666015625,-0.8204930424690247,-0.31612706184387207,-0.5963797569274902
1789453536097047600,4.613047607421875,-0.8173078894615173,-0.28004708886146545,-0.6070915460586548
1789453536106986800,4.62298681640625,-0.8412100076675415,-0.20246095955371857,-0.5665326714515686
1789453536116926700,4.6329267578125,-0.7929583191871643,-0.28095683455467224,-0.5392464399337769
1789453536126866700,4.64286669921875,-0.7322843670845032,-0.3225117325782776,-0.5244855880737305
1789453536136806000,4.652805908203125,-0.7130563259124756,-0.17546476423740387,-0.4671240448951721
1789453536146745600,4.66274560546875,-0.6449800729751587,-0.08811894059181213,-0.3749339282512665
1789453536156684500,4.6726845703125,-0.5178058743476868,-0.20356696844100952,-0.3783198595046997
1789453536166624500,4.68262451171875,-0.5423993468284607,-0.06514864414930344,-0.37055277824401855
1789453536176564700,4.692564697265625,-0.6020762920379639,0.1412932127714157,-0.36662939190864563
1789453536186503700,4.702503662109375,-0.6347673535346985,0.29997819662094116,-0.3677540421485901
1789453536196443600,4.712443603515625,-0.6717538833618164,0.571070671081543,-0.30510851740837097
1789453536206382800,4.7223828125,-0.46959730982780457,0.3272513747215271,-0.27586352825164795
1789453536216322600,4.732322509765625,-0.36024340987205505,0.3279251456260681,-0.1365429311990738
1789453536226262500,4.742262451171875,-0.24182355403900146,0.36836177110671997,-0.014569088816642761
1789453536236201700,4.75220166015625,-0.12448839843273163,0.43034154176712036,-0.03428606688976288
1789453536246141700,4.7621416015625,-0.07541166990995407,0.4832095503807068,-0.0737953931093216
1789453536256080600,4.77208056640625,-0.030237264931201935,0.4604392349720001,-0.0036573191173374653
1789453536266020600,4.7820205078125,0.019275693222880363,0.3656882345676422,0.027765585109591484
1789453536275960600,4.791960693359375,0.039918653666973114,0.3228270411491394,0.1330147683620453
1789453536285899500,4.8018994140625,0.058087270706892014,0.26784104108810425,0.20044735074043274
1789453536295839500,4.811839599609375,0.061460431665182114,0.252731055021286,0.19269008934497833
1789453536305779700,4.82177978515625,0.062368303537368774,0.24062752723693848,0.20268094539642334
1789453536315718700,4.83171875,0.09482451528310776,0.25162583589553833,0.2871497571468353
1789453536325658600,4.84165869140625,0.12874546647071838,0.2449016273021698,0.3203050494194031
1789453536335597800,4.851597900390625,0.16123922169208527,0.17994660139083862,0.3404150903224945
1789453536345537500,4.86153759765625,0.17484131455421448,0.12852442264556885,0.38801032304763794
1789453536355477500,4.8714775390625,0.20793215930461884,0.05098781734704971,0.43200281262397766
1789453536365416700,4.881416748046875,0.2951570749282837,-0.022468024864792824,0.4438413679599762
1789453536375356700,4.891356689453125,0.45817023515701294,-0.022973492741584778,0.4787476658821106
1789453536385295600,4.901295654296875,0.6666163802146912,-0.014853781089186668,0.5482497811317444
1789453536395235600,4.911235595703125,0.8515018224716187,0.06839876621961594,0.6170544028282166
1789453536405175800,4.92117578125,1.0064215660095215,0.1643575131893158,0.6761617064476013
1789453536415114800,4.93111474609375,1.1244161128997803,0.2598576843738556,0.7263920903205872
1789453536425054500,4.941054443359375,1.2161554098129272,0.33830320835113525,0.7715606093406677
1789453536434994700,4.95099462890625,1.2837722301483154,0.38583290576934814,0.798734188079834
1789453536444933600,4.96093359375,1.347064733505249,0.442515105009079,0.8425946235656738
1789453536454873600,4.97087353515625,1.3990026712417603,0.5173919796943665,0.9006326198577881
1789453536464812800,4.980812744140625,1.459519624710083,0.5621573328971863,0.9148765206336975
1789453536474752800,4.990752685546875,1.4889371395111084,0.5461221933364868,0.8963212370872498
1789453536484692500,5.0006923828125,1.5211280584335327,0.5698189735412598,0.8899839520454407
1789453536494631700,5.010631591796875,1.5654340982437134,0.6240047216415405,0.8985012769699097
1789453536504571600,5.020571533203125,1.5918935537338257,0.6520962715148926,0.9129121899604797
1789453536514510600,5.030510498046875,1.5744410753250122,0.6566758751869202,0.9062942266464233
1789453536524450600,5.040450439453125,1.5130510330200195,0.6472208499908447,0.8763808012008667
1789453536534390800,5.050390869140625,1.4395294189453125,0.6325681209564209,0.8738358616828918
1789453536544329700,5.060329833984375,1.3811856508255005,0.5598358511924744,0.8879578113555908
1789453536554269400,5.07026953125,1.3384381532669067,0.5005826950073242,0.8869631290435791
1789453536564209700,5.080209716796875,1.2891515493392944,0.44670265913009644,0.9026672840118408
1789453536574148600,5.090148681640625,1.2330856323242188,0.38972726464271545,0.9395440220832825
1789453536584088600,5.100088623046875,1.2043813467025757,0.3099980652332306,0.9666805863380432
1789453536594027800,5.11002783203125,1.1588913202285767,0.2769826054573059,0.9748767614364624
1789453536603967700,5.1199677734375,1.0696754455566406,0.20444954931735992,0.9910320043563843
1789453536613907500,5.129907470703125,0.9939548373222351,0.15942640602588654,0.9923319220542908
1789453536623846700,5.1398466796875,0.9778256416320801,0.11640996485948563,0.9574258327484131
1789453536633786600,5.14978662109375,0.968330979347229,0.07228804379701614,0.9328534007072449
1789453536643725600,5.1597255859375,0.9652486443519592,0.05229249969124794,0.9446956515312195
1789453536653665500,5.16966552734375,1.002617597579956,-0.011420433409512043,0.9529938101768494
1789453536663605800,5.179605712890625,1.0369504690170288,-0.06979905813932419,0.9298259019851685
1789453536673544700,5.189544677734375,1.0474305152893066,-0.14352121949195862,0.9465694427490234
1789453536683484700,5.199484619140625,1.066677451133728,-0.17425541579723358,0.9648659229278564
1789453536693424600,5.209424560546875,1.0718679428100586,-0.21241825819015503,0.9716423153877258
1789453536703363600,5.219363525390625,1.0499895811080933,-0.20107026398181915,0.9521698355674744
1789453536713303600,5.229303466796875,1.0070821046829224,-0.2069912701845169,0.9382372498512268
1789453536723242800,5.23924267578125,0.9515336155891418,-0.24436314404010773,0.863577663898468
1789453536733182700,5.2491826171875,0.894595205783844,-0.24150076508522034,0.803210437297821
1789453536743122700,5.259122802734375,0.8387162685394287,-0.14816762506961823,0.8243189454078674
1789453536753062000,5.269061767578125,0.8392313122749329,-0.044503550976514816,0.8528863787651062
1789453536763001600,5.279001708984375,0.8268393278121948,-0.05193324014544487,0.8501086831092834
1789453536772941600,5.288941650390625,0.8280814290046692,-0.08144000172615051,0.8499699831008911
1789453536782880500,5.298880615234375,0.8167563676834106,-0.17500562965869904,0.8322005271911621
1789453536792820700,5.30882080078125,0.7450661659240723,-0.1511887162923813,0.8371186256408691
1789453536802759700,5.318759765625,0.6703141927719116,-0.09969410300254822,0.8549415469169617
1789453536812699600,5.32869970703125,0.6257741451263428,-0.04849616438150406,0.8583685159683228
1789453536822639600,5.3386396484375,0.5985252261161804,-0.1089206263422966,0.8414486646652222
1789453536832578600,5.34857861328125,0.5527231097221375,-0.21319563686847687,0.7889638543128967
1789453536842518500,5.3585185546875,0.48717552423477173,-0.19056275486946106,0.7494566440582275
1789453536852458800,5.368458740234375,0.38691362738609314,-0.1355690062046051,0.736944854259491
1789453536862397700,5.378397705078125,0.34192192554473877,-0.017532654106616974,0.6989724636077881
1789453536872337700,5.388337646484375,0.3134652376174927,-0.04242734983563423,0.6496216654777527
1789453536882276900,5.39827685546875,0.283552348613739,0.09166627377271652,0.544100821018219
1789453536892216600,5.408216552734375,0.171100914478302,0.028920065611600876,0.4701786935329437
1789453536902156500,5.418156494140625,0.08273801952600479,0.009308546781539917,0.32968443632125854
1789453536912095500,5.428095458984375,0.01167556457221508,-0.005471996963024139,0.1889382302761078
1789453536922035700,5.43803564453125,-0.0855276808142662,-0.04457679018378258,0.07545480877161026
1789453536931974700,5.447974609375,-0.16681215167045593,-0.17753270268440247,-0.0268864743411541
1789453536941915000,5.457914794921875,-0.2615341246128082,-0.22988379001617432,-0.11731383949518204
1789453536951854600,5.4678544921875,-0.3282566964626312,-0.22693701088428497,-0.17873059213161469
1789453536961793500,5.47779345703125,-0.3850579261779785,-0.2027006447315216,-0.24800661206245422
1789453536971733800,5.487733642578125,-0.4078705608844757,-0.18227845430374146,-0.30555564165115356
1789453536981673700,5.497673828125,-0.4570876657962799,-0.1317838579416275,-0.34328439831733704
1789453536991612700,5.50761279296875,-0.5244467258453369,-0.10037906467914581,-0.36639636754989624
1789453537001553000,5.517552978515625,-0.5747780799865723,-0.07902983576059341,-0.40531232953071594
1789453537011491800,5.527491943359375,-0.6267811059951782,-0.020074641332030296,-0.45193150639533997
1789453537021431800,5.537431884765625,-0.6879560351371765,0.08443552255630493,-0.49961355328559875
1789453537031371800,5.547371826171875,-0.7119742631912231,0.17452013492584229,-0.5261197090148926
1789453537041310700,5.557310791015625,-0.7302382588386536,0.22258886694908142,-0.5637099742889404
1789453537051250700,5.567250732421875,-0.7299295663833618,0.23880459368228912,-0.5825667381286621
1789453537061191000,5.57719091796875,-0.6969074606895447,0.2760595381259918,-0.5808849930763245
1789453537071129900,5.5871298828125,-0.6600780487060547,0.2542218863964081,-0.5454713106155396
1789453537081069800,5.59706982421875,-0.6504285931587219,0.2471008598804474,-0.5102115869522095
1789453537091009800,5.607009765625,-0.629645586013794,0.18896032869815826,-0.4738839566707611
1789453537100948700,5.61694873046875,-0.62896728515625,0.13404648005962372,-0.44062238931655884
1789453537110888700,5.626888671875,-0.6164306998252869,0.14453987777233124,-0.40713927149772644
1789453537120827600,5.63682763671875,-0.5963672399520874,0.15642662346363068,-0.38959088921546936
1789453537130768000,5.646767822265625,-0.590273380279541,0.191800057888031,-0.3904905319213867
1789453537140707800,5.656707763671875,-0.5667906999588013,0.22529757022857666,-0.38974910974502563
1789453537150646800,5.666646728515625,-0.5490652322769165,0.2825624644756317,-0.4174997806549072
1789453537160586800,5.676586669921875,-0.55298912525177,0.39249107241630554,-0.49652668833732605
1789453537170526700,5.686526611328125,-0.5816285014152527,0.49751657247543335,-0.5771147012710571
1789453537180465700,5.696465576171875,-0.5977736711502075,0.5467498898506165,-0.5896531343460083
1789453537190406000,5.706406005859375,-0.5859715938568115,0.5671449303627014,-0.5510634183883667
1789453537200344800,5.7163447265625,-0.5668900609016418,0.5235652327537537,-0.5362836718559265
1789453537210284800,5.726284912109375,-0.5587745904922485,0.35983753204345703,-0.5991561412811279
1789453537220224500,5.736224609375,-0.578305721282959,0.2811451256275177,-0.6577144861221313
1789453537230163700,5.746163818359375,-0.628295361995697,0.3306881785392761,-0.658484697341919
1789453537240103700,5.756103759765625,-0.6745062470436096,0.4109627604484558,-0.6416223645210266
1789453537250043600,5.766043701171875,-0.7114003896713257,0.46049410104751587,-0.6545062065124512
1789453537259982800,5.77598291015625,-0.7501272559165955,0.4197285771369934,-0.6913784742355347
1789453537269922800,5.7859228515625,-0.7978993058204651,0.3697807192802429,-0.7107963562011719
1789453537279861800,5.79586181640625,-0.8134257793426514,0.3200102150440216,-0.6828376650810242
1789453537289801700,5.8058017578125,-0.7975770831108093,0.29687589406967163,-0.6143907308578491
1789453537299741700,5.81574169921875,-0.7589012980461121,0.20687195658683777,-0.5659360885620117
1789453537309680600,5.8256806640625,-0.7407790422439575,0.08110843598842621,-0.5558997392654419
1789453537319620900,5.835620849609375,-0.7233459949493408,-0.015671903267502785,-0.5811968445777893
1789453537329560800,5.845560791015625,-0.6941902041435242,-0.08234147727489471,-0.645706057548523
1789453537339499800,5.855499755859375,-0.6847215890884399,-0.06539498269557953,-0.7034857273101807
1789453537349439700,5.865439697265625,-0.667306125164032,-0.07447423040866852,-0.7605151534080505
1789453537359378700,5.875378662109375,-0.6488794684410095,-0.0616079717874527,-0.7871800661087036
1789453537369318700,5.885318603515625,-0.6265187859535217,-0.01996678300201893,-0.770330011844635
1789453537379258600,5.895258544921875,-0.602156400680542,-0.009324259124696255,-0.7488497495651245
1789453537389197800,5.90519775390625,-0.5603687763214111,-0.07726576179265976,-0.7575652003288269
1789453537399137800,5.9151376953125,-0.5528624057769775,-0.08970431983470917,-0.7582866549491882
1789453537409077800,5.925077880859375,-0.511288046836853,-0.1492011994123459,-0.8082350492477417
1789453537419017000,5.935016845703125,-0.5033614039421082,-0.2282472848892212,-0.8707188963890076
1789453537428956700,5.944956787109375,-0.5168998837471008,-0.2585572600364685,-0.9104167819023132
1789453537438896600,5.954896728515625,-0.5411580801010132,-0.27510374784469604,-0.9278756976127625
1789453537448835800,5.9648359375,-0.5266355872154236,-0.34620189666748047,-0.960049033164978
1789453537458775800,5.97477587890625,-0.565237283706665,-0.3127981126308441,-0.9416958689689636
1789453537468714800,5.98471484375,-0.5724299550056458,-0.33169856667518616,-0.9237610697746277
1789453537478654700,5.99465478515625,-0.571433961391449,-0.37117061018943787,-0.9281896352767944
1789453537488594700,6.0045947265625,-0.5883660316467285,-0.3902391195297241,-0.9505032300949097
1789453537498533600,6.01453369140625,-0.5799033045768738,-0.4402886927127838,-0.9900892376899719
1789453537508473600,6.0244736328125,-0.5812759399414062,-0.47327354550361633,-1.025132179260254
1789453537518413800,6.034413818359375,-0.5983430743217468,-0.5021576881408691,-1.0628774166107178
1789453537528352800,6.044352783203125,-0.6319172382354736,-0.5289943218231201,-1.1007119417190552
1789453537538292700,6.054292724609375,-0.6655066609382629,-0.5279237627983093,-1.0899449586868286
1789453537548232000,6.06423193359375,-0.6763694286346436,-0.5802716612815857,-1.073928713798523
1789453537558171600,6.074171630859375,-0.6744250059127808,-0.6145992279052734,-1.0746818780899048
1789453537568111600,6.084111572265625,-0.6342477798461914,-0.6527479887008667,-1.096158742904663
1789453537578050800,6.09405078125,-0.5877900123596191,-0.6896836161613464,-1.0998666286468506
1789453537587990800,6.10399072265625,-0.5512018799781799,-0.7410935163497925,-1.113568902015686
1789453537597930800,6.1139306640625,-0.5486034750938416,-0.8095546364784241,-1.1193559169769287
1789453537607869700,6.12386962890625,-0.6284540891647339,-0.6532369256019592,-1.076383352279663
1789453537617809700,6.1338095703125,-0.6506975889205933,-0.7045600414276123,-1.104095458984375
1789453537627749600,6.14374951171875,-0.6547600030899048,-0.7927271723747253,-1.1145190000534058
1789453537637688600,6.1536884765625,-0.6156322956085205,-0.9728138446807861,-1.0619405508041382
1789453537647628800,6.16362890625,-0.6098622679710388,-0.9644981622695923,-1.0134925842285156
1789453537657567700,6.173567626953125,-0.5257031917572021,-0.8151307702064514,-0.9270796775817871
1789453537667507700,6.1835078125,-0.49867504835128784,-0.6103943586349487,-0.8164300918579102
1789453537677447700,6.19344775390625,-0.4385477900505066,-0.5534770488739014,-0.7345157861709595
1789453537687386600,6.20338671875,-0.45544129610061646,-0.3666227459907532,-0.6489119529724121
1789453537697326600,6.21332666015625,-0.5093929171562195,-0.15362924337387085,-0.5648308992385864
1789453537707266800,6.223266845703125,-0.630171537399292,0.11715405434370041,-0.507327675819397
1789453537717205800,6.233205810546875,-0.6260513663291931,0.37315282225608826,-0.4223909378051758
1789453537727145700,6.243145751953125,-0.5801200866699219,0.2624766230583191,-0.34503647685050964
1789453537737085700,6.253085693359375,-0.5266797542572021,0.2420714944601059,-0.19591358304023743
1789453537747025000,6.26302490234375,-0.41152817010879517,0.2517867088317871,-0.02093617431819439
1789453537756964600,6.272964599609375,-0.3190309703350067,0.3312956392765045,0.09002789109945297
1789453537766903600,6.282903564453125,-0.2540397346019745,0.40087205171585083,0.11775246262550354
1789453537776843800,6.29284375,-0.20343728363513947,0.27988359332084656,0.11569011211395264
1789453537786783700,6.30278369140625,-0.18995235860347748,0.2734834849834442,0.23193922638893127
1789453537796722700,6.31272265625,-0.14491111040115356,0.22938072681427002,0.3063333034515381
1789453537806663000,6.322662841796875,-0.12597018480300903,0.18365478515625,0.4267324209213257
1789453537816602600,6.3326025390625,-0.1308232545852661,0.23224416375160217,0.514653205871582
1789453537826541600,6.34254150390625,-0.12772972881793976,0.2715558707714081,0.5656322240829468
1789453537836481800,6.352481689453125,-0.11851546168327332,0.16509601473808289,0.6070894002914429
1789453537846421800,6.362421875,-0.07823222130537033,0.10280946642160416,0.6509372591972351
1789453537856360700,6.372360595703125,-0.028616197407245636,0.10498500615358353,0.7063384652137756
1789453537866301000,6.382301025390625,0.05988463759422302,0.055868592113256454,0.7837232947349548
1789453537876240000,6.392239990234375,0.14027614891529083,0.017174459993839264,0.837279200553894
1789453537886179600,6.4021796875,0.2094874382019043,0.012287558987736702,0.8992653489112854
1789453537896119800,6.412119873046875,0.29398953914642334,0.0033742249943315983,0.9236193895339966
1789453537906058800,6.422058837890625,0.4117199182510376,-0.022157233208417892,0.923583984375
1789453537915998700,6.431998779296875,0.5515257716178894,-0.037873610854148865,0.9371756911277771
1789453537925939000,6.44193896484375,0.6802917122840881,-0.014988803304731846,0.9314538836479187
1789453537935877000,6.451877197265625,0.7848879098892212,0.04059989005327225,0.9653050899505615
1789453537945817000,6.461817138671875,0.8877277374267578,0.13615144789218903,1.0115066766738892
1789453537955757000,6.471757080078125,1.0075204372406006,0.17370600998401642,1.0296475887298584
1789453537965696000,6.481696044921875,1.1258037090301514,0.20635344088077545,1.0466930866241455
1789453537975636000,6.491635986328125,1.2114930152893066,0.2641088664531708,1.077640175819397
1789453537985575200,6.5015751953125,1.2814552783966064,0.3814528286457062,1.0829278230667114
1789453537995515100,6.51151513671875,1.2933335304260254,0.4599289894104004,1.1076356172561646
1789453538005455000,6.521455078125,1.3133634328842163,0.4434669315814972,1.1197500228881836
1789453538015394300,6.531394287109375,1.3163398504257202,0.4602368474006653,1.0877572298049927
1789453538025334000,6.541333984375,1.3067090511322021,0.4519980847835541,1.0807301998138428
1789453538035274000,6.55127392578125,1.3196029663085938,0.42750659584999084,1.0789573192596436
1789453538045213200,6.561213134765625,1.3292516469955444,0.4208817183971405,1.0609549283981323
1789453538055153200,6.571153076171875,1.3277029991149902,0.4640241265296936,1.0731865167617798
1789453538065093000,6.581093017578125,1.3208743333816528,0.4897156357765198,1.0918723344802856
1789453538075032000,6.591031982421875,1.2721140384674072,0.46324941515922546,1.0558691024780273
1789453538084972000,6.600971923828125,1.1724447011947632,0.4150879979133606,1.025199294090271
1789453538094911000,6.610910888671875,1.0934712886810303,0.33935198187828064,1.0540817975997925
1789453538104851000,6.620850830078125,1.0646979808807373,0.23861044645309448,1.0483437776565552
1789453538114791200,6.630791259765625,1.0844624042510986,0.11950615793466568,1.010791301727295
1789453538124730000,6.640730224609375,1.118228554725647,0.07502949982881546,1.0203169584274292
1789453538134670000,6.650670166015625,1.183449625968933,0.059715792536735535,1.0684349536895752
1789453538144610000,6.660610107421875,1.2204103469848633,0.029022330418229103,1.0725665092468262
1789453538154549200,6.67054931640625,1.2118927240371704,-0.051535364240407944,1.0758006572723389
1789453538164489000,6.680489013671875,1.1761054992675781,-0.15395520627498627,1.0416051149368286
1789453538174429200,6.69042919921875,1.0900871753692627,-0.15124811232089996,1.0159025192260742
1789453538184368000,6.7003681640625,1.012481689453125,-0.11253692954778671,1.0609567165374756
1789453538194308000,6.71030810546875,1.0161945819854736,-0.11659905314445496,1.1046205759048462
1789453538204247000,6.7202470703125,1.03305184841156,-0.15334774553775787,1.0720405578613281
1789453538214187300,6.730187255859375,1.0267966985702515,-0.18354879319667816,1.028111219406128
1789453538224127000,6.740126953125,0.9935004711151123,-0.17123699188232422,1.0386615991592407
1789453538234066000,6.75006591796875,0.9320488572120667,-0.1368800848722458,1.04715895652771
1789453538244006100,6.760006103515625,0.8673697113990784,-0.10762419551610947,1.0302777290344238
1789453538253946000,6.769946044921875,0.8152311444282532,-0.09377043694257736,1.0347275733947754
1789453538263885000,6.779885009765625,0.7928020358085632,-0.1521538496017456,1.0606608390808105
1789453538273825300,6.7898251953125,0.7963136434555054,-0.19917967915534973,1.0461541414260864
1789453538283765000,6.799764892578125,0.7619088292121887,-0.1849605292081833,1.0141775608062744
1789453538293704000,6.809703857421875,0.7224586009979248,-0.12822002172470093,0.9654406309127808
1789453538303644200,6.81964404296875,0.6669042706489563,-0.06925417482852936,0.9478235244750977
1789453538313583000,6.8295830078125,0.6387389302253723,-0.04586336389183998,0.9429539442062378
1789453538323523000,6.839523193359375,0.6287246346473694,-0.010777812451124191,0.9227088689804077
1789453538333463300,6.84946337890625,0.5908206701278687,-0.007348726503551006,0.8893794417381287
1789453538343402200,6.85940234375,0.5208269357681274,-0.03486237674951553,0.8313376903533936
1789453538353342000,6.869342041015625,0.4221637547016144,-0.01865118183195591,0.7904595136642456
1789453538363282200,6.8792822265625,0.3352680206298828,0.026443058624863625,0.7319032549858093
1789453538373221000,6.88922119140625,0.3071011006832123,0.10564200580120087,0.6378875374794006
1789453538383161000,6.8991611328125,0.23321035504341125,0.12222870439291,0.5412768125534058
1789453538393101300,6.909101318359375,0.163741797208786,0.1387413740158081,0.4314081370830536
1789453538403040300,6.919040283203125,0.07353520393371582,0.15893904864788055,0.3116508424282074
1789453538412980000,6.92897998046875,-0.03502003476023674,0.21613682806491852,0.21279482543468475
1789453538422920200,6.938920166015625,-0.11021039634943008,0.20598459243774414,0.13477006554603577
1789453538432859100,6.948859130859375,-0.161500483751297,0.13306723535060883,0.06326179206371307
1789453538442799000,6.958799072265625,-0.20627674460411072,0.048702824860811234,-0.01661359705030918
1789453538452738000,6.968738037109375,-0.26506122946739197,-0.03169907256960869,-0.08701186627149582
1789453538462678300,6.97867822265625,-0.3115517497062683,-0.081619493663311,-0.13478577136993408
1789453538472618000,6.988617919921875,-0.38982072472572327,-0.06575185060501099,-0.1937023550271988
1789453538482557200,6.99855712890625,-0.4843840003013611,-0.01067767757922411,-0.2907133400440216
1789453538492497200,7.0084970703125,-0.5613656044006348,-0.028805015608668327,-0.4244202673435211
1789453538502437000,7.01843701171875,-0.643173098564148,-0.04722397029399872,-0.5489155650138855
1789453538512376000,7.0283759765625,-0.7144398093223572,-0.016759539023041725,-0.6378297209739685
1789453538522316300,7.03831640625,-0.7562932968139648,0.043288882821798325,-0.6899566054344177
1789453538532256000,7.048256103515625,-0.771976113319397,0.16477829217910767,-0.6832805871963501
1789453538542195200,7.0581953125,-0.7981269955635071,0.32494640350341797,-0.6210818886756897
1789453538552135200,7.06813525390625,-0.794994592666626,0.4410834014415741,-0.5786686539649963
1789453538562074000,7.07807421875,-0.8053087592124939,0.5193344950675964,-0.5717804431915283
1789453538572014000,7.08801416015625,-0.8344343900680542,0.5487693548202515,-0.568152129650116
1789453538581954000,7.0979541015625,-0.8504897952079773,0.5162641406059265,-0.5488767027854919
1789453538591893200,7.107893310546875,-0.8293387293815613,0.42041513323783875,-0.5014676451683044
1789453538601833200,7.117833251953125,-0.7791322469711304,0.36775511503219604,-0.4340073764324188
1789453538611773000,7.12777294921875,-0.7356375455856323,0.4093180000782013,-0.384608656167984
1789453538621712100,7.137712158203125,-0.7243731617927551,0.45655715465545654,-0.38167065382003784
1789453538631652000,7.147652099609375,-0.707725465297699,0.4306477904319763,-0.4356380105018616
1789453538641592000,7.157592041015625,-0.6635521650314331,0.4307636320590973,-0.47384268045425415
1789453538651531300,7.16753125,-0.5940747857093811,0.47783714532852173,-0.46643829345703125
1789453538661471200,7.17747119140625,-0.5188354253768921,0.5178931951522827,-0.43195512890815735
1789453538671411000,7.187410888671875,-0.44309699535369873,0.4541246294975281,-0.41564008593559265
1789453538681350100,7.19735009765625,-0.4036145806312561,0.3606031835079193,-0.41944679617881775
1789453538691290000,7.2072900390625,-0.40463271737098694,0.27941086888313293,-0.45659497380256653
1789453538701229000,7.21722900390625,-0.432985782623291,0.2256762683391571,-0.5022391676902771
1789453538711169000,7.2271689453125,-0.4535405933856964,0.23919473588466644,-0.5607154965400696
1789453538721109200,7.237109130859375,-0.4528529644012451,0.30704063177108765,-0.6228518486022949
1789453538731048200,7.247048095703125,-0.44424721598625183,0.368170827627182,-0.6808885335922241
1789453538740988000,7.25698779296875,-0.4404466152191162,0.374187171459198,-0.7264445424079895
1789453538750928100,7.26692822265625,-0.455855131149292,0.2914440929889679,-0.750237762928009
1789453538760867000,7.2768671875,-0.4652899205684662,0.17456647753715515,-0.7449148893356323
1789453538770807000,7.28680712890625,-0.48033198714256287,0.10024271160364151,-0.7393659353256226
1789453538780747300,7.296747314453125,-0.48286598920822144,0.036639504134655,-0.7337844967842102
1789453538790686200,7.306686279296875,-0.45075199007987976,-0.02514529973268509,-0.7397941946983337
1789453538800626000,7.3166259765625,-0.4650832712650299,-0.09164230525493622,-0.782899022102356
1789453538810566100,7.326566162109375,-0.5234062075614929,-0.1528284251689911,-0.8523297905921936
1789453538820505000,7.336505126953125,-0.6151263117790222,-0.18631048500537872,-0.9090583324432373
1789453538830445000,7.346445068359375,-0.7250453233718872,-0.1800009310245514,-0.941146731376648
1789453538840384000,7.356384033203125,-0.8055121898651123,-0.0907224491238594,-0.9326823949813843
1789453538850324200,7.36632421875,-0.8205151557922363,-0.028374383226037025,-0.9108895063400269
1789453538860264000,7.376263916015625,-0.8181659579277039,-0.039134085178375244,-0.9349415898323059
1789453538870203100,7.386203125,-0.7863001823425293,-0.13104963302612305,-0.9997383952140808
1789453538880143000,7.39614306640625,-0.7383861541748047,-0.2512820363044739,-1.0559841394424438
1789453538890083000,7.4060830078125,-0.6813125014305115,-0.3337300419807434,-1.099606990814209
1789453538900022000,7.41602197265625,-0.6201146841049194,-0.31323009729385376,-1.0962718725204468
1789453538909962200,7.425962158203125,-0.6117944121360779,-0.2727460563182831,-1.0913817882537842
1789453538919902200,7.435902099609375,-0.6526774168014526,-0.16201446950435638,-1.1261743307113647
1789453538929841200,7.445841064453125,-0.6954461932182312,-0.1574293076992035,-1.1520962715148926
1789453538939780900,7.45578076171875,-0.7609487175941467,-0.1758040487766266,-1.1738393306732178
1789453538949721000,7.46572119140625,-0.7874075174331665,-0.17292571067810059,-1.1724729537963867
1789453538959660000,7.475659912109375,-0.8039976954460144,-0.20837770402431488,-1.1540675163269043
1789453538969600000,7.48560009765625,-0.8069194555282593,-0.22055314481258392,-1.1484354734420776
1789453538979540200,7.495540283203125,-0.7714719772338867,-0.3149952292442322,-1.1559714078903198
1789453538989479200,7.505479248046875,-0.7503685355186462,-0.3410952687263489,-1.1227713823318481
1789453538999419000,7.5154189453125,-0.7404099106788635,-0.35535064339637756,-1.0783312320709229
1789453539009359000,7.525359130859375,-0.7811578512191772,-0.36787787079811096,-1.0523289442062378
1789453539019298000,7.535298095703125,-0.8030921816825867,-0.40669238567352295,-1.0576051473617554
1789453539029238000,7.545238037109375,-0.788862943649292,-0.5218509435653687,-1.063757061958313
1789453539039177000,7.555177001953125,-0.7768589854240417,-0.6464144587516785,-1.064565658569336
1789453539049117200,7.5651171875,-0.7498316168785095,-0.6951846480369568,-1.0464515686035156
1789453539059057000,7.575056884765625,-0.7426850199699402,-0.7360154390335083,-1.028343915939331
1789453539068995800,7.584995849609375,-0.7276384830474854,-0.7276666760444641,-1.0129586458206177
1789453539078936000,7.59493603515625,-0.7014731764793396,-0.7325735688209534,-0.9784501791000366
1789453539088876000,7.6048759765625,-0.6787185668945312,-0.6861802339553833,-0.9553976058959961
1789453539098815000,7.61481494140625,-0.6258828043937683,-0.6332371234893799,-0.9188227653503418
1789453539108755200,7.624755126953125,-0.5415135622024536,-0.6833388805389404,-0.8911283016204834
1789453539118695000,7.63469482421875,-0.5145597457885742,-0.6052464842796326,-0.8032677173614502
1789453539128633900,7.6446337890625,-0.49101686477661133,-0.39551296830177307,-0.6986100077629089
1789453539138574000,7.654573974609375,-0.3907938599586487,-0.37422579526901245,-0.6260297894477844
1789453539148514000,7.66451416015625,-0.358870267868042,-0.33427491784095764,-0.5132113695144653
1789453539158453000,7.674452880859375,-0.3560124337673187,-0.24143871665000916,-0.40863144397735596
1789453539168393200,7.684393310546875,-0.37222737073898315,-0.09435499459505081,-0.3073279857635498
1789453539178333000,7.6943330078125,-0.4207727909088135,0.04444735869765282,-0.3589981198310852
1789453539188271900,7.70427197265625,-0.4904312193393707,0.37458398938179016,-0.278507262468338
1789453539198212000,7.714212158203125,-0.40269550681114197,0.30070310831069946,-0.20490014553070068
1789453539208152000,7.724152099609375,-0.3496333658695221,0.4238700568675995,-0.005507949739694595
1789453539218091000,7.734091064453125,-0.24832992255687714,0.41074997186660767,0.09099169075489044
1789453539228031000,7.744031005859375,-0.14093820750713348,0.4606246054172516,0.1343679279088974
1789453539237971000,7.753970947265625,-0.017535317689180374,0.4235267639160156,0.07819120585918427
1789453539247910100,7.76391015625,0.035352133214473724,0.39374223351478577,0.10896217077970505
1789453539257849900,7.773849853515625,0.016339026391506195,0.37808579206466675,0.18486332893371582
1789453539267790000,7.7837900390625,-0.02484835870563984,0.27855387330055237,0.2135506272315979
1789453539277729000,7.79372900390625,-0.07512111216783524,0.2064540982246399,0.2689265310764313
1789453539287669000,7.8036689453125,-0.13172714412212372,0.24770887196063995,0.3618737757205963
1789453539297608200,7.813608154296875,-0.14708106219768524,0.2686208188533783,0.4626539349555969
1789453539307548200,7.823548095703125,-0.12309503555297852,0.2705545425415039,0.5322180986404419
1789453539317487900,7.83348779296875,-0.08869205415248871,0.19844704866409302,0.55948805809021
1789453539327426800,7.8434267578125,-0.056777793914079666,0.18437384068965912,0.6604173183441162
1789453539337367000,7.853366943359375,0.005201153457164764,0.062116365879774094,0.6401221752166748
1789453539347307000,7.86330712890625,0.06844697147607803,0.04974385350942612,0.6933526396751404
1789453539357246000,7.873245849609375,0.14785070717334747,0.06622322648763657,0.7807786464691162
1789453539367186200,7.883186279296875,0.2438155859708786,0.056942909955978394,0.834152102470398
1789453539377126000,7.8931259765625,0.33468344807624817,0.00452897185459733,0.8167571425437927
1789453539387064800,7.90306494140625,0.4303266108036041,-0.01145984884351492,0.8632556796073914
1789453539397005000,7.913005126953125,0.5390773415565491,0.045710496604442596,0.924179196357727
1789453539406945000,7.922945068359375,0.681500256061554,0.1694830358028412,1.0025662183761597
1789453539416884000,7.932884033203125,0.8201095461845398,0.2588459253311157,1.0087782144546509
1789453539426824200,7.94282421875,0.9597707390785217,0.39455610513687134,1.0251502990722656
1789453539436764000,7.952763916015625,1.0828570127487183,0.5204410552978516,1.0897111892700195
1789453539446702800,7.962702880859375,1.1913307905197144,0.6200200915336609,1.1458998918533325
1789453539456643000,7.97264306640625,1.2978752851486206,0.6456125378608704,1.1325234174728394
1789453539466583000,7.9825830078125,1.3533971309661865,0.6873610615730286,1.1452354192733765
1789453539476522000,7.99252197265625,1.3983672857284546,0.6700745224952698,1.115695595741272
1789453539486462200,8.002462158203125,1.4213727712631226,0.6288183927536011,1.0547577142715454
1789453539496402000,8.01240185546875,1.4482078552246094,0.6556191444396973,1.016522765159607
1789453539506340900,8.0223408203125,1.4925580024719238,0.6906630992889404,0.9774664044380188
1789453539516281000,8.032281005859375,1.5339453220367432,0.7002068161964417,0.9193903207778931
1789453539526221000,8.042220947265625,1.5496833324432373,0.6998206973075867,0.9185692667961121
1789453539536160000,8.052159912109374,1.5716557502746582,0.5927141904830933,0.8936130404472351
1789453539546100200,8.062100341796874,1.5772051811218262,0.46149811148643494,0.8286787867546082
1789453539556040000,8.0720400390625,1.5343395471572876,0.3614322245121002,0.7954606413841248
1789453539565979000,8.081978759765626,1.516769528388977,0.2891995906829834,0.7876560091972351
1789453539575918800,8.0919189453125,1.5153319835662842,0.25871625542640686,0.8082025647163391
1789453539585859000,8.101859130859374,1.5468281507492065,0.19598229229450226,0.8702203631401062
1789453539595798000,8.111798095703126,1.5496009588241577,0.07975208759307861,0.8754851818084717
1789453539605738000,8.121738037109376,1.5034977197647095,-0.008793225511908531,0.8732590079307556
1789453539615678000,8.131677978515626,1.4744471311569214,-0.05976426228880882,0.9041173458099365
1789453539625617200,8.1416171875,1.4317574501037598,-0.0670059323310852,0.9137678742408752
1789453539635556900,8.151556884765625,1.3837697505950928,-0.09909329563379288,0.9302754402160645
1789453539645497000,8.1614970703125,1.343726634979248,-0.16220249235630035,0.910576581954956
1789453539655436000,8.17143603515625,1.298598051071167,-0.19886036217212677,0.8678898215293884
1789453539665376000,8.1813759765625,1.2345203161239624,-0.2585170269012451,0.8672637343406677
1789453539675316000,8.19131591796875,1.1807223558425903,-0.3240843415260315,0.8952056169509888
1789453539685255200,8.201255126953125,1.1390552520751953,-0.3320189416408539,0.9099574089050293
1789453539695195000,8.21119482421875,1.1015430688858032,-0.3006807267665863,0.897655189037323
1789453539705135000,8.221135009765625,1.0570917129516602,-0.15475575625896454,0.9315282106399536
1789453539715074000,8.231073974609375,0.9993247985839844,-0.048050615936517715,1.0300990343093872
1789453539725014000,8.241013916015625,0.9840662479400635,-0.10101263225078583,1.0439878702163696
1789453539734954200,8.250954345703125,0.991873025894165,-0.2088506817817688,0.9459819793701172
1789453539744893200,8.26089306640625,0.9537325501441956,-0.22066712379455566,0.8547247648239136
1789453539754833000,8.2708330078125,0.8637204170227051,-0.15538452565670013,0.839144229888916
1789453539764771800,8.280771728515624,0.789090633392334,-0.09292727708816528,0.8327822089195251
1789453539774712000,8.290712158203124,0.7495432496070862,-0.06581682711839676,0.7805677056312561
1789453539784652000,8.300652099609374,0.7179019451141357,-0.1095571219921112,0.7141836285591125
1789453539794591000,8.310591064453124,0.6910860538482666,-0.12487056106328964,0.6960895657539368
1789453539804531200,8.32053125,0.5982239842414856,-0.08934132754802704,0.6729134321212769
1789453539814471000,8.330470947265624,0.5301887392997742,-0.09180129319429398,0.629120945930481
1789453539824409900,8.340409912109376,0.4287430942058563,-0.13208959996700287,0.5465514659881592
1789453539834350000,8.35035009765625,0.3623155951499939,-0.21214234828948975,0.4339999258518219
1789453539844290000,8.3602900390625,0.28093019127845764,-0.24061979353427887,0.32006189227104187
1789453539854229000,8.37022900390625,0.15759335458278656,-0.13267308473587036,0.21154527366161346
1789453539864169200,8.380169189453126,0.04343029856681824,-0.122311532497406,0.10311572998762131
1789453539874109000,8.39010888671875,-0.0640929639339447,-0.15403270721435547,-0.005724730901420116
1789453539884048000,8.4000478515625,-0.12596698105335236,-0.1868247389793396,-0.10179373621940613
1789453539893988000,8.409988037109375,-0.2074490636587143,-0.1792653650045395,-0.1605079174041748
1789453539903928000,8.419927978515625,-0.30725476145744324,-0.11472684890031815,-0.20599018037319183
1789453539913867000,8.429866943359375,-0.3951755464076996,-0.03904247283935547,-0.2624500095844269
1789453539923807200,8.43980712890625,-0.4897846281528473,0.028086496517062187,-0.34864720702171326
1789453539933747000,8.449746826171875,-0.5755128264427185,-0.008267783559858799,-0.43149760365486145
1789453539943686000,8.459685791015625,-0.6819804310798645,-0.04831559956073761,-0.4896695613861084
1789453539953626000,8.469626220703125,-0.734091579914093,-0.038185734301805496,-0.5010077357292175
1789453539963566000,8.479566162109375,-0.75531005859375,-0.008346080780029297,-0.4739505350589752
1789453539973505000,8.489505126953125,-0.7405398488044739,0.06508499383926392,-0.4508278965950012
1789453539983445200,8.4994453125,-0.7283654808998108,0.17480003833770752,-0.44399261474609375
1789453539993385000,8.509385009765625,-0.7247052788734436,0.2893833518028259,-0.4514918327331543
1789453540003324000,8.519323974609375,-0.7276656031608582,0.3984491229057312,-0.4490651488304138
1789453540013264100,8.52926416015625,-0.7080458402633667,0.41713225841522217,-0.42103004455566406
1789453540023204000,8.5392041015625,-0.6389421224594116,0.3976443111896515,-0.3733094036579132
1789453540033143000,8.54914306640625,-0.5680820941925049,0.36503762006759644,-0.3462330400943756
1789453540043083300,8.559083251953124,-0.5081010460853577,0.27373647689819336,-0.3818807899951935
1789453540053023000,8.56902294921875,-0.48152267932891846,0.19538015127182007,-0.44932854175567627
1789453540062962200,8.578962158203124,-0.44761744141578674,0.1732892245054245,-0.4836987555027008
1789453540072902100,8.588902099609374,-0.4268791675567627,0.19103945791721344,-0.5196990966796875
1789453540082842000,8.598842041015626,-0.4088386297225952,0.19197076559066772,-0.5692360401153564
1789453540092781000,8.608781005859376,-0.4077765643596649,0.17159199714660645,-0.6139257550239563
1789453540102721300,8.61872119140625,-0.4297415316104889,0.21118468046188354,-0.6486456394195557
1789453540112661200,8.6286611328125,-0.4536857306957245,0.2636620104312897,-0.6489095687866211
1789453540122600200,8.63860009765625,-0.4716889560222626,0.31530362367630005,-0.6333809494972229
1789453540132540200,8.6485400390625,-0.47986674308776855,0.3678070306777954,-0.6171777248382568
1789453540142480100,8.658480224609375,-0.5025967955589294,0.3884662389755249,-0.6376643776893616
1789453540152419000,8.668419189453125,-0.5189329385757446,0.3012421429157257,-0.6944884657859802
1789453540162359000,8.678359130859375,-0.543491780757904,0.17189240455627441,-0.7470030784606934
1789453540172299300,8.68829931640625,-0.5775320529937744,0.03548875078558922,-0.7862802147865295
1789453540182238200,8.69823828125,-0.6131704449653625,-0.09628685563802719,-0.7894237637519836
1789453540192178000,8.708177978515625,-0.6562300324440002,-0.16362062096595764,-0.7681264877319336
1789453540202118100,8.7181181640625,-0.6774197816848755,-0.12171871215105057,-0.7300635576248169
1789453540212057000,8.72805712890625,-0.6821713447570801,-0.04813077673316002,-0.709147036075592
1789453540221997000,8.7379970703125,-0.6821937561035156,-0.001472728094086051,-0.7294794917106628
1789453540231937300,8.747937255859375,-0.6913595199584961,0.010541058145463467,-0.7807447910308838
1789453540241876200,8.757876220703125,-0.682388424873352,-0.020807543769478798,-0.8496652841567993
1789453540251816000,8.76781591796875,-0.7189863920211792,-0.014012222178280354,-0.907817006111145
1789453540261756200,8.777756103515625,-0.7702317237854004,0.07425718754529953,-0.9388582706451416
1789453540271695000,8.787695068359374,-0.787738025188446,0.08603022247552872,-0.9530428051948547
1789453540281635000,8.797635009765624,-0.7951538562774658,0.04187527671456337,-0.9815178513526917
1789453540291575300,8.8075751953125,-0.8213702440261841,-0.040773261338472366,-1.009572982788086
1789453540301514200,8.81751416015625,-0.8403628468513489,-0.17977562546730042,-1.0096139907836914
1789453540311454000,8.827453857421874,-0.8445608019828796,-0.25463175773620605,-1.0143671035766602
1789453540321394200,8.837394287109374,-0.8659102916717529,-0.24919703602790833,-0.9926762580871582
1789453540331333000,8.8473330078125,-0.8659992814064026,-0.2667102515697479,-0.9677147269248962
1789453540341273000,8.857273193359376,-0.8316860198974609,-0.2603341042995453,-0.9755076169967651
1789453540351213300,8.86721337890625,-0.8284039497375488,-0.3100971579551697,-0.9762123227119446
1789453540361152300,8.87715234375,-0.8573157787322998,-0.40308061242103577,-0.99299156665802
1789453540371092000,8.887092041015626,-0.9207013845443726,-0.4173056185245514,-1.0011879205703735
1789453540381032200,8.8970322265625,-0.9545003771781921,-0.48668017983436584,-1.0056031942367554
1789453540390971100,8.90697119140625,-0.9788139462471008,-0.512255847454071,-1.0160489082336426
1789453540400911000,8.9169111328125,-0.9457079172134399,-0.5044205784797668,-1.0559202432632446
1789453540410851000,8.92685107421875,-0.8257067203521729,-0.6084878444671631,-1.09813392162323
1789453540420790300,8.936790283203125,-0.795141875743866,-0.6564364433288574,-1.1451808214187622
1789453540430730000,8.94672998046875,-0.8070517778396606,-0.6306522488594055,-1.1867538690567017
1789453540440670000,8.956669921875,-0.8161395788192749,-0.6711791753768921,-1.1767973899841309
1789453540450610200,8.966610107421875,-0.8205532431602478,-0.6684345006942749,-1.1346901655197144
1789453540460549000,8.976549072265625,-0.8106191158294678,-0.6038272976875305,-1.0757626295089722
1789453540470489000,8.986489013671875,-0.8076611161231995,-0.5881034731864929,-1.0267918109893799
1789453540480428300,8.99642822265625,-0.7885942459106445,-0.5612974166870117,-0.9899443984031677
1789453540490368000,9.006367919921875,-0.7763780355453491,-0.5827305316925049,-0.9852516055107117
1789453540500308000,9.016307861328125,-0.7823776006698608,-0.573821485042572,-0.9970382452011108
1789453540510248200,9.026248291015625,-0.7939106822013855,-0.5130249857902527,-0.9646643400192261
1789453540520187100,9.036187255859375,-0.7345269918441772,-0.5920422673225403,-0.9070465564727783
1789453540530127000,9.046127197265625,-0.7286919951438904,-0.48704394698143005,-0.8346735835075378
1789453540540067000,9.056067138671875,-0.6475374698638916,-0.5040125250816345,-0.8230230212211609
1789453540550006300,9.06600634765625,-0.5887205004692078,-0.527430534362793,-0.7813530564308167
1789453540559946000,9.075946044921874,-0.5851705074310303,-0.48811614513397217,-0.6819684505462646
1789453540569886200,9.08588623046875,-0.624626874923706,-0.29680103063583374,-0.49906280636787415
1789453540579825200,9.0958251953125,-0.5912065505981445,-0.3426883816719055,-0.4203123450279236
1789453540589765000,9.10576513671875,-0.5740267634391785,-0.21167230606079102,-0.30974745750427246
1789453540599705300,9.115705322265624,-0.5707468390464783,-0.0180000402033329,-0.2631229758262634
1789453540609644300,9.125644287109376,-0.6687101721763611,0.31684985756874084,-0.2316097915172577
1789453540619584000,9.135583984375,-0.699051558971405,0.48594939708709717,-0.27455779910087585
1789453540629524200,9.145524169921876,-0.5964058637619019,0.41164854168891907,-0.12246386706829071
1789453540639463200,9.155463134765625,-0.4758608043193817,0.4071051776409149,0.08100057393312454
1789453540649403100,9.165403076171875,-0.3466940224170685,0.4513791799545288,0.18708999454975128
1789453540659343000,9.175343017578125,-0.25034672021865845,0.5390035510063171,0.1706034243106842
1789453540669282300,9.1852822265625,-0.17729967832565308,0.5468289852142334,0.18042144179344177
1789453540679222000,9.195221923828125,-0.09547246247529984,0.3963145911693573,0.21871928870677948
1789453540689162000,9.205161865234375,-0.046178679913282394,0.3269885182380676,0.25874847173690796
1789453540699101200,9.21510107421875,-0.05583024397492409,0.31943604350090027,0.3032917082309723
1789453540709041200,9.225041259765625,-0.08691465854644775,0.29053995013237,0.37385934591293335
1789453540718981000,9.234981201171875,-0.08736500144004822,0.2583785653114319,0.42913326621055603
1789453540728920300,9.24492041015625,-0.04722902923822403,0.27447575330734253,0.4718239903450012
1789453540738860000,9.254860107421875,-0.007368167862296104,0.2812226116657257,0.505542516708374
1789453540748800000,9.264800048828125,0.06910023838281631,0.29261907935142517,0.6122854948043823
1789453540758739000,9.274739013671875,0.14516864717006683,0.29516905546188354,0.6926924586296082
1789453540768679200,9.28467919921875,0.2151687741279602,0.24694134294986725,0.7379614114761353
1789453540778619100,9.294619140625,0.2850690186023712,0.1786040961742401,0.8256984353065491
1789453540788558000,9.30455810546875,0.3724888861179352,0.10927029699087143,0.8862661719322205
1789453540798498000,9.314498046875,0.4793820381164551,0.09195495396852493,0.9351516962051392
1789453540808438000,9.32443798828125,0.6227365136146545,0.06041833758354187,1.003676176071167
1789453540818377000,9.334376953125,0.753070592880249,0.09708260744810104,1.0812127590179443
1789453540828317200,9.344317138671874,0.8686783909797668,0.1743968427181244,1.1477558612823486
1789453540838257200,9.354257080078124,0.9679355025291443,0.3060898780822754,1.2266032695770264
1789453540848196000,9.364196044921876,1.0055614709854126,0.45257997512817383,1.2806323766708374
1789453540858136000,9.374135986328126,1.0787121057510376,0.5185683369636536,1.3197078704833984
1789453540868076000,9.384075927734376,1.1529237031936646,0.6205500960350037,1.3651560544967651
1789453540878015000,9.394014892578125,1.1941494941711426,0.6525599360466003,1.3774476051330566
1789453540887955200,9.403955078125,1.2690013647079468,0.7050482034683228,1.359706163406372
1789453540897895200,9.413895263671876,1.3051025867462158,0.6931651830673218,1.3041713237762451
1789453540907834000,9.423834228515625,1.36837637424469,0.6437331438064575,1.27357816696167
1789453540917774000,9.433774169921875,1.4171236753463745,0.6269179582595825,1.216992974281311
1789453540927714000,9.443714111328125,1.4233983755111694,0.6507178544998169,1.1568961143493652
1789453540937653800,9.45365380859375,1.461773157119751,0.6125800609588623,1.09676992893219
1789453540947594000,9.463593994140625,1.4907933473587036,0.534682035446167,1.04386568069458
1789453540957534000,9.473533935546875,1.5008084774017334,0.4745723605155945,1.014494776725769
1789453540967473000,9.483472900390625,1.475746750831604,0.44491034746170044,0.9814305305480957
1789453540977412900,9.493412841796875,1.4338020086288452,0.3670738637447357,0.9368047118186951
1789453540987352800,9.503352783203125,1.399991512298584,0.261959433555603,0.887348473072052
1789453540997291800,9.513291748046875,1.39706552028656,0.20536726713180542,0.8784511089324951
1789453541007232000,9.52323193359375,1.4477864503860474,0.20979876816272736,0.9055546522140503
1789453541017172000,9.533171875,1.485897421836853,0.2020052969455719,0.9123507738113403
1789453541027111000,9.54311083984375,1.5241390466690063,0.15114104747772217,0.9411195516586304
1789453541037051000,9.55305078125,1.5474542379379272,0.08058352768421173,0.9866876006126404
1789453541046990800,9.562990966796875,1.50609290599823,0.05231034383177757,0.9996249675750732
1789453541056930800,9.572930908203125,1.3959076404571533,0.04308515414595604,1.0259695053100586
1789453541066870000,9.5828701171875,1.2727398872375488,0.048339568078517914,1.083846092224121
1789453541076810000,9.59281005859375,1.1999162435531616,0.026067819446325302,1.076022744178772
1789453541086749700,9.602749755859374,1.1495635509490967,-0.009697901085019112,1.0407735109329224
1789453541096688600,9.612688720703124,1.1204416751861572,-0.06499231606721878,1.0184231996536255
1789453541106628900,9.62262890625,1.081761360168457,-0.06392411887645721,1.000706434249878
1789453541116568800,9.63256884765625,1.032588243484497,-0.0367196649312973,1.0268267393112183
1789453541126507800,9.6425078125,0.9825165271759033,-0.10555412620306015,1.0429012775421143
1789453541136448000,9.652447998046876,0.939353883266449,-0.1269872486591339,1.0260086059570312
1789453541146387700,9.6623876953125,0.9009865522384644,-0.10351893305778503,0.9887627363204956
1789453541156326700,9.67232666015625,0.8387551307678223,-0.10529473423957825,0.932388424873352
1789453541166267000,9.682266845703126,0.7844687104225159,-0.1064702495932579,0.8985830545425415
1789453541176206800,9.692206787109376,0.7642092704772949,-0.1152629405260086,0.8786580562591553
1789453541186145800,9.702145751953125,0.7047480344772339,-0.043001528829336166,0.8310657739639282
1789453541196086000,9.7120859375,0.6580018401145935,-0.002115881536155939,0.7757969498634338
1789453541206025700,9.722025634765625,0.631433367729187,0.0002913498319685459,0.7018452286720276
1789453541215964700,9.731964599609375,0.5751162767410278,-0.002868224401026964,0.6154202818870544
1789453541225905000,9.74190478515625,0.5105317234992981,0.00711596617475152,0.5345256924629211
1789453541235844900,9.751844970703125,0.4526708126068115,-0.04754195362329483,0.44185516238212585
1789453541245783800,9.76178369140625,0.36429885029792786,-0.13234925270080566,0.3407256305217743
1789453541255724000,9.77172412109375,0.26647642254829407,-0.15503831207752228,0.2276480793952942
1789453541265663700,9.781663818359375,0.14900332689285278,-0.12679576873779297,0.12829884886741638
1789453541275603000,9.79160302734375,0.04442206025123596,-0.10540365427732468,0.03437555208802223
1789453541285543000,9.80154296875,-0.011998073197901249,-0.12789590656757355,-0.04355520009994507
1789453541295483000,9.81148291015625,-0.049673546105623245,-0.2093907743692398,-0.09327428787946701
1789453541305421800,9.821421875,-0.09272221475839615,-0.2773735523223877,-0.11800520122051239
1789453541315362000,9.831362060546875,-0.162920743227005,-0.30517110228538513,-0.11315425485372543
1789453541325301800,9.8413017578125,-0.28639155626296997,-0.2492431104183197,-0.12048540264368057
1789453541335241000,9.851240966796874,-0.3954474627971649,-0.12752759456634521,-0.17105749249458313
1789453541345180700,9.8611806640625,-0.48397040367126465,-0.02347150444984436,-0.2469799667596817
1789453541355121000,9.871120849609374,-0.5304401516914368,0.10265394300222397,-0.29642340540885925
1789453541365059800,9.881059814453126,-0.5296279191970825,0.22986382246017456,-0.3174820840358734
1789453541374999800,9.890999755859376,-0.5077313780784607,0.31108278036117554,-0.3209255635738373
1789453541384940000,9.90093994140625,-0.4854351282119751,0.35902419686317444,-0.31097573041915894
1789453541394879000,9.91087890625,-0.47060638666152954,0.3523958623409271,-0.3176112473011017
1789453541404818700,9.920818603515626,-0.45451265573501587,0.3100188374519348,-0.33971017599105835
1789453541414759000,9.930759033203126,-0.44095689058303833,0.24162141978740692,-0.3783068358898163
1789453541424697900,9.94069775390625,-0.4358382821083069,0.18213944137096405,-0.42778995633125305
1789453541434637800,9.950637939453125,-0.44054996967315674,0.09609377384185791,-0.4739374816417694
1789453541444578000,9.960578125,-0.4368060827255249,0.040038496255874634,-0.525566041469574
1789453541454517000,9.97051708984375,-0.45396989583969116,0.029075859114527702,-0.5746515989303589
1789453541464456700,9.980456787109375,-0.4506486654281616,0.06497447192668915,-0.6041939854621887
1789453541474397000,9.99039697265625,-0.45866185426712036,0.1237536296248436,-0.6029748320579529
1789453541484335900,10.0003359375,-0.4848497807979584,0.2334047555923462,-0.6005526781082153
1789453541494275800,10.01027587890625,-0.49920129776000977,0.3304165303707123,-0.6092380285263062
1789453541504216000,10.020216064453125,-0.5240839719772339,0.43750035762786865,-0.5962801575660706
1789453541514155800,10.03015576171875,-0.5707923769950867,0.5023174285888672,-0.6066646575927734
1789453541524094700,10.0400947265625,-0.6165766716003418,0.49742868542671204,-0.642795741558075
1789453541534035000,10.050034912109375,-0.6416449546813965,0.4200612008571625,-0.6814094185829163
1789453541543975000,10.059974853515625,-0.6528643369674683,0.3016112446784973,-0.7151407599449158
1789453541553913900,10.069913818359375,-0.6749739050865173,0.1948525756597519,-0.7572890520095825
1789453541563854000,10.07985400390625,-0.6949004530906677,0.11012303829193115,-0.7904256582260132
1789453541573793800,10.089793701171875,-0.7141085267066956,0.06480669230222702,-0.7965794205665588
1789453541583732700,10.099732666015624,-0.7327426671981812,0.057850781828165054,-0.7724080681800842
1789453541593672700,10.109672607421874,-0.7514811754226685,0.07263931632041931,-0.7386139035224915
1789453541603613000,10.119613037109374,-0.7679547071456909,0.11211668699979782,-0.7201299667358398
1789453541613551900,10.1295517578125,-0.7833150625228882,0.15902240574359894,-0.7161274552345276
1789453541623491800,10.139491943359374,-0.8289557695388794,0.19946756958961487,-0.7176713347434998
1789453541633431800,10.149431884765624,-0.8402627110481262,0.21225979924201965,-0.731400191783905
1789453541643370800,10.159370849609376,-0.8517609238624573,0.1963902860879898,-0.7590286135673523
1789453541653310700,10.169310791015626,-0.8491683602333069,0.18519409000873566,-0.7812113761901855
1789453541663251000,10.1792509765625,-0.8308852314949036,0.1784789264202118,-0.7953575849533081
1789453541673190000,10.18918994140625,-0.8190227150917053,0.14039306342601776,-0.8172284960746765
1789453541683129900,10.1991298828125,-0.8598214983940125,0.08558227866888046,-0.8409160375595093
1789453541693069800,10.20906982421875,-0.9162365794181824,0.0713956207036972,-0.8483667373657227
1789453541703008800,10.2190087890625,-0.9666464924812317,0.05576739087700844,-0.8264521360397339
1789453541712948700,10.22894873046875,-0.9905614256858826,0.04731478542089462,-0.8221260905265808
1789453541722889000,10.238888916015625,-0.9521506428718567,0.011985556222498417,-0.8468441963195801
1789453541732828000,10.248827880859375,-0.873894453048706,-0.1176145151257515,-0.8910161852836609
1789453541742767900,10.258767822265625,-0.8272385597229004,-0.23803573846817017,-0.9561786651611328
1789453541752707800,10.268707763671875,-0.8466487526893616,-0.2570331394672394,-1.0036543607711792
1789453541762647000,10.27864697265625,-0.8495816588401794,-0.3190094232559204,-0.9941966533660889
1789453541772586800,10.288586669921875,-0.8797726035118103,-0.2612156271934509,-0.9607667922973633
1789453541782527000,10.29852685546875,-0.8928748369216919,-0.19723078608512878,-0.9605705142021179
1789453541792466000,10.3084658203125,-0.8713160157203674,-0.2844248116016388,-1.016475796699524
1789453541802406000,10.318406005859375,-0.8600833415985107,-0.33051106333732605,-1.04268217086792
1789453541812345900,10.328345947265625,-0.8207084536552429,-0.3355138301849365,-1.0320923328399658
1789453541822285000,10.33828515625,-0.7717174887657166,-0.4021357297897339,-0.998755156993866
1789453541832224800,10.348224853515624,-0.7381832599639893,-0.43915820121765137,-1.0057950019836426
1789453541842164700,10.358164794921874,-0.7615261077880859,-0.4185434579849243,-1.0490412712097168
1789453541852104000,10.36810400390625,-0.7703641057014465,-0.36118215322494507,-1.102839708328247
1789453541862044000,10.3780439453125,-0.7645541429519653,-0.3678203523159027,-1.1100454330444336
1789453541871983900,10.38798388671875,-0.723333477973938,-0.41592076420783997,-1.0842485427856445
1789453541881923000,10.397923095703124,-0.7065547704696655,-0.5167451500892639,-1.0812662839889526
1789453541891862800,10.40786279296875,-0.6859333515167236,-0.615589439868927,-1.0888363122940063
1789453541901802800,10.417802734375,-0.6407408118247986,-0.6139771342277527,-1.0179344415664673
1789453541911742000,10.427741943359376,-0.5495185256004333,-0.6561850309371948,-0.9582881927490234
1789453541921682000,10.437681884765626,-0.539460301399231,-0.6190017461776733,-0.962498128414154
1789453541931622000,10.447621826171876,-0.6343772411346436,-0.3542347848415375,-0.9157007932662964
1789453541941560600,10.457560546875,-0.6138634085655212,-0.44608694314956665,-0.8825268149375916
1789453541951500500,10.46750048828125,-0.6130812764167786,-0.46127253770828247,-0.7560493350028992
1789453541961440500,10.4774404296875,-0.6184821128845215,-0.3605504631996155,-0.6315220594406128
1789453541971379500,10.48737939453125,-0.6445111036300659,-0.20387908816337585,-0.5242230296134949
1789453541981319700,10.497319580078125,-0.577418863773346,-0.22630317509174347,-0.5116704702377319
1789453541991259600,10.507259765625,-0.5052255988121033,-0.038596127182245255,-0.5414888262748718
1789453542001198600,10.517198486328125,-0.5299853086471558,0.2504793405532837,-0.4620930552482605
1789453542011138600,10.527138671875,-0.42838677763938904,0.19216997921466827,-0.4033021926879883
1789453542021078500,10.53707861328125,-0.37658190727233887,0.28863152861595154,-0.20266549289226532
1789453542031017500,10.547017578125,-0.3486594557762146,0.32522496581077576,-0.09233685582876205
1789453542040957700,10.556957763671875,-0.2839670181274414,0.3600204885005951,-0.034699391573667526
1789453542050897700,10.566897705078125,-0.23291048407554626,0.4080130457878113,0.0268302820622921
1789453542060837600,10.576837646484375,-0.1876915991306305,0.48246198892593384,0.08366400748491287
1789453542070776600,10.586776611328125,-0.06113499402999878,0.34802481532096863,0.0700395405292511
1789453542080716500,10.596716552734375,0.013307815417647362,0.3313233256340027,0.10262304544448853
1789453542090656500,10.606656494140625,0.0361044742166996,0.35586410760879517,0.1810302436351776
1789453542100595700,10.616595703125,0.0622418038547039,0.3054901361465454,0.23799152672290802
1789453542110535700,10.62653564453125,0.07719731330871582,0.25717827677726746,0.29260683059692383
1789453542120475600,10.6364755859375,0.09862910211086273,0.18127258121967316,0.3272891938686371
1789453542130414800,10.646414794921874,0.1328592449426651,0.07535494118928909,0.39070090651512146
1789453542140354600,10.6563544921875,0.17600750923156738,0.004453071393072605,0.4365626871585846
1789453542150294500,10.66629443359375,0.24874137341976166,-0.02191195636987686,0.4947042763233185
1789453542160233500,10.6762333984375,0.36302295327186584,-0.0039036613889038563,0.5646535158157349
1789453542170173700,10.686173583984376,0.47745364904403687,0.008531169965863228,0.6354347467422485
1789453542180113700,10.69611376953125,0.5745599269866943,0.055271245539188385,0.7106128931045532
1789453542190052600,10.706052490234375,0.6755081415176392,0.04688575118780136,0.7830886840820312
1789453542199992600,10.71599267578125,0.754784882068634,0.03875644877552986,0.8468460440635681
1789453542209932500,10.7259326171875,0.8299176692962646,0.06464477628469467,0.8886715769767761
1789453542219871500,10.73587158203125,0.8933496475219727,0.12324842810630798,0.9509660601615906
1789453542229811700,10.745811767578125,0.9770283102989197,0.23476004600524902,1.036181926727295
1789453542239751700,10.755751708984375,1.0858855247497559,0.3394148051738739,1.1117634773254395
1789453542249690600,10.765690673828125,1.1929068565368652,0.39489006996154785,1.1449073553085327
1789453542259630600,10.775630615234375,1.287226915359497,0.3795587718486786,1.1622170209884644
1789453542269569500,10.785569580078125,1.3528807163238525,0.3746899962425232,1.165374517440796
1789453542279509500,10.795509521484375,1.3891942501068115,0.3703186810016632,1.162964940071106
1789453542289449700,10.80544970703125,1.404398798942566,0.3865000307559967,1.1584290266036987
1789453542299388700,10.815388671875,1.4334267377853394,0.41747525334358215,1.1575613021850586
1789453542309328600,10.82532861328125,1.4750748872756958,0.47179096937179565,1.15394127368927
1789453542319268600,10.8352685546875,1.4862558841705322,0.5001078248023987,1.1339985132217407
1789453542329208600,10.84520849609375,1.5205446481704712,0.4461681544780731,1.110290765762329
1789453542339147500,10.8551474609375,1.5546234846115112,0.39408737421035767,1.0750610828399658
1789453542349087700,10.865087646484374,1.5503743886947632,0.3516403138637543,1.0017619132995605
1789453542359026700,10.875026611328124,1.513327956199646,0.3298671245574951,0.9336696267127991
1789453542368966700,10.884966552734374,1.4785656929016113,0.2676093280315399,0.8919680118560791
1789453542378906600,10.89490673828125,1.4783340692520142,0.1551339328289032,0.8548904061317444
1789453542388845600,10.904845458984376,1.4693104028701782,0.10212770104408264,0.8122614622116089
1789453542398785500,10.91478564453125,1.4548814296722412,0.02948811650276184,0.7942454218864441
1789453542408725500,10.9247255859375,1.431801438331604,-0.058282215148210526,0.7847323417663574
1789453542418665700,10.934665771484376,1.3990106582641602,-0.08442114293575287,0.7987760305404663
1789453542428604700,10.944604736328126,1.3840751647949219,-0.09023428708314896,0.8548296689987183
1789453542438544400,10.95454443359375,1.3778893947601318,-0.13993659615516663,0.9099113345146179
1789453542448483600,10.964483642578125,1.3757206201553345,-0.20164497196674347,0.9418995976448059
1789453542458423600,10.974423583984375,1.3556299209594727,-0.2455996423959732,0.9805306196212769
1789453542468363500,10.984363525390625,1.2637269496917725,-0.22229884564876556,1.0542263984680176
1789453542478302700,10.994302734375,1.1243640184402466,-0.18679171800613403,1.1567631959915161
1789453542488242700,11.00424267578125,0.9820419549942017,-0.15308941900730133,1.2104823589324951
1789453542498182700,11.0141826171875,0.9020144939422607,-0.10188402235507965,1.2091240882873535
1789453542508121900,11.024121826171875,0.9077997207641602,-0.11785046756267548,1.1332775354385376
1789453542518061600,11.0340615234375,0.919391930103302,-0.16546033322811127,1.0725902318954468
1789453542528001500,11.04400146484375,0.9302384257316589,-0.21010157465934753,1.0640274286270142
1789453542537940500,11.0539404296875,0.898635745048523,-0.269057035446167,1.058586597442627
1789453542547880700,11.063880615234375,0.8051716089248657,-0.2777317464351654,1.0334532260894775
1789453542557820700,11.073820556640625,0.7065967917442322,-0.17699740827083588,1.024080514907837
1789453542567759600,11.083759521484374,0.6222875118255615,-0.1102876216173172,0.9878551363945007
1789453542577699600,11.093699462890624,0.5501795411109924,-0.14993304014205933,0.8673004508018494
1789453542587639600,11.1036396484375,0.4771021008491516,-0.23339436948299408,0.7149903178215027
1789453542597578500,11.11357861328125,0.42414700984954834,-0.30332285165786743,0.6207671165466309
1789453542607518700,11.123518798828124,0.3637380003929138,-0.2980055809020996,0.5813512802124023
1789453542617458700,11.133458740234374,0.2949568033218384,-0.2560155391693115,0.5368914008140564
1789453542627397600,11.143397705078126,0.22315052151679993,-0.2683406472206116,0.42569243907928467
1789453542637337600,11.153337646484376,0.13941888511180878,-0.27859699726104736,0.27850058674812317
1789453542647277600,11.163277587890626,0.056472864001989365,-0.2879793345928192,0.13359268009662628
1789453542657216500,11.173216552734376,-0.021157748997211456,-0.3025188446044922,0.013011672534048557
1789453542667156700,11.18315673828125,-0.09001484513282776,-0.3101855516433716,-0.07221534103155136
1789453542677096700,11.1930966796875,-0.16306935250759125,-0.2832849621772766,-0.1312139481306076
1789453542687035600,11.20303564453125,-0.2456638216972351,-0.24663828313350677,-0.16783879697322845
1789453542696975600,11.2129755859375,-0.338058203458786,-0.19900311529636383,-0.2039070576429367
1789453542706915600,11.22291552734375,-0.425136923789978,-0.10864472389221191,-0.24576956033706665
1789453542716854500,11.2328544921875,-0.5094462037086487,-0.013909157365560532,-0.2903772294521332
1789453542726794800,11.242794677734375,-0.5803778767585754,0.06217122822999954,-0.3466343879699707
1789453542736734700,11.252734619140625,-0.624120831489563,0.10896856337785721,-0.4086061418056488
1789453542746673700,11.262673583984375,-0.6489545702934265,0.11850134283304214,-0.46807506680488586
1789453542756613600,11.272613525390625,-0.6379104256629944,0.09038209170103073,-0.5005770921707153
1789453542766553600,11.2825537109375,-0.6262263655662537,0.12861017882823944,-0.4773159623146057
1789453542776492500,11.292492431640625,-0.5978506207466125,0.23116503655910492,-0.40052399039268494
1789453542786432500,11.3024326171875,-0.5801699161529541,0.27607977390289307,-0.3498131334781647
1789453542796372700,11.312372802734375,-0.5756925940513611,0.26937368512153625,-0.3670829236507416
1789453542806311700,11.322311767578125,-0.5815531611442566,0.2503219544887543,-0.4070111811161041
1789453542816251400,11.33225146484375,-0.5731234550476074,0.20010273158550262,-0.4553781747817993
1789453542826191600,11.342191650390625,-0.5253878831863403,0.14615854620933533,-0.5000489950180054
1789453542836130600,11.352130615234374,-0.4819461405277252,0.1277497112751007,-0.5102121233940125
1789453542846070500,11.362070556640624,-0.4654443860054016,0.16135932505130768,-0.5148646831512451
1789453542856009700,11.372009765625,-0.49015453457832336,0.27059102058410645,-0.5293426513671875
1789453542865949700,11.38194970703125,-0.503596842288971,0.3802032470703125,-0.5404651165008545
1789453542875889700,11.3918896484375,-0.5412321090698242,0.4872799217700958,-0.5518820881843567
1789453542885828600,11.40182861328125,-0.5621709227561951,0.5494572520256042,-0.5698363184928894
1789453542895768600,11.4117685546875,-0.5952638983726501,0.5197680592536926,-0.605216920375824
1789453542905708500,11.42170849609375,-0.5979750156402588,0.44184237718582153,-0.6282690167427063
1789453542915647500,11.4316474609375,-0.619329571723938,0.3882148563861847,-0.6436580419540405
1789453542925587700,11.441587646484376,-0.6389027237892151,0.32553842663764954,-0.6756711006164551
1789453542935527400,11.45152734375,-0.643247127532959,0.2518332898616791,-0.7314883470535278
1789453542945466400,11.46146630859375,-0.6606040000915527,0.1754213571548462,-0.770861804485321
1789453542955406000,11.471406005859375,-0.6566300392150879,0.13517166674137115,-0.7619248032569885
1789453542965346300,11.48134619140625,-0.6561911702156067,0.1521594375371933,-0.7303383946418762
1789453542975285200,11.49128515625,-0.6773427724838257,0.1696590781211853,-0.7020678520202637
1789453542985225200,11.50122509765625,-0.7280078530311584,0.19748111069202423,-0.6922285556793213
1789453542995165400,11.51116552734375,-0.7487525343894958,0.1514102965593338,-0.6885126233100891
1789453543005104400,11.5211044921875,-0.7791258692741394,0.09028355777263641,-0.6883344650268555
1789453543015044000,11.531044189453125,-0.8041127324104309,0.054306380450725555,-0.7157237529754639
1789453543024984000,11.540984130859375,-0.8053069114685059,-0.02047145366668701,-0.7638548016548157
1789453543034923300,11.55092333984375,-0.8019446730613708,-0.12421862035989761,-0.8196187019348145
1789453543044863200,11.56086328125,-0.819645881652832,-0.17354142665863037,-0.875758945941925
1789453543054803200,11.57080322265625,-0.8603043556213379,-0.1540127396583557,-0.9110980033874512
1789453543064742400,11.580742431640624,-0.9537791609764099,-0.08926569670438766,-0.93336421251297
1789453543074682000,11.59068212890625,-1.020412564277649,-0.05330796167254448,-0.9408338069915771
1789453543084622000,11.6006220703125,-1.0581265687942505,-0.05987371876835823,-0.9429510235786438
1789453543094561300,11.610561279296874,-1.0557821989059448,-0.09525088220834732,-0.9502329230308533
1789453543104501200,11.620501220703124,-1.0221470594406128,-0.14460991322994232,-0.9554926753044128
1789453543114441200,11.630441162109374,-0.9596464037895203,-0.21214793622493744,-0.970587432384491
1789453543124380400,11.64038037109375,-0.8853649497032166,-0.218903049826622,-1.0140976905822754
1789453543134320400,11.6503203125,-0.8477941751480103,-0.2706559896469116,-1.0620862245559692
1789453543144260000,11.660260009765626,-0.8767946362495422,-0.2861928641796112,-1.0858397483825684
1789453543154199000,11.670198974609375,-0.9526596069335938,-0.260430246591568,-1.084299087524414
1789453543164139300,11.68013916015625,-0.9884101152420044,-0.264349102973938,-1.0709021091461182
1789453543174079200,11.690079345703126,-0.9626342058181763,-0.3679380714893341,-1.070259928703308
1789453543184018200,11.70001806640625,-0.9618855714797974,-0.43373334407806396,-1.0868536233901978
1789453543193958400,11.70995849609375,-0.9144400358200073,-0.551262617111206,-1.1136114597320557
1789453543203897300,11.7198974609375,-0.8943366408348083,-0.5611605048179626,-1.1102057695388794
1789453543213837000,11.729837158203125,-0.82831871509552,-0.6155361533164978,-1.1183180809020996
1789453543223777300,11.73977734375,-0.8131091594696045,-0.7273905277252197,-1.1618026494979858
1789453543233716200,11.74971630859375,-0.8445674777030945,-0.7502534985542297,-1.175323247909546
1789453543243656200,11.75965625,-0.8423352241516113,-0.7417148351669312,-1.1223647594451904
1789453543253596400,11.769596435546875,-0.8823723793029785,-0.6036331653594971,-1.0844874382019043
1789453543263535400,11.779535400390625,-0.821450412273407,-0.5512421131134033,-1.0116121768951416
1789453543273475000,11.78947509765625,-0.7548295855522156,-0.5411878824234009,-0.9241187572479248
1789453543283415300,11.799415283203125,-0.6549234986305237,-0.5412448644638062,-0.9494779109954834
1789453543293354200,11.809354248046875,-0.5943917036056519,-0.467320054769516,-0.9155218005180359
1789453543303294200,11.819294189453124,-0.5330958962440491,-0.41193243861198425,-0.8054858446121216
1789453543313234400,11.829234375,-0.5398637652397156,-0.3367295563220978,-0.6862968802452087
1789453543323173400,11.83917333984375,-0.6038041114807129,-0.23069526255130768,-0.5989965796470642
1789453543333113000,11.849113037109374,-0.570395290851593,-0.30090099573135376,-0.6090569496154785
1789453543343053300,11.85905322265625,-0.5894312858581543,-0.2832511365413666,-0.5802527070045471
1789453543352992300,11.8689921875,-0.5636561512947083,-0.16241075098514557,-0.5120419859886169
1789453543362932200,11.87893212890625,-0.5187597870826721,0.07653099298477173,-0.44775861501693726
1789453543372872400,11.88887255859375,-0.38881006836891174,0.05272206664085388,-0.43368327617645264
1789453543382811400,11.898811279296876,-0.3554060459136963,0.28216829895973206,-0.28724056482315063
1789453543392751000,11.908751220703126,-0.3368339538574219,0.42057090997695923,-0.13026240468025208
1789453543402691000,11.918691162109376,-0.35653096437454224,0.5940297842025757,0.07755924016237259
1789453543412630300,11.92863037109375,-0.2715438902378082,0.4428916871547699,0.09347162395715714
1789453543422570200,11.9385703125,-0.23284310102462769,0.41270288825035095,0.1716838777065277
1789453543432510200,11.94851025390625,-0.19877035915851593,0.37461355328559875,0.17083992063999176
1789453543442449400,11.958449462890625,-0.1419968158006668,0.32822367548942566,0.21302226185798645
1789453543452389000,11.96838916015625,-0.05896451696753502,0.22588452696800232,0.23420557379722595
1789453543462329000,11.9783291015625,-0.013617807999253273,0.1831977814435959,0.25559714436531067
1789453543472268300,11.988268310546875,0.025770876556634903,0.17665866017341614,0.30237263441085815
1789453543482208300,11.998208251953125,0.0708928182721138,0.16883935034275055,0.35032179951667786
1789453543492147200,12.008147216796875,0.1176195740699768,0.17583175003528595,0.4053690731525421
1789453543502087400,12.01808740234375,0.16555434465408325,0.19958767294883728,0.47862064838409424
1789453543512027100,12.028027099609375,0.23484580218791962,0.19367332756519318,0.5534541606903076
1789453543521966300,12.03796630859375,0.3210451304912567,0.1794227510690689,0.6126967072486877
1789453543531906000,12.047906005859375,0.43075963854789734,0.16457296907901764,0.6565336585044861
1789453543541846300,12.05784619140625,0.5501824617385864,0.17477953433990479,0.7166707515716553
1789453543551785200,12.06778515625,0.6629071235656738,0.19359903037548065,0.7679174542427063
1789453543561725200,12.07772509765625,0.7765508890151978,0.17621125280857086,0.8298710584640503
1789453543571665400,12.08766552734375,0.8820690512657166,0.14643977582454681,0.8908713459968567
1789453543581604400,12.097604248046874,0.9675309658050537,0.1709083616733551,0.9520214796066284
1789453543591544000,12.1075439453125,1.052607536315918,0.2349720299243927,1.0224591493606567
1789453543601484300,12.117484375,1.1163909435272217,0.3304618000984192,1.1372663974761963
1789453543611423200,12.12742333984375,1.1721391677856445,0.3757307529449463,1.2185556888580322
1789453543621363200,12.13736328125,1.2364041805267334,0.4091654121875763,1.2585768699645996
1789453543631303400,12.147303466796876,1.2567081451416016,0.42487671971321106,1.2563244104385376
1789453543641242400,12.157242431640626,1.2879960536956787,0.44916608929634094,1.2681206464767456
1789453543651182000,12.16718212890625,1.360227346420288,0.47408315539360046,1.3035502433776855
1789453543661122300,12.177122314453126,1.4104995727539062,0.4932507276535034,1.281989336013794
1789453543671061200,12.187061279296875,1.4162496328353882,0.44425466656684875,1.222449779510498
1789453543681001200,12.197001220703125,1.4127382040023804,0.4014241397380829,1.2156262397766113
1789453543690941400,12.20694140625,1.4210898876190186,0.3337950110435486,1.2433124780654907
1789453543700880400,12.21688037109375,1.4478272199630737,0.29810813069343567,1.2330800294876099
1789453543710820000,12.226820068359375,1.4347732067108154,0.3041897118091583,1.218939185142517
1789453543720760300,12.23676025390625,1.421880841255188,0.2770947217941284,1.2025525569915771
1789453543730699300,12.24669921875,1.4043599367141724,0.25433987379074097,1.1959688663482666
1789453543740639200,12.25663916015625,1.3584755659103394,0.2194545865058899,1.196750521659851
1789453543750578200,12.266578125,1.3327933549880981,0.07971160858869553,1.1656051874160767
1789453543760518400,12.276518310546875,1.331333875656128,0.002168345730751753,1.1330876350402832
1789453543770458000,12.2864580078125,1.3381292819976807,-0.07145340740680695,1.0874751806259155
1789453543780397000,12.29639697265625,1.313684105873108,-0.049913495779037476,1.0502644777297974
1789453543790337300,12.306337158203124,1.3209209442138672,-0.016101205721497536,1.0405467748641968
1789453543800277200,12.31627734375,1.3221627473831177,-0.008196144364774227,1.0083060264587402
1789453543810216200,12.32621630859375,1.312182903289795,-0.025133581832051277,1.0104080438613892
1789453543820156400,12.336156494140624,1.2997674942016602,0.02070288173854351,1.057787299156189
1789453543830096100,12.34609619140625,1.2372335195541382,0.05438920482993126,1.0901639461517334
1789453543840035300,12.356035400390626,1.1102111339569092,0.0692959800362587,1.093498706817627
1789453543849975300,12.365975341796876,0.9807194471359253,0.07608544826507568,1.095598578453064
1789453543859915300,12.375915283203126,0.9365349411964417,0.03747014328837395,1.0572820901870728
1789453543869854200,12.385854248046876,1.0055720806121826,-0.01252058520913124,0.9377184510231018
