time,seconds_elapsed,z,y,x
1789033866714703400,0.059703369140625,0,0,0
1789033866724628700,0.069628662109375,-0.050701141357421875,0.027019739151000977,-0.038672685623168945
1789033866734553900,0.079553955078125,-0.14987468719482422,-0.009949207305908203,-0.1023334264755249
1789033866744479200,0.089479248046875,-0.18833637237548828,-0.026751279830932617,-0.021749496459960938
1789033866754404400,0.099404296875,-0.06634902954101562,-0.022493839263916016,0.14254355430603027
1789033866764329700,0.109329833984375,0.12076282501220703,-0.14075088500976562,0.30225658416748047
1789033866774254800,0.1192548828125,0.34528255462646484,-0.11971879005432129,0.38165509700775146
1789033866784180200,0.12918017578125,0.44317054748535156,0.22841596603393555,0.596168041229248
1789033866794105300,0.139105224609375,0.3880577087402344,0.3981623649597168,0.4664268493652344
1789033866804030700,0.14903076171875,0.3609485626220703,0.3439159393310547,0.09642422199249268
1789033866813955800,0.158955810546875,0.3760185241699219,0.2975428104400635,0.05311882495880127
1789033866823881200,0.168881103515625,0.19989013671875,0.316117525100708,0.030576705932617188
1789033866833806300,0.178806396484375,-0.012126922607421875,0.2717289924621582,0.03644239902496338
1789033866843731700,0.188731689453125,-0.2057809829711914,0.12782859802246094,-0.01814436912536621
1789033866853656800,0.19865673828125,-0.46237850189208984,0.0865776538848877,-0.09439146518707275
1789033866863582000,0.20858203125,-0.7038431167602539,0.11920976638793945,-0.15383756160736084
1789033866873507300,0.21850732421875,-0.79669189453125,0.15039873123168945,-0.2814357280731201
1789033866883432700,0.2284326171875,-0.6487588882446289,0.08511590957641602,-0.04826200008392334
1789033866893357800,0.23835791015625,-0.2827186584472656,-0.1197500228881836,0.4059940576553345
1789033866903283000,0.248282958984375,0.20460891723632812,-0.3024866580963135,0.8997083902359009
1789033866913208300,0.258208251953125,0.6373023986816406,-0.5034668445587158,1.310393214225769
1789033866923133400,0.268133544921875,0.7112302780151367,-0.5422372817993164,1.409558892250061
1789033866933058800,0.278058837890625,0.40764904022216797,-0.9854230880737305,1.252429485321045
1789033866942984000,0.28798388671875,-0.3905220031738281,-1.2142860889434814,1.1409318447113037
1789033866952909300,0.297909423828125,-0.9341421127319336,-0.9397850036621094,0.9767426252365112
1789033866962834400,0.30783447265625,-1.6775360107421875,-0.6661181449890137,0.7470091581344604
1789033866972759800,0.317759765625,-2.2024946212768555,-0.6619386672973633,0.511549711227417
1789033866982685000,0.327684814453125,-2.319852828979492,-0.9186079502105713,0.13903045654296875
1789033866992610300,0.3376103515625,-2.3114852905273438,-1.01222562789917,0.2362520694732666
1789033867002535400,0.347535400390625,-2.348626136779785,-1.0686264038085938,0.5789836645126343
1789033867012460800,0.357460693359375,-2.374734401702881,-1.1261541843414307,1.04574453830719
1789033867022386000,0.367385986328125,-2.477044105529785,-0.9722476005554199,1.5962724685668945
1789033867032311000,0.37731103515625,-2.3783798217773438,-0.9733831882476807,2.0882701873779297
1789033867042236400,0.387236328125,-2.1688461303710938,-1.0119209289550781,2.346616506576538
1789033867052161500,0.39716162109375,-1.9871549606323242,-1.038879156112671,2.370265483856201
1789033867062087000,0.4070869140625,-1.7350730895996094,-0.9893560409545898,2.166808605194092
1789033867072012000,0.417011962890625,-1.4865074157714844,-1.0107221603393555,1.7042279243469238
1789033867081937400,0.4269375,-1.1595048904418945,-0.9684755802154541,1.1485120058059692
1789033867091862500,0.436862548828125,-0.84918212890625,-0.8496057987213135,0.5908750295639038
1789033867101788000,0.446787841796875,-0.7578773498535156,-0.8676447868347168,0.12655389308929443
1789033867111713000,0.456713134765625,-0.9081268310546875,-0.8171203136444092,-0.14075422286987305
1789033867121638400,0.466638427734375,-1.0510683059692383,-0.6969923973083496,-0.3676713705062866
1789033867131563500,0.4765634765625,-1.2787508964538574,-0.6413311958312988,-0.7379467487335205
1789033867141489000,0.486489013671875,-1.4922561645507812,-0.5508444309234619,-1.2094441652297974
1789033867151414000,0.4964140625,-1.7177162170410156,-0.42642664909362793,-1.651354432106018
1789033867161339100,0.506339111328125,-1.6533222198486328,-0.40556907653808594,-1.4480606317520142
1789033867171264500,0.516264404296875,-1.1558856964111328,-0.36382174491882324,-0.48739588260650635
1789033867181190000,0.52618994140625,-0.3277292251586914,-0.46407532691955566,-0.06566178798675537
1789033867191115000,0.536114990234375,0.6669826507568359,-0.5690181255340576,-0.25412213802337646
1789033867201040100,0.5460400390625,0.7414131164550781,-0.5839114189147949,-0.06404578685760498
1789033867210965500,0.555965576171875,0.41005802154541016,-0.6079063415527344,-0.13097000122070312
1789033867220890600,0.565890625,0.2981843948364258,-0.5487744808197021,-0.46373260021209717
1789033867230816000,0.57581591796875,0.14016246795654297,-0.46859145164489746,-1.3357868194580078
1789033867240741000,0.5857412109375,1.0995168685913086,-0.5966472625732422,-2.8664348125457764
1789033867250666500,0.59566650390625,2.058962821960449,-0.9048616886138916,-3.3353331089019775
1789033867260591600,0.605591552734375,2.1283740997314453,-0.6582014560699463,-3.299247980117798
1789033867270516700,0.615516845703125,1.7534008026123047,-0.6993734836578369,-2.607896566390991
1789033867280442000,0.625442138671875,0.7829904556274414,-1.5661506652832031,-0.07666701078414917
1789033867290367500,0.635367431640625,0.3908367156982422,-0.606475830078125,2.2553000450134277
1789033867300292600,0.645292724609375,-0.123931884765625,-0.21573996543884277,3.0961952209472656
1789033867310217700,0.6552177734375,-3.5524091720581055,0.7232954502105713,1.6638072729110718
1789033867320143000,0.66514306640625,-5.508277893066406,6.100153923034668,-7.4390740394592285
1789033867330068200,0.675068115234375,5.853604316711426,0.9448151588439941,-7.215338706970215
1789033867339993600,0.68499365234375,4.046720504760742,-0.782952070236206,-4.7070698738098145
1789033867349918700,0.694918701171875,2.934391975402832,-1.1609723567962646,-2.3840689659118652
1789033867359844000,0.704843994140625,1.8047008514404297,0.24137210845947266,-1.589371919631958
1789033867369769200,0.714769287109375,1.719954490661621,0.9612894058227539,-2.4462170600891113
1789033867379694300,0.7246943359375,0.8255205154418945,0.12566280364990234,-2.684056282043457
1789033867389619700,0.73461962890625,0.36441612243652344,-0.9237980842590332,-2.6793053150177
1789033867399545000,0.744545166015625,1.6157102584838867,-1.1814358234405518,-2.498307466506958
1789033867409470200,0.75447021484375,2.6162805557250977,-0.3306851387023926,-0.586990237236023
1789033867419395300,0.764395263671875,2.5663633346557617,0.7251455783843994,1.7251847982406616
1789033867429320700,0.77432080078125,2.142714500427246,1.8904170989990234,1.2140218019485474
1789033867439245800,0.784245849609375,-0.1930074691772461,3.131984233856201,0.3617885708808899
1789033867449171200,0.794171142578125,-2.485179901123047,1.3080565929412842,-0.12291260808706284
1789033867459096300,0.804096435546875,-2.5851097106933594,1.3079144954681396,-0.23382744193077087
1789033867469021700,0.814021728515625,-0.3969755172729492,1.170414924621582,0.8383411169052124
1789033867478946800,0.82394677734375,0.07435989379882812,0.7383520603179932,1.334787130355835
1789033867488872200,0.8338720703125,0.4844036102294922,0.7166991233825684,0.31856769323349
1789033867498797300,0.84379736328125,1.8036022186279297,0.6297004222869873,-0.7633876204490662
1789033867508722700,0.85372265625,2.0843238830566406,-0.06819438934326172,-0.7602463364601135
1789033867518647800,0.863647705078125,1.309605598449707,-0.8662419319152832,-0.49437999725341797
1789033867528573000,0.873572998046875,1.1082229614257812,-0.6902608871459961,-0.6431406736373901
1789033867538498300,0.883498291015625,0.35167503356933594,-0.6968863010406494,-0.8090118169784546
1789033867548423400,0.89342333984375,-0.7518119812011719,-0.6658535003662109,-1.2537806034088135
1789033867558348800,0.903348876953125,-1.9093704223632812,-0.6618766784667969,-1.835539698600769
1789033867568274000,0.91327392578125,-2.5225353240966797,-0.7720394134521484,-2.2211596965789795
1789033867578199000,0.923198974609375,-2.3955163955688477,-0.7759521007537842,-2.0365939140319824
1789033867588124400,0.93312451171875,-1.6093769073486328,-0.5456197261810303,-1.2423582077026367
1789033867598049800,0.9430498046875,-0.6751527786254883,-0.18599486351013184,-0.302958607673645
1789033867607975000,0.952974853515625,-0.2198009490966797,0.1283562183380127,0.21937358379364014
1789033867617900300,0.962900390625,0.2596931457519531,0.38574719429016113,0.6471638679504395
1789033867627825400,0.972825439453125,0.17745113372802734,0.29944849014282227,0.7543817162513733
1789033867637750500,0.98275048828125,0.18847370147705078,0.014007329940795898,0.13758406043052673
1789033867647676000,0.992676025390625,1.2187700271606445,-0.3719024658203125,-0.5134984850883484
1789033867657601000,1.00260107421875,-1.1915578842163086,-0.6116876602172852,-0.5007144808769226
1789033867667526400,1.0125263671875,-0.7150564193725586,-0.2669510841369629,-0.7155765295028687
1789033867677451500,1.022451416015625,0.19032859802246094,-0.17287039756774902,0.17323055863380432
1789033867687376600,1.032376708984375,0.9420576095581055,0.17568230628967285,1.5992003679275513
1789033867697302000,1.042302001953125,0.7544460296630859,0.6941037178039551,1.8367211818695068
1789033867707227400,1.052227294921875,0.4529123306274414,0.8486175537109375,1.6918625831604004
1789033867717152500,1.062152587890625,-0.21535587310791016,0.7106454372406006,1.2985877990722656
1789033867727077600,1.07207763671875,-1.0343046188354492,0.7209444046020508,0.6489616632461548
1789033867737003000,1.0820029296875,-1.4953489303588867,0.5155985355377197,0.07268548011779785
1789033867746928000,1.09192822265625,-1.582559585571289,0.26198768615722656,-0.06941676139831543
1789033867756853500,1.101853515625,-1.6587095260620117,0.21990966796875,0.2569919228553772
1789033867766778600,1.111778564453125,-1.62626314163208,0.36434197425842285,0.4140509366989136
1789033867776704000,1.1217041015625,-0.8522567749023438,0.36182284355163574,0.3548543453216553
1789033867786629000,1.131629150390625,0.3027687072753906,0.28896546363830566,0.7810525894165039
1789033867796554200,1.14155419921875,1.0130529403686523,0.2828972339630127,1.5746487379074097
1789033867806479600,1.151479736328125,1.612630844116211,0.41094326972961426,2.0012786388397217
1789033867816405000,1.161405029296875,1.8813743591308594,0.6564147472381592,2.4047627449035645
1789033867826330000,1.171330078125,1.801823616027832,0.7276513576507568,2.288620948791504
1789033867836255200,1.181255126953125,1.6089372634887695,0.598522424697876,1.8811421394348145
1789033867846180600,1.1911806640625,1.534651756286621,0.5409085750579834,1.592427134513855
1789033867856105700,1.201105712890625,1.508500099182129,0.3499009609222412,1.2892106771469116
1789033867866031000,1.211031005859375,1.2707929611206055,-0.11754179000854492,0.8290226459503174
1789033867875956200,1.220956298828125,1.003183364868164,-0.2755739688873291,0.3545478582382202
1789033867885881300,1.23088134765625,0.7546062469482422,-0.15512967109680176,0.3241887092590332
1789033867895806700,1.240806640625,0.7630891799926758,-0.330456018447876,0.46202945709228516
1789033867905731800,1.25073193359375,0.9306392669677734,-0.1717214584350586,0.3350396156311035
1789033867915657200,1.2606572265625,0.7755203247070312,0.07762503623962402,0.40017664432525635
1789033867925582300,1.270582275390625,0.356658935546875,0.08010172843933105,0.5405433177947998
1789033867935507700,1.2805078125,0.13184165954589844,-0.031108379364013672,0.44135332107543945
1789033867945432800,1.290432861328125,0.04855060577392578,-0.04988574981689453,0.3913397789001465
1789033867955358200,1.300358154296875,0.35875892639160156,-0.18713927268981934,0.26932990550994873
1789033867965283300,1.310283447265625,0.70477294921875,-0.304546594619751,0.5523747205734253
1789033867975208700,1.320208740234375,0.8189706802368164,-0.03097820281982422,0.5579932928085327
1789033867985133800,1.3301337890625,0.7383766174316406,-0.21326255798339844,0.3079565763473511
1789033867995059000,1.340058837890625,0.9123744964599609,-0.8913246393203735,-0.0708996057510376
1789033868004984300,1.349984375,0.9708795547485352,-1.3443951606750488,-0.13342797756195068
1789033868014909400,1.359909423828125,0.6942863464355469,-1.2317639589309692,0.21122443675994873
1789033868024834800,1.369834716796875,0.0050220489501953125,-1.0531656742095947,-0.344562292098999
1789033868034760000,1.379760009765625,-0.9632673263549805,-0.8115112781524658,-0.2704709768295288
1789033868044685300,1.389685302734375,-1.8263039588928223,-0.626823902130127,-0.3174152374267578
1789033868054610400,1.3996103515625,-2.1520261764526367,-0.6249926090240479,-0.30085015296936035
1789033868064535800,1.409535888671875,-2.029155731201172,-0.549081563949585,-0.05162918567657471
1789033868074461000,1.4194609375,-1.9181089401245117,-0.461597204208374,0.05254471302032471
1789033868084386000,1.429385986328125,-2.354848861694336,-0.6207983493804932,-0.1315627098083496
1789033868094311400,1.4393115234375,-2.8209362030029297,-0.7971959114074707,-0.30212652683258057
1789033868104236500,1.449236572265625,-2.971590518951416,-0.9224536418914795,-0.19167327880859375
1789033868114162000,1.459161865234375,-2.780216693878174,-0.923820972442627,-0.1393817663192749
1789033868124087000,1.469087158203125,-2.7058753967285156,-1.1251251697540283,-0.11038422584533691
1789033868134012200,1.47901220703125,-2.6459293365478516,-1.431154727935791,-0.1157982349395752
1789033868143937500,1.4889375,-2.732487678527832,-1.7197473049163818,0.0714881420135498
1789033868153863000,1.49886279296875,-3.1055822372436523,-2.535571813583374,-0.2929348945617676
1789033868163788000,1.5087880859375,-3.72706937789917,-3.0566539764404297,-0.680955171585083
1789033868173713200,1.518713134765625,-4.525952339172363,-3.5278897285461426,-0.15590906143188477
1789033868183638500,1.528638427734375,-5.1473917961120605,-3.9197840690612793,-0.08105325698852539
1789033868193563600,1.538563720703125,-5.2520623207092285,-5.135992050170898,-0.320662260055542
1789033868203489000,1.548489013671875,-4.8052897453308105,-4.83246374130249,-0.30163097381591797
1789033868213414100,1.5584140625,-5.621103286743164,-3.6853442192077637,-0.6129465103149414
1789033868223339500,1.568339599609375,-5.922987937927246,-3.975618839263916,-0.5001788139343262
1789033868233264600,1.5782646484375,-4.715441703796387,-5.090250015258789,-1.5121145248413086
1789033868243189800,1.588189697265625,-4.006011962890625,-6.722450256347656,-2.8603103160858154
1789033868253115100,1.598115234375,-3.746927261352539,-7.464845657348633,-3.1503567695617676
1789033868263040500,1.60804052734375,-3.603964328765869,-7.46835994720459,-1.8829379081726074
1789033868272965600,1.617965576171875,-2.5178675651550293,-6.517476558685303,-2.6899046897888184
1789033868282890800,1.627890869140625,-1.2907140254974365,-7.733462333679199,-2.8534908294677734
1789033868292816100,1.637816162109375,-0.9383325576782227,-8.22092056274414,-2.095824718475342
1789033868302741200,1.6477412109375,-1.2422499656677246,-7.79362154006958,-2.102067470550537
1789033868312666600,1.65766650390625,-1.5715711116790771,-8.036019325256348,-1.9484686851501465
1789033868322591700,1.667591796875,-0.7503566741943359,-8.374114036560059,-1.2813587188720703
1789033868332516900,1.677516845703125,0.9191858768463135,-8.015594482421875,0.17267704010009766
1789033868342442200,1.687442138671875,2.5451691150665283,-7.486173629760742,1.1976346969604492
1789033868352367400,1.697367431640625,4.085901737213135,-7.000397205352783,2.7645463943481445
1789033868362292700,1.707292724609375,5.580612659454346,-5.503338813781738,4.856044769287109
1789033868372217900,1.7172177734375,6.409965991973877,-4.162353515625,5.920327186584473
1789033868382143200,1.727143310546875,5.834670066833496,-3.1708834171295166,8.37736701965332
1789033868392068400,1.737068359375,4.068127155303955,-1.9037730693817139,9.374612808227539
1789033868401993700,1.74699365234375,2.411956310272217,-1.2159206867218018,10.404273986816406
1789033868411918800,1.7569189453125,1.77897310256958,-1.0007717609405518,11.585977554321289
1789033868421844000,1.766843994140625,1.1664314270019531,0.24922609329223633,13.084512710571289
1789033868431769300,1.776769287109375,2.190707206726074,0.9613072872161865,13.269440650939941
1789033868441694500,1.786694580078125,4.328017711639404,2.0662841796875,13.445493698120117
1789033868451619800,1.796619873046875,5.943856239318848,3.091113805770874,13.72796630859375
1789033868461545000,1.806544921875,6.830992221832275,2.891115188598633,13.716622352600098
1789033868471470300,1.81647021484375,6.355538845062256,3.5100955963134766,13.691292762756348
1789033868481395500,1.8263955078125,4.703316688537598,3.289309501647949,13.049541473388672
1789033868491320800,1.83632080078125,2.110321044921875,2.933420181274414,12.308631896972656
1789033868501246000,1.846245849609375,1.806695580482483,3.673853635787964,11.242852210998535
1789033868511171000,1.856171142578125,0.8197414875030518,2.6188063621520996,10.122407913208008
1789033868521096400,1.866096435546875,4.0838775634765625,1.5594847202301025,9.165301322937012
1789033868531021600,1.876021484375,3.020782709121704,2.7840240001678467,9.35060977935791
1789033868540947000,1.885947021484375,1.5789777040481567,2.4704301357269287,7.906678199768066
1789033868550872000,1.8958720703125,0.6488372683525085,2.044618606567383,6.765734672546387
1789033868560797400,1.90579736328125,-1.3097739219665527,2.5115058422088623,5.258542060852051
1789033868570722600,1.91572265625,-3.3380062580108643,1.9698266983032227,3.7536840438842773
1789033868580647700,1.925647705078125,-3.343268394470215,2.263711929321289,3.16872501373291
1789033868590573000,1.935572998046875,-3.570258140563965,2.4889254570007324,2.5986146926879883
1789033868600498400,1.94549853515625,-10.396976470947266,3.877934455871582,-0.07961750030517578
1789033868610423600,1.955423583984375,-9.444303512573242,3.155498504638672,-0.6089067459106445
1789033868620348700,1.9653486328125,-1.835849404335022,1.8175029754638672,1.404256820678711
1789033868630274000,1.975274169921875,0.7503457069396973,3.1108293533325195,0.9274110794067383
1789033868640199200,1.98519921875,-11.503273010253906,4.612731456756592,-1.793501853942871
1789033868650124500,1.99512451171875,-0.13205397129058838,2.410088062286377,-2.229635238647461
1789033868660049700,2.005049560546875,1.3727409839630127,3.1694564819335938,-2.9631853103637695
1789033868669974800,2.014974853515625,-2.0344018936157227,4.071404457092285,-2.0937299728393555
1789033868679900200,2.024900146484375,15.2041015625,4.05488395690918,0.8082380294799805
1789033868689825300,2.0348251953125,-2.690824031829834,5.540974140167236,-5.746707916259766
1789033868699750700,2.044750732421875,10.599774360656738,5.251087665557861,-7.3229875564575195
1789033868709675800,2.05467578125,-1.0061743259429932,5.873893737792969,-11.11522102355957
1789033868719601200,2.06460107421875,-3.790402889251709,8.867002487182617,-9.022991180419922
1789033868729526300,2.0745263671875,2.013035297393799,9.664419174194336,-4.5177106857299805
1789033868739451600,2.08445166015625,-14.697381019592285,9.773395538330078,-8.571250915527344
1789033868749376800,2.094376708984375,-2.0384879112243652,9.985499382019043,-5.496995449066162
1789033868759302000,2.104302001953125,-1.745532512664795,11.840200424194336,-3.225160598754883
1789033868769227300,2.114227294921875,-3.525754928588867,11.060083389282227,-2.803562641143799
1789033868779152400,2.12415234375,-5.299127578735352,9.536883354187012,-5.861822128295898
1789033868789077800,2.134077880859375,-5.034692764282227,9.170537948608398,-4.296625137329102
1789033868799003000,2.1440029296875,-2.4211931228637695,8.902826309204102,-2.502969264984131
1789033868808928000,2.153927978515625,0.10476183891296387,5.204345226287842,-2.0610008239746094
1789033868818853400,2.163853271484375,-4.312740802764893,5.879227638244629,-0.20449256896972656
1789033868870820000,2.215820068359375,-5.940068244934082,-9.201068878173828,7.130196571350098
1789033868880745200,2.2257451171875,-4.22636079788208,-8.898130416870117,4.229537010192871
1789033868890670300,2.23567041015625,-9.58250904083252,11.14880657196045,-8.07832145690918
1789033868900595700,2.245595703125,13.61320686340332,-31.160993576049805,11.740636825561523
1789033868910520800,2.255520751953125,4.427037715911865,-5.546718120574951,6.316584587097168
1789033868920446200,2.2654462890625,2.715043306350708,-10.891705513000488,4.225064277648926
1789033868930371300,2.275371337890625,0.2952706813812256,-8.097034454345703,3.4169998168945312
1789033868940296700,2.285296630859375,1.2472624778747559,-7.5570268630981445,1.8837480545043945
1789033868950221800,2.295221923828125,-0.05821871757507324,-8.987308502197266,-1.9460468292236328
1789033868960147000,2.30514697265625,0.5947160720825195,-7.686378479003906,-3.552701473236084
1789033868970072300,2.315072265625,-0.18328309059143066,-6.300356864929199,-5.576176643371582
1789033868979997400,2.32499755859375,0.3199446201324463,-6.1230058670043945,-7.874350547790527
1789033868989922800,2.3349228515625,-0.7819299697875977,-4.9884796142578125,-7.763543128967285
1789033868999848000,2.344847900390625,0.030771255493164062,-4.301255702972412,-7.6783127784729
1789033869009773300,2.354773193359375,5.351587295532227,-4.757840633392334,-8.464822769165039
1789033869019698400,2.364698486328125,6.587749481201172,0.612917423248291,0.27457618713378906
1789033869029623800,2.374623779296875,2.5610435009002686,-0.1356496810913086,-1.3861331939697266
1789033869039549000,2.384548828125,-0.2200847864151001,1.9798312187194824,1.3180627822875977
1789033869049474000,2.39447412109375,2.5939228534698486,2.8408515453338623,3.085573196411133
1789033869059399400,2.4043994140625,-0.12159168720245361,5.38095235824585,9.489189147949219
1789033869069324500,2.414324462890625,0.1264098882675171,14.326848030090332,24.105871200561523
1789033869079250000,2.42425,-6.881791591644287,11.747858047485352,17.325708389282227
1789033869089175000,2.434175048828125,-5.010871887207031,4.744396209716797,1.484593391418457
1789033869099100200,2.44410009765625,2.010301113128662,4.674707412719727,0.12783002853393555
1789033869109025500,2.454025634765625,3.461158275604248,4.938661098480225,1.2996125221252441
1789033869118950700,2.46395068359375,2.2442665100097656,5.241537094116211,1.2619681358337402
1789033869128876000,2.4738759765625,-2.327206611633301,4.972228050231934,-7.794951438903809
1789033869138801200,2.48380126953125,-0.7730564475059509,10.76002025604248,4.971832752227783
1789033869148726300,2.493726318359375,0.8957954049110413,9.188936233520508,7.649028301239014
1789033869158651600,2.503651611328125,-1.460023283958435,5.181232929229736,6.985996723175049
1789033869168577000,2.513576904296875,1.271579384803772,-1.48260498046875,0.4893059730529785
1789033869178502100,2.523502197265625,3.398082733154297,-5.501241207122803,-1.0355224609375
1789033869188427300,2.53342724609375,0.5837059020996094,-5.229715824127197,-0.2891855239868164
1789033869198352400,2.543352294921875,-1.2761286497116089,-7.993704319000244,0.3367176055908203
1789033869208277800,2.55327783203125,-0.12878845632076263,-9.024015426635742,-2.4365453720092773
1789033869218203000,2.563202880859375,-2.175433397293091,-10.992709159851074,-4.385645389556885
1789033869228128300,2.573128173828125,-0.015574812889099121,-11.415267944335938,-4.724149703979492
1789033869238053400,2.583053466796875,0.313363641500473,-7.98292875289917,-1.2422142028808594
1789033869247978800,2.592978759765625,-0.8247809410095215,-7.105778217315674,-0.35788917541503906
1789033869257903900,2.60290380859375,-1.2466098070144653,-6.492605686187744,-0.3794984817504883
1789033869267829000,2.6128291015625,-2.3806533813476562,-5.71295166015625,-0.4331684112548828
1789033869277754400,2.62275439453125,-3.3433821201324463,-4.006502151489258,-1.2413301467895508
1789033869287679700,2.6326796875,-3.267159938812256,-2.7042675018310547,0.31513404846191406
1789033869297604900,2.64260498046875,-3.0205163955688477,-2.8069534301757812,-2.228579044342041
1789033869307530000,2.652530029296875,-2.904078960418701,-2.868962287902832,-4.6219987869262695
1789033869317455400,2.662455322265625,-2.24761962890625,-1.5342888832092285,-5.9770283699035645
1789033869327380500,2.67238037109375,-0.7488980293273926,-3.758725166320801,-6.193709373474121
1789033869337305600,2.6823056640625,4.815308570861816,-2.578120231628418,-5.37938117980957
1789033869347231000,2.69223095703125,7.414261817932129,-0.572108268737793,-0.23183679580688477
1789033869357156000,2.702156005859375,7.600033283233643,-1.01517915725708,-0.8339290618896484
1789033869367081500,2.71208154296875,6.90909481048584,-0.4854750633239746,0.36206722259521484
1789033869377006600,2.722006591796875,4.249711036682129,2.679306745529175,4.990611553192139
1789033869386931700,2.731931640625,0.6561059355735779,4.91579532623291,8.085969924926758
1789033869396857000,2.741857177734375,-1.6862502098083496,5.921504497528076,8.930914878845215
1789033869406782200,2.7517822265625,-4.692657470703125,5.204751968383789,7.543049335479736
1789033869416707600,2.76170751953125,-7.01530122756958,4.719711780548096,6.214164733886719
1789033869426632700,2.7716328125,-8.641173362731934,4.039670944213867,4.360445976257324
1789033869436558000,2.78155810546875,-7.222192764282227,2.9932162761688232,2.7382073402404785
1789033869446483200,2.791483154296875,-3.7621870040893555,3.713580369949341,3.0889925956726074
1789033869456408600,2.80140869140625,-0.6055030822753906,4.889711380004883,3.8251137733459473
1789033869466333700,2.811333740234375,-0.33072638511657715,5.53044319152832,3.9697484970092773
1789033869476258800,2.8212587890625,-0.006240248680114746,5.696491241455078,3.8225159645080566
1789033869486184200,2.83118408203125,3.417109966278076,6.595555305480957,5.135908126831055
1789033869496109300,2.841109375,3.557485580444336,10.408174514770508,6.854724884033203
1789033869506034700,2.85103466796875,2.1177470684051514,8.730287551879883,5.762753009796143
1789033869515959800,2.860959716796875,0.7132073640823364,6.117354393005371,4.107430934906006
1789033869525885000,2.870885009765625,2.7035560607910156,1.8779873847961426,-2.934811592102051
1789033869535810300,2.880810302734375,0.7918751239776611,0.6150383949279785,-5.122015476226807
1789033869545735400,2.8907353515625,-22.413196563720703,16.429420471191406,14.437110900878906
1789033869555660800,2.900660888671875,18.218767166137695,-9.705453872680664,-1.5979814529418945
1789033869565586000,2.9105859375,8.224526405334473,-6.712892532348633,-13.827051162719727
1789033869575511300,2.92051123046875,9.27468490600586,-10.671097755432129,-15.673236846923828
1789033869585436400,2.9304365234375,3.5050408840179443,-7.092462062835693,-12.444202423095703
1789033869595361500,2.940361572265625,7.354761123657227,-2.4228482246398926,-1.4177627563476562
1789033869605287000,2.950286865234375,8.283012390136719,-9.319950103759766,-7.903780937194824
1789033869615212000,2.9602119140625,3.4563815593719482,-6.728456974029541,-6.088775634765625
1789033869625137400,2.970137451171875,-0.8576827049255371,-14.181818008422852,-6.737936973571777
1789033869635062500,2.9800625,0.918217658996582,-5.840146541595459,-2.7620468139648438
1789033869644987600,2.989987548828125,-1.6288957595825195,-4.942922592163086,0.5434145927429199
1789033869654913000,2.9999130859375,-1.141526699066162,-5.861975193023682,1.4137358665466309
1789033869664838100,3.009838134765625,-0.7833223342895508,-5.627357006072998,2.9095215797424316
1789033869674763500,3.019763427734375,-1.1370439529418945,-5.522561073303223,4.179651737213135
1789033869684688600,3.029688720703125,-1.1663222312927246,-5.175838947296143,4.451336860656738
1789033869694614000,3.039614013671875,-1.809593677520752,-3.1963858604431152,5.4823784828186035
1789033869704539100,3.0495390625,-2.567142963409424,-1.530346393585205,5.7547149658203125
1789033869714464500,3.059464599609375,-1.594466209411621,-0.19473981857299805,5.847797393798828
1789033869724389600,3.0693896484375,-0.937873125076294,-1.301772117614746,3.3984155654907227
1789033869734314800,3.079314697265625,-1.8122973442077637,-0.5959405899047852,2.8412184715270996
1789033869744240000,3.089240234375,-1.416377305984497,7.829736232757568,-0.9199061393737793
1789033869754165500,3.09916552734375,-3.5066704750061035,5.044926166534424,-1.4205045700073242
1789033869764090600,3.109090576171875,-3.4782986640930176,1.4113538265228271,-1.9830389022827148
1789033869774015700,3.119015625,-1.5421199798583984,0.8244624137878418,-0.2837381362915039
1789033869783941000,3.128941162109375,-0.755887508392334,-0.6946825981140137,-0.7915444374084473
1789033869793866200,3.1388662109375,1.0313911437988281,-2.1883726119995117,-0.33031511306762695
1789033869803791400,3.148791259765625,1.4757087230682373,-1.1675009727478027,0.5256109237670898
1789033869813716700,3.158716796875,1.1300489902496338,0.9046168327331543,-0.7754230499267578
1789033869823641900,3.168641845703125,0.8374767303466797,-0.0845789909362793,-2.5007128715515137
1789033869833567000,3.17856689453125,1.2563652992248535,-0.472867488861084,-2.813199996948242
1789033869843492400,3.188492431640625,1.2332725524902344,0.7038464546203613,-2.15031099319458
1789033869853417500,3.19841748046875,1.1861612796783447,2.738745927810669,-2.186685562133789
1789033869863342600,3.208342529296875,0.5546965599060059,5.050187587738037,-2.829591751098633
1789033869873268000,3.21826806640625,1.659698247909546,4.911799907684326,-3.033754587173462
1789033869883193000,3.228193115234375,-0.6117491722106934,3.5296201705932617,-3.4347426891326904
1789033869893118200,3.2381181640625,-0.020864009857177734,6.70872163772583,-2.185105323791504
1789033869903043600,3.248043701171875,0.8684766292572021,8.791929244995117,-2.2350306510925293
1789033869912968700,3.25796875,-0.8415250778198242,8.938910484313965,-2.634860038757324
1789033869922893800,3.267893798828125,1.1340723037719727,10.330097198486328,-2.129952907562256
1789033869932819200,3.277819091796875,-4.257855415344238,3.0509395599365234,1.6581110954284668
1789033869942744300,3.287744384765625,-3.889008045196533,-2.5408706665039062,0.7242889404296875
1789033869952669400,3.29766943359375,-0.5256948471069336,0.8889017105102539,-0.5348639488220215
1789033869962594800,3.3075947265625,3.787937641143799,9.423028945922852,-5.712727069854736
1789033869972520200,3.317520263671875,-1.2160191535949707,4.808237075805664,-2.3710923194885254
1789033869982445300,3.3274453125,-0.9501585960388184,5.717544078826904,-1.9155149459838867
1789033869992370700,3.33737060546875,-9.356491088867188,-5.412788391113281,-3.0418484210968018
1789033870002295800,3.3472958984375,-9.294820785522461,22.340553283691406,4.572611331939697
1789033870012221200,3.35722119140625,-20.43648910522461,3.5753540992736816,-2.9874958992004395
1789033870022146300,3.367146240234375,23.117664337158203,-22.344440460205078,-7.244137763977051
1789033870032071700,3.37707177734375,15.413867950439453,-29.197471618652344,-11.006767272949219
1789033870041996800,3.386996826171875,-10.218811988830566,-6.852076053619385,5.094910621643066
1789033870051922200,3.396922119140625,-8.186992645263672,-1.4914851188659668,4.673063278198242
1789033870061847300,3.406847412109375,6.344769477844238,-15.264079093933105,7.131236553192139
1789033870071772700,3.416772705078125,2.4697067737579346,-8.569143295288086,5.85744571685791
1789033870081697800,3.42669775390625,-2.080697536468506,-8.180124282836914,6.504614353179932
1789033870091623000,3.436622802734375,-0.33924150466918945,-8.058429718017578,2.5119566917419434
1789033870101548300,3.44654833984375,-1.7419419288635254,-2.191941738128662,-0.6615362167358398
1789033870111473400,3.456473388671875,-0.46988391876220703,0.6369748115539551,-2.574735164642334
1789033870121398500,3.4663984375,-0.4013381004333496,1.4429221153259277,-2.74021315574646
1789033870131324000,3.476323974609375,-0.880645751953125,1.5597724914550781,-2.2993597984313965
1789033870141249000,3.4862490234375,-1.2073206901550293,1.3075666427612305,-2.599153757095337
1789033870151174100,3.496174072265625,-0.6632890701293945,0.9630446434020996,-2.3685765266418457
1789033870161099500,3.506099609375,-0.3978276252746582,4.133027076721191,-0.40840673446655273
1789033870171024600,3.516024658203125,1.1568527221679688,7.1051926612854,-0.7672743797302246
1789033870180949800,3.52594970703125,0.9741778373718262,6.884895324707031,-1.3939480781555176
1789033870190875100,3.535875244140625,1.6853840351104736,8.281564712524414,-1.23649263381958
1789033870200800300,3.54580029296875,1.6463696956634521,8.434616088867188,-0.8745875358581543
1789033870210725400,3.555725341796875,-0.26900815963745117,7.205073356628418,-0.02096271514892578
1789033870220650800,3.565650634765625,4.175611972808838,2.4231300354003906,1.0458927154541016
1789033870230575900,3.575575927734375,4.280017852783203,-1.9215846061706543,2.5347862243652344
1789033870240501200,3.585501220703125,0.012881278991699219,-1.772364616394043,2.104358196258545
1789033870250426400,3.59542626953125,-0.8638367652893066,-2.6163783073425293,1.365823745727539
1789033870260351500,3.6053515625,-1.8232581615447998,-3.569455146789551,1.0369677543640137
1789033870270276900,3.61527685546875,-2.272519111633301,-4.193394184112549,0.05091094970703125
1789033870280202200,3.6252021484375,-2.070586681365967,-3.1948752403259277,-1.778482437133789
1789033870290127400,3.63512744140625,-0.18982648849487305,-1.4782252311706543,-2.8499698638916016
1789033870300052700,3.645052734375,0.6915116310119629,-1.212343692779541,-0.046851158142089844
1789033870309977900,3.654977783203125,-0.022433757781982422,-2.734999179840088,0.19979381561279297
1789033870319903200,3.6649033203125,-0.41088008880615234,-6.281458854675293,0.6268563270568848
1789033870329828400,3.674828369140625,-0.40222668647766113,-5.4751176834106445,0.9637665748596191
1789033870339753700,3.684753662109375,-0.38501453399658203,-5.438076972961426,1.9120655059814453
1789033870349678800,3.694678955078125,-0.27373242378234863,-3.1633143424987793,1.2355480194091797
1789033870359604200,3.704604248046875,-0.6934776306152344,-2.1665139198303223,0.8450946807861328
1789033870369529300,3.714529296875,-1.9036567211151123,-1.7855229377746582,0.5755043029785156
1789033870379454500,3.724454345703125,-2.008802652359009,-0.6967535018920898,0.5889482498168945
1789033870389379800,3.7343798828125,-1.9501700401306152,-0.8832802772521973,0.3873710632324219
1789033870399305000,3.744304931640625,-1.382429838180542,-0.16385746002197266,0.5038013458251953
1789033870409230000,3.75422998046875,-1.3549246788024902,0.5591597557067871,0.8936481475830078
1789033870419155500,3.764155517578125,-0.7771739959716797,1.594214677810669,-0.13492393493652344
1789033870429080600,3.77408056640625,-1.268251657485962,1.1552581787109375,1.2402119636535645
1789033870439005700,3.784005615234375,-1.5470178127288818,0.2149372100830078,2.4879021644592285
1789033870448931000,3.79393115234375,-1.7945892810821533,-0.8286800384521484,2.2762107849121094
1789033870458856200,3.803856201171875,-2.5899367332458496,-1.422907829284668,1.6672992706298828
1789033870468781600,3.813781494140625,-2.4377756118774414,-2.118490219116211,1.574643611907959
1789033870478706700,3.823706787109375,-1.6389105319976807,-2.6414661407470703,2.3038101196289062
1789033870488632000,3.833632080078125,-1.0675756931304932,-2.833160877227783,2.5169286727905273
1789033870498557400,3.843557373046875,-1.4187116622924805,-2.320443630218506,1.9002571105957031
1789033870508482600,3.853482666015625,-1.5855796337127686,-2.880005359649658,1.567880630493164
1789033870518408000,3.863407958984375,-2.0555062294006348,-2.5767154693603516,0.7427835464477539
1789033870528333000,3.8733330078125,-1.7319681644439697,-2.414191722869873,1.0949220657348633
1789033870538258400,3.883258544921875,-0.7279338836669922,-2.1882972717285156,0.9414882659912109
1789033870548183600,3.89318359375,-0.33385419845581055,-1.4579901695251465,1.1456756591796875
1789033870558109000,3.90310888671875,-0.5251667499542236,-1.8034076690673828,1.8943967819213867
1789033870568034000,3.913033935546875,0.48561739921569824,-2.11444091796875,1.2167787551879883
1789033870577959400,3.92295947265625,-0.48376917839050293,-1.6669602394104004,1.037215232849121
1789033870587884500,3.932884521484375,-0.7099015712738037,0.5917553901672363,-2.4041404724121094
1789033870597810000,3.942809814453125,0.13570380210876465,2.5684256553649902,-3.943722724914551
1789033870607735300,3.9527353515625,0.4269444942474365,3.014146327972412,-4.1240386962890625
1789033870617660400,3.962660400390625,1.356654167175293,2.3001205921173096,-3.9696240425109863
1789033870627585800,3.972585693359375,0.5909335613250732,1.9483089447021484,-3.321406841278076
1789033870637511000,3.982510986328125,-0.5025334358215332,1.8180135488510132,-1.606307029724121
1789033870647436300,3.992436279296875,-0.9699227809906006,0.15340352058410645,-0.11056709289550781
1789033870657361400,4.002361328125,-2.021902084350586,1.3232667446136475,1.7640533447265625
1789033870667286500,4.01228662109375,-0.7246685028076172,1.2584989070892334,3.595853805541992
1789033870677212000,4.0222119140625,-0.7102220058441162,0.3441307544708252,4.716279983520508
1789033870687137000,4.032136962890625,-1.2611103057861328,-0.34290647506713867,4.632518768310547
1789033870697062400,4.0420625,-1.5169544219970703,-0.4777512550354004,4.856352806091309
1789033870706987500,4.051987548828125,-1.6899361610412598,-1.010033369064331,3.3829774856567383
1789033870716912600,4.06191259765625,-1.545034646987915,-1.5309605598449707,2.0977039337158203
1789033870726838000,4.071838134765625,-1.2120335102081299,-1.4918899536132812,1.3411293029785156
1789033870736763100,4.08176318359375,-0.6736299991607666,-1.1243879795074463,0.9130773544311523
1789033870746688300,4.091688232421875,-0.5425553321838379,-1.1019306182861328,0.5473155975341797
1789033870756613600,4.101613525390625,-0.18582940101623535,-1.3000805377960205,-0.029653549194335938
1789033870766538800,4.111538818359375,0.09435224533081055,-1.5423130989074707,-0.22000408172607422
1789033870776464000,4.1214638671875,-0.04985499382019043,-1.6834642887115479,-0.4666166305541992
1789033870786389200,4.13138916015625,-0.13297247886657715,-2.0003409385681152,-0.8641157150268555
1789033870796314400,4.141314453125,0.5438508987426758,-2.022526264190674,-1.5962367057800293
1789033870806239500,4.151239501953125,1.3176403045654297,-2.110588312149048,-2.4827122688293457
1789033870816164900,4.161164794921875,1.82529616355896,-1.5632597208023071,-3.324902057647705
1789033870826090000,4.171090087890625,2.034867525100708,-0.40358591079711914,-3.4174580574035645
1789033870836015000,4.18101513671875,2.4471988677978516,0.31740546226501465,-3.623314380645752
1789033870845940500,4.1909404296875,0.9262266159057617,0.32301902770996094,-4.30031156539917
1789033870855865600,4.200865478515625,0.05083203315734863,0.29851245880126953,-4.454727649688721
1789033870865791000,4.210791015625,0.998180627822876,0.10897600650787354,-4.157316207885742
1789033870875716000,4.220716064453125,2.302128791809082,-0.2495020627975464,-4.535033702850342
1789033870885641500,4.230641357421875,1.8534796237945557,-0.18036317825317383,-4.775657653808594
1789033870895566600,4.240566650390625,0.7373175621032715,0.22680556774139404,-4.5476813316345215
1789033870905492000,4.250491943359375,-0.39930248260498047,0.6080683469772339,-3.845761775970459
1789033870915417300,4.260417236328125,-0.19547319412231445,0.430844783782959,-3.892714023590088
1789033870925342500,4.270342529296875,0.5255331993103027,0.12895452976226807,-4.212355613708496
1789033870935267800,4.280267822265625,0.16357016563415527,0.14540338516235352,-3.9014892578125
1789033870945193000,4.29019287109375,-0.4492640495300293,0.26291632652282715,-3.5213699340820312
1789033870955118300,4.300118408203125,-0.28637266159057617,0.4184698462486267,-3.358490467071533
1789033870965043500,4.31004345703125,-0.1410224437713623,0.7258573174476624,-3.2989253997802734
1789033870974968600,4.319968505859375,-0.5226325988769531,1.1169168949127197,-3.0503549575805664
1789033870984894000,4.32989404296875,-0.5321104526519775,1.3347244262695312,-2.884504795074463
1789033870994819000,4.339819091796875,-0.4993901252746582,1.5467209815979004,-2.3726840019226074
1789033871004744200,4.349744140625,-0.16647052764892578,1.339400291442871,-1.6396818161010742
1789033871014669600,4.359669677734375,0.08273863792419434,1.1520297527313232,-1.4212594032287598
1789033871024594700,4.3695947265625,-0.41295433044433594,1.0682145357131958,-1.3762869834899902
1789033871034519800,4.379519775390625,-1.2489831447601318,1.142386555671692,-1.1440277099609375
1789033871044445200,4.389445068359375,-1.506164312362671,1.244436264038086,-0.5472726821899414
1789033871054370300,4.399370361328125,-0.9994478225708008,1.2836055755615234,-0.37455177307128906
1789033871064295700,4.409295654296875,-0.7724411487579346,1.1783740520477295,-0.3980674743652344
1789033871074220800,4.419220703125,-0.6434409618377686,1.113471508026123,-0.16644668579101562
1789033871084146200,4.429146240234375,-0.722069263458252,0.919654130935669,0.2357931137084961
1789033871094071300,4.4390712890625,-0.32382655143737793,0.3817896842956543,0.6489734649658203
1789033871103996700,4.44899658203125,-0.4641683101654053,-0.04805350303649902,0.9508037567138672
1789033871113921800,4.458921875,-1.0531771183013916,-0.3112175464630127,1.138474464416504
1789033871123847200,4.46884716796875,-1.547553539276123,-0.3104057312011719,1.538351058959961
1789033871133772500,4.4787724609375,-1.3298532962799072,-0.46796703338623047,1.9220151901245117
1789033871143697700,4.48869775390625,-0.745074987411499,-0.8435845375061035,2.0007591247558594
1789033871153623000,4.498623046875,-0.7175660133361816,-1.1506128311157227,1.9730615615844727
1789033871163548200,4.508548095703125,-0.6950607299804688,-1.2161445617675781,2.031733512878418
1789033871173473300,4.518473388671875,-0.32611703872680664,-1.4439516067504883,1.2111215591430664
1789033871183398700,4.528398681640625,-1.0474743843078613,-1.2234549522399902,1.1408700942993164
1789033871193323800,4.53832373046875,-1.1549615859985352,-0.7213912010192871,1.3607807159423828
1789033871203249000,4.548248779296875,-0.6293458938598633,-0.906303882598877,0.4577755928039551
1789033871213174300,4.55817431640625,-1.098881483078003,-0.6039533615112305,1.0800108909606934
1789033871223099400,4.568099365234375,-1.0543437004089355,0.20561885833740234,2.2997188568115234
1789033871233024500,4.5780244140625,-1.0261847972869873,0.3967618942260742,2.404323101043701
1789033871242950000,4.587949951171875,-0.7458491325378418,0.33724403381347656,2.180123805999756
1789033871252875000,4.597875,-1.579617977142334,0.48743295669555664,2.110677719116211
1789033871262800100,4.607800048828125,-1.260014295578003,0.22709131240844727,2.274467945098877
1789033871272725500,4.6177255859375,-1.207261085510254,-0.01575183868408203,2.126474380493164
1789033871282650600,4.627650634765625,-1.5719797611236572,-0.08864164352416992,1.9844169616699219
1789033871292575700,4.63757568359375,-1.5794601440429688,0.15457391738891602,1.9970035552978516
1789033871302501000,4.647501220703125,-1.6389577388763428,0.3198814392089844,1.8721189498901367
1789033871312426200,4.65742626953125,-1.51997709274292,0.5661883354187012,1.647895336151123
1789033871322351600,4.6673515625,-0.6861679553985596,0.3799171447753906,1.3501887321472168
1789033871332276700,4.67727685546875,-0.8248302936553955,0.42647361755371094,1.4502100944519043
1789033871342201900,4.687201904296875,-0.8425085544586182,0.35315990447998047,1.784557819366455
1789033871352127200,4.697127197265625,-0.8797817230224609,0.06071662902832031,2.221648693084717
1789033871362052400,4.70705224609375,-1.8913488388061523,-0.24312925338745117,2.4861254692077637
1789033871371977700,4.716977783203125,-2.8601572513580322,-0.5105266571044922,2.3306331634521484
1789033871381902800,4.72690283203125,-2.100532293319702,-0.1423168182373047,2.1033029556274414
1789033871391828200,4.736828125,-0.5980136394500732,0.43386077880859375,1.757631778717041
1789033871401753300,4.74675341796875,0.9660512208938599,0.8228907585144043,0.8031086921691895
1789033871411678700,4.7566787109375,1.3101528882980347,0.8872408866882324,0.3588104248046875
1789033871421603800,4.766603759765625,1.0747424364089966,0.7947502136230469,0.24485254287719727
1789033871431529200,4.776529296875,0.16190218925476074,0.6513309478759766,0.4675579071044922
1789033871441454300,4.786454345703125,-0.67746901512146,0.2729496955871582,0.45915985107421875
1789033871451379700,4.796379638671875,-1.0685768127441406,-0.02258157730102539,0.5739984512329102
1789033871461304800,4.806304931640625,-1.1880605220794678,-0.03659868240356445,0.7280378341674805
1789033871471230200,4.816230224609375,-0.6346077919006348,0.10350990295410156,0.5677623748779297
1789033871481155300,4.8261552734375,-0.19607973098754883,0.39508962631225586,0.9171228408813477
1789033871491080400,4.83608056640625,0.42395496368408203,0.47932958602905273,1.0091218948364258
1789033871501005800,4.846005859375,0.7244338989257812,0.4794502258300781,0.9197063446044922
1789033871510931000,4.855930908203125,1.0878239870071411,0.47937631607055664,1.2588691711425781
1789033871520856000,4.86585595703125,1.3329039812088013,0.6660428047180176,2.5727500915527344
1789033871530781400,4.875781494140625,0.9707509279251099,0.3215503692626953,3.5182247161865234
1789033871540706600,4.88570654296875,0.16573476791381836,0.19410371780395508,4.600391387939453
1789033871550631700,4.895631591796875,-0.7935895919799805,0.05109977722167969,4.966159820556641
1789033871560557000,4.90555712890625,-1.1196293830871582,-0.882174015045166,2.900697708129883
1789033871570482400,4.915482421875,-2.0100033283233643,-1.164137363433838,0.5116939544677734
1789033871580407600,4.925407470703125,-3.6113650798797607,-0.8919558525085449,-0.8475332260131836
1789033871590333000,4.9353330078125,-3.50437068939209,-0.7850284576416016,-1.0205917358398438
1789033871600258000,4.945258056640625,-0.9783291816711426,-0.7833001613616943,-0.4986457824707031
1789033871610183400,4.955183349609375,1.3657084703445435,-1.1571080684661865,0.29840564727783203
1789033871620108500,4.965108642578125,2.337111234664917,-1.431478500366211,1.0948057174682617
1789033871630034000,4.975033935546875,1.5972890853881836,-1.4555878639221191,1.9212875366210938
1789033871639959000,4.984958984375,-0.5736351013183594,-1.4151906967163086,1.998845100402832
1789033871649884400,4.994884521484375,-2.5359225273132324,-1.7666034698486328,1.148818016052246
1789033871659809500,5.0048095703125,-2.703969717025757,-2.0800609588623047,0.3380088806152344
1789033871669735000,5.01473486328125,-0.7963211536407471,-2.3503406047821045,-0.4859504699707031
1789033871679660000,5.024659912109375,1.4660346508026123,-2.5350348949432373,-1.158787727355957
1789033871689585200,5.034585205078125,2.5127148628234863,-2.5659284591674805,-1.894559383392334
1789033871699510500,5.044510498046875,2.1347861289978027,-1.862828016281128,-2.5418434143066406
1789033871709435600,5.054435546875,1.036625862121582,-0.7075366973876953,-2.72006893157959
1789033871719360800,5.06436083984375,0.08093094825744629,0.15799474716186523,-2.923943519592285
1789033871729286100,5.0742861328125,-0.4470856189727783,0.5889725685119629,-2.697319507598877
1789033871739211300,5.084211181640625,0.7629637718200684,-0.1615666151046753,-3.4117727279663086
1789033871749136400,5.094136474609375,2.9236440658569336,-0.7045295238494873,-5.072178840637207
1789033871759061800,5.104061767578125,3.356687068939209,-0.3497622013092041,-5.800681114196777
1789033871768987100,5.113987060546875,1.9653193950653076,0.44147050380706787,-5.599357604980469
1789033871778912300,5.123912353515625,1.420621395111084,0.9824435710906982,-5.859192371368408
1789033871788837600,5.133837646484375,1.387298822402954,1.3207262754440308,-6.250732421875
1789033871798762800,5.1437626953125,1.4350481033325195,0.9866197109222412,-6.541062355041504
1789033871808688000,5.153688232421875,1.964492917060852,0.14943444728851318,-7.015680313110352
1789033871818613200,5.16361328125,0.718698263168335,0.2635916471481323,-6.213074684143066
1789033871828538600,5.17353857421875,-0.5103914737701416,0.5660663843154907,-4.814919471740723
1789033871838463700,5.183463623046875,0.4773283004760742,0.4114607572555542,-4.020871639251709
1789033871848389000,5.19338916015625,0.9843647480010986,0.5223253965377808,-3.302513599395752
1789033871858314200,5.203314208984375,0.40233445167541504,0.48839712142944336,-2.5177950859069824
1789033871868239600,5.213239501953125,-0.07278037071228027,0.4313770532608032,-1.800499439239502
1789033871878164700,5.223164794921875,-0.004896879196166992,0.04899454116821289,-1.2401423454284668
1789033871888089900,5.23308984375,-0.08584189414978027,-0.3668951988220215,-1.1215343475341797
1789033871898015200,5.24301513671875,-1.1441254615783691,-0.3282952308654785,-0.7894296646118164
1789033871907940400,5.2529404296875,-1.672386884689331,-0.17280006408691406,-0.28411388397216797
1789033871917865500,5.262865478515625,-1.6656711101531982,-0.04597830772399902,-0.02158355712890625
1789033871927790800,5.272790771484375,-1.350775957107544,-0.2905910015106201,0.18472957611083984
1789033871937716000,5.282716064453125,-0.8488702774047852,-0.3484785556793213,0.058997154235839844
1789033871947641000,5.29264111328125,-1.1218757629394531,-0.22270703315734863,0.6394824981689453
1789033871957566500,5.30256640625,-1.4364430904388428,-0.1277158260345459,1.0781707763671875
1789033871967491600,5.31249169921875,-1.10585355758667,-0.3046562671661377,1.2244720458984375
1789033871977417000,5.3224169921875,-0.7437193393707275,-0.5374376773834229,1.2779045104980469
1789033871987342300,5.33234228515625,-0.365492582321167,-0.4705381393432617,1.2139196395874023
1789033871997267500,5.342267333984375,0.4095757007598877,-0.4371333122253418,0.8982257843017578
1789033872007192800,5.35219287109375,-0.14335107803344727,-0.21505260467529297,0.7073850631713867
1789033872017118000,5.362117919921875,-0.7217094898223877,-0.1229696273803711,0.3736915588378906
1789033872027043300,5.372043212890625,-0.7870264053344727,-0.3275008201599121,0.2230234146118164
1789033872036968400,5.381968505859375,-0.8751044273376465,-0.5796413421630859,0.5172719955444336
1789033872046893800,5.391893798828125,-1.6225500106811523,-0.6411619186401367,1.4415502548217773
1789033872056819000,5.40181884765625,-1.3509883880615234,-0.9313230514526367,2.33913516998291
1789033872066744300,5.411744384765625,-0.7697703838348389,-1.4549994468688965,2.5967979431152344
1789033872076669400,5.42166943359375,-0.9452981948852539,-1.8008475303649902,2.8903684616088867
1789033872086594800,5.4315947265625,-0.6300792694091797,-1.459848403930664,3.5970458984375
1789033872096520200,5.441520263671875,-1.3222393989562988,-0.9244356155395508,3.2588868141174316
1789033872106445300,5.4514453125,-1.2444770336151123,-0.19144868850708008,2.909562110900879
1789033872116370700,5.46137060546875,-0.6888175010681152,0.44607114791870117,2.3005146980285645
1789033872126295800,5.4712958984375,-0.7219257354736328,0.9499650001525879,2.5712127685546875
1789033872136221200,5.48122119140625,-0.6436891555786133,1.103933334350586,2.4948368072509766
1789033872146146300,5.491146240234375,-0.7402942180633545,1.0645012855529785,2.320432662963867
1789033872156071400,5.501071533203125,-0.8403985500335693,0.7936253547668457,2.1396899223327637
1789033872165996800,5.510996826171875,-0.9094448089599609,0.30200719833374023,1.896042823791504
1789033872175922000,5.520921875,-1.2265410423278809,0.10185670852661133,1.7248430252075195
1789033872185847000,5.530846923828125,-1.4800560474395752,-0.010985851287841797,1.5751667022705078
1789033872195772200,5.540772216796875,-1.9610793590545654,0.21215152740478516,1.6435179710388184
1789033872205697300,5.550697265625,-2.239086627960205,0.38788938522338867,1.7700881958007812
1789033872215622400,5.560622314453125,-2.511183261871338,0.33019256591796875,2.1391239166259766
1789033872225547500,5.570547607421875,-2.5642716884613037,0.21725130081176758,2.743671417236328
1789033872235473000,5.580472900390625,-1.7070643901824951,0.022369384765625,3.259026050567627
1789033872245398000,5.59039794921875,-0.6265649795532227,-0.03995323181152344,3.544942855834961
1789033872255323100,5.6003232421875,-0.09922027587890625,0.06642675399780273,2.6966910362243652
1789033872265248500,5.61024853515625,1.5229305028915405,-0.18040943145751953,1.1980619430541992
1789033872275173600,5.620173583984375,2.916168212890625,-0.10480451583862305,0.8621840476989746
1789033872285099000,5.63009912109375,2.601469039916992,0.22292041778564453,1.1915111541748047
1789033872295024000,5.640024169921875,1.6014143228530884,0.3272686004638672,0.8926935195922852
1789033872304949500,5.649949462890625,0.38582921028137207,0.011394977569580078,0.9063577651977539
1789033872314875000,5.659875,-1.070450782775879,-0.1829833984375,1.4212303161621094
1789033872324800000,5.669800048828125,-1.813033103942871,-0.19608068466186523,1.670790672302246
1789033872334725400,5.679725341796875,-1.696000099182129,0.20593547821044922,2.0175437927246094
1789033872344650500,5.689650390625,-1.1404144763946533,0.4855771064758301,2.0328855514526367
1789033872354576000,5.699575927734375,-0.31885266304016113,0.31105566024780273,1.6760749816894531
1789033872364501000,5.7095009765625,0.7212276458740234,0.17460203170776367,1.3805484771728516
1789033872374426000,5.719426025390625,1.6295756101608276,0.03351783752441406,2.003549575805664
1789033872384351500,5.7293515625,1.61928391456604,-0.47663402557373047,2.420210838317871
1789033872394276600,5.739276611328125,1.0573159456253052,-0.5800557136535645,3.2833003997802734
1789033872404202000,5.749201904296875,1.1381254196166992,-0.7840976715087891,3.071126937866211
1789033872414127000,5.759127197265625,0.9517648220062256,-1.0856895446777344,1.7434883117675781
1789033872424052200,5.76905224609375,-0.7312343120574951,-1.1532304286956787,0.04248046875
1789033872433977600,5.7789775390625,-3.0421886444091797,-0.677431583404541,-0.4106569290161133
1789033872443902700,5.78890283203125,-3.1962103843688965,-0.7093415260314941,-0.47251129150390625
1789033872453827800,5.798827880859375,-1.3760123252868652,-0.7097265720367432,0.47018909454345703
1789033872463753200,5.808753173828125,0.6658406257629395,-1.1794888973236084,1.1011886596679688
1789033872473678300,5.81867822265625,2.2424697875976562,-1.3882620334625244,1.541184425354004
1789033872483603700,5.828603759765625,2.680150032043457,-1.7624015808105469,1.3336925506591797
1789033872493528800,5.83852880859375,1.365544080734253,-1.8592607975006104,0.7443552017211914
1789033872503454200,5.8484541015625,-0.6777298450469971,-1.6407101154327393,-0.0669107437133789
1789033872513379600,5.858379638671875,-1.491218090057373,-1.3641116619110107,-0.5582590103149414
1789033872523304700,5.8683046875,-0.5441386699676514,-1.407081127166748,-0.8055343627929688
1789033872533230000,5.87822998046875,1.2863690853118896,-1.3953988552093506,-1.1198372840881348
1789033872543155200,5.8881552734375,2.7131905555725098,-1.3967663049697876,-1.723423957824707
1789033872553080600,5.89808056640625,2.5510692596435547,-1.1132055521011353,-2.5529046058654785
1789033872563005700,5.908005615234375,2.1805734634399414,-0.5910217761993408,-3.6826891899108887
1789033872572931000,5.91793115234375,1.813927412033081,0.043980956077575684,-4.633575916290283
1789033872582856200,5.927856201171875,0.7886800765991211,0.23353374004364014,-4.958169460296631
1789033872592781600,5.937781494140625,0.3867201805114746,0.22858309745788574,-4.477179050445557
1789033872602706700,5.947706787109375,1.712043285369873,0.7933326363563538,-4.554267406463623
1789033872612632000,5.957632080078125,2.7367987632751465,-0.17412471771240234,-6.3222150802612305
1789033872622557400,5.967557373046875,2.7707409858703613,-0.12147319316864014,-6.0710577964782715
1789033872632482600,5.977482666015625,2.0893092155456543,0.5800086855888367,-5.195555686950684
1789033872642408000,5.987407958984375,0.9971930980682373,0.5470400452613831,-4.649125099182129
1789033872652333000,5.9973330078125,0.613128662109375,0.12008583545684814,-4.562092304229736
1789033872662258200,6.007258056640625,0.6436290740966797,-0.04819369316101074,-4.720816135406494
1789033872672183300,6.017183349609375,0.6084866523742676,-0.23842549324035645,-5.227838516235352
1789033872682108700,6.027108642578125,0.2274031639099121,-0.032410264015197754,-4.80232048034668
1789033872692033800,6.03703369140625,0.41474413871765137,0.16499710083007812,-4.168670654296875
1789033872701959000,6.046958984375,0.6733014583587646,0.18727707862854004,-3.8677778244018555
1789033872711884000,6.056884033203125,0.6434893608093262,0.12865424156188965,-3.3022494316101074
1789033872721809200,6.06680908203125,0.3965277671813965,-0.06264519691467285,-2.4972410202026367
1789033872731734300,6.076734375,0.44566988945007324,-0.38845038414001465,-1.9919099807739258
1789033872741659400,6.086659423828125,0.09857487678527832,-0.5592868328094482,-1.3508615493774414
1789033872751584800,6.096584716796875,0.0513002872467041,-0.5268654823303223,-1.2522258758544922
1789033872761510000,6.106510009765625,-0.26613283157348633,-0.42836475372314453,-0.6752071380615234
1789033872771435300,6.116435302734375,-0.23066496849060059,-0.4793996810913086,-0.8949241638183594
1789033872781360400,6.1263603515625,-0.7803514003753662,-0.4362215995788574,-0.6781291961669922
1789033872791285800,6.13628564453125,-1.0731122493743896,-0.20824909210205078,0.025190353393554688
1789033872801211000,6.1462109375,-0.8346309661865234,0.11950302124023438,1.009603500366211
1789033872811136300,6.15613623046875,-0.47637033462524414,-0.1800365447998047,1.3856840133666992
1789033872821061400,6.166061279296875,0.36440396308898926,-1.0462543964385986,1.160299301147461
1789033872830986800,6.17598681640625,0.5410404205322266,-1.4584507942199707,1.582254409790039
1789033872840912100,6.185912109375,0.4335815906524658,-1.550905704498291,1.8871116638183594
1789033872850837200,6.195837158203125,-0.09147047996520996,-1.2256503105163574,2.0775041580200195
1789033872860762400,6.205762451171875,-0.11691951751708984,-1.215475082397461,2.0234193801879883
1789033872870687700,6.215687744140625,-0.6778590679168701,-1.275054931640625,2.141629219055176
1789033872880612900,6.22561279296875,-0.6851849555969238,-1.4485979080200195,2.119626998901367
1789033872890538000,6.2355380859375,-0.18532204627990723,-1.3310108184814453,1.6827116012573242
1789033872900463400,6.24546337890625,-0.25757527351379395,-0.8465409278869629,2.161205291748047
1789033872910388500,6.255388427734375,-0.7283353805541992,-0.33591651916503906,2.725780487060547
1789033872920313900,6.26531396484375,-1.2365124225616455,-0.3637528419494629,3.0305609703063965
1789033872930239000,6.275239013671875,-0.749647855758667,-0.5559821128845215,3.2001333236694336
1789033872940164000,6.2851640625,-0.3240487575531006,-0.7383518218994141,3.4005284309387207
1789033872950089500,6.29508935546875,-0.8095886707305908,-0.3408203125,3.3428282737731934
1789033872960014600,6.3050146484375,-0.4328114986419678,-0.2744278907775879,2.439145565032959
1789033872969939700,6.314939697265625,-0.37757349014282227,0.12720394134521484,1.8268771171569824
1789033872979865000,6.324864990234375,-0.9683878421783447,0.90911865234375,1.6336545944213867
1789033872989790200,6.334790283203125,-0.9892513751983643,0.9498066902160645,1.3596787452697754
1789033872999715300,6.34471533203125,-1.2784311771392822,1.0349817276000977,2.0737199783325195
1789033873009640700,6.354640625,-1.070349931716919,0.8322768211364746,2.6018972396850586
1789033873019565800,6.36456591796875,-0.9442157745361328,0.3544478416442871,2.334171772003174
1789033873029491000,6.374490966796875,-1.2278687953948975,0.1204843521118164,1.9625635147094727
1789033873039416300,6.384416259765625,-1.5291707515716553,0.13930606842041016,1.7548561096191406
1789033873049341400,6.394341552734375,-2.343078851699829,0.30783700942993164,2.2540836334228516
1789033873059266800,6.404266845703125,-2.5157923698425293,0.09390783309936523,2.748779296875
1789033873069192000,6.41419189453125,-2.146676540374756,-0.43734264373779297,3.0540757179260254
1789033873079117300,6.424117431640625,-1.2287194728851318,-0.6833887100219727,3.0861129760742188
1789033873089042400,6.43404248046875,0.4922165870666504,-0.3805074691772461,2.7459001541137695
1789033873098967800,6.4439677734375,1.7231204509735107,0.0032787322998046875,1.8331403732299805
1789033873108893000,6.453892822265625,2.7324588298797607,0.15120983123779297,0.3027963638305664
1789033873118818300,6.463818359375,2.570214033126831,0.12981414794921875,-0.6693229675292969
1789033873128743400,6.473743408203125,2.101059675216675,0.26441383361816406,-0.685554027557373
1789033873138668800,6.483668701171875,0.4650222063064575,-0.2815513610839844,-0.4532928466796875
1789033873148594000,6.493593994140625,-1.0749342441558838,-0.8365368843078613,0.20240497589111328
1789033873158519300,6.503519287109375,-1.6221857070922852,-0.46293067932128906,1.2903156280517578
1789033873168444400,6.5134443359375,-2.196248769760132,-0.0007090568542480469,2.5259552001953125
1789033873178369800,6.523369873046875,-1.4823222160339355,0.355832576751709,3.38858699798584
1789033873188295000,6.533294921875,-0.5095810890197754,0.1661672592163086,3.340701103210449
1789033873198220000,6.543219970703125,0.936043381690979,-0.2882709503173828,2.9013147354125977
1789033873208145400,6.5531455078125,1.9743430614471436,-0.6451239585876465,3.2426652908325195
1789033873218070500,6.563070556640625,1.4653692245483398,-1.144951343536377,3.5341129302978516
1789033873227995600,6.57299560546875,1.1932005882263184,-0.6582870483398438,4.6227216720581055
1789033873237921000,6.582921142578125,0.9101523160934448,-0.6709661483764648,4.752318382263184
1789033873247846100,6.59284619140625,1.2726486921310425,-1.0076098442077637,2.3458356857299805
1789033873257771300,6.602771240234375,0.29295897483825684,-0.09188127517700195,0.7482500076293945
1789033873267696600,6.612696533203125,-2.322460651397705,0.7622325420379639,0.5284442901611328
1789033873277621800,6.622621826171875,-4.000177383422852,0.2887842655181885,-0.13571453094482422
1789033873287547000,6.632546875,-2.9102234840393066,-0.31958627700805664,-0.12171649932861328
1789033873297472300,6.64247216796875,-0.4219062328338623,-0.9769513607025146,-0.027060508728027344
1789033873307397400,6.6523974609375,1.7797114849090576,-1.4013454914093018,0.41140079498291016
1789033873317322500,6.662322509765625,2.5297484397888184,-2.168832302093506,0.574488639831543
1789033873327248000,6.672247802734375,2.6455531120300293,-2.114609956741333,0.14593791961669922
1789033873337173000,6.682173095703125,1.7059365510940552,-1.3903377056121826,0.02935504913330078
1789033873347098000,6.69209814453125,0.8198263645172119,-1.2292230129241943,-0.6899929046630859
1789033873357023500,6.7020234375,1.1000194549560547,-1.1084424257278442,-1.6022953987121582
1789033873366948600,6.711948486328125,1.8060166835784912,-1.441271185874939,-2.721773624420166
1789033873376874000,6.7218740234375,2.393594980239868,-1.7870811223983765,-3.5543065071105957
1789033873386799400,6.73179931640625,2.4597790241241455,-1.8339709043502808,-4.580708026885986
1789033873396724500,6.741724365234375,2.4956202507019043,-1.0445680618286133,-5.268465518951416
1789033873406649900,6.75164990234375,1.6537835597991943,-0.051213979721069336,-5.314325332641602
1789033873416575000,6.761574951171875,0.6269145011901855,0.050423383712768555,-5.585921287536621
1789033873426500400,6.771500244140625,0.46968817710876465,0.07943415641784668,-5.342772960662842
1789033873436425500,6.781425537109375,1.005810022354126,0.356639564037323,-5.210742473602295
1789033873446350800,6.791350830078125,1.946187973022461,0.8001149892807007,-5.0408172607421875
1789033873456276000,6.80127587890625,2.5595154762268066,-0.4754762649536133,-5.666021347045898
1789033873466201300,6.811201416015625,1.8512334823608398,-0.6726287603378296,-4.9559807777404785
1789033873476126500,6.82112646484375,0.21694684028625488,-0.037026166915893555,-3.9231081008911133
1789033873486051600,6.831051513671875,0.4067409038543701,-0.1578388214111328,-4.417103290557861
1789033873495977000,6.84097705078125,0.3694007396697998,0.09578502178192139,-4.8641228675842285
1789033873505902000,6.850902099609375,-0.06807160377502441,0.22422540187835693,-4.9925150871276855
1789033873515827200,6.8608271484375,0.3833496570587158,0.20734143257141113,-4.56742525100708
1789033873525752600,6.870752685546875,0.2571544647216797,0.35234344005584717,-4.368575572967529
1789033873535677700,6.880677734375,-0.07607626914978027,0.6386178731918335,-3.0012478828430176
1789033873545602800,6.890602783203125,0.21802639961242676,0.6312187910079956,-2.0460801124572754
1789033873555528200,6.900528076171875,0.48501014709472656,-0.006195545196533203,-1.1309123039245605
1789033873565453300,6.910453369140625,0.584132194519043,-0.5155706405639648,-1.4424099922180176
1789033873575378700,6.920378662109375,0.28275299072265625,-0.7104671001434326,-1.3996939659118652
1789033873585304000,6.930303955078125,-0.6247653961181641,-0.6011447906494141,-1.0512046813964844
1789033873595229200,6.940229248046875,-0.7376689910888672,-0.5644757747650146,-0.8793792724609375
1789033873605154600,6.950154541015625,-0.7639141082763672,-0.8140718936920166,-0.7879419326782227
1789033873615079700,6.96007958984375,-0.5864355564117432,-0.7957048416137695,-0.7105121612548828
1789033873625005000,6.970005126953125,-0.23438620567321777,-0.6420073509216309,-0.09447956085205078
1789033873634930200,6.97993017578125,-0.051180362701416016,-0.49424242973327637,0.25580310821533203
1789033873644855600,6.98985546875,0.7550960779190063,-0.7092747688293457,0.3827180862426758
1789033873654780700,6.99978076171875,0.292621374130249,-0.9980452060699463,1.0766897201538086
1789033873664706000,7.0097060546875,0.12263810634613037,-1.1915483474731445,1.5664806365966797
1789033873674631200,7.019631103515625,0.39170265197753906,-1.4880199432373047,1.8474416732788086
1789033873684556300,7.029556396484375,-0.4093306064605713,-1.738339900970459,2.1172056198120117
1789033873694481400,7.0394814453125,-0.9292969703674316,-1.839829921722412,2.0984249114990234
1789033873704406500,7.049406494140625,-1.542691946029663,-1.9225473403930664,1.9715471267700195
1789033873714331600,7.05933154296875,-1.3804394006729126,-1.500546932220459,2.116999626159668
1789033873724256800,7.0692568359375,-0.599877119064331,-0.5814347267150879,2.939419746398926
1789033873734182000,7.079181884765625,-1.3975995779037476,-0.22514772415161133,3.7937088012695312
1789033873744107300,7.089107177734375,-0.8374943733215332,-0.5372066497802734,4.9365692138671875
1789033873754032400,7.099032470703125,-0.2652771472930908,-1.055844783782959,4.912858963012695
1789033873763957500,7.10895751953125,-0.6191936731338501,-1.0780625343322754,4.3448638916015625
1789033873773883000,7.1188828125,-0.7090659141540527,-0.4764270782470703,3.6528749465942383
1789033873783808000,7.12880810546875,-0.2217118740081787,0.3439903259277344,2.359969139099121
1789033873793733400,7.1387333984375,0.07649517059326172,1.1065778732299805,1.053877830505371
1789033873803658800,7.14865869140625,-0.4414248466491699,1.2443265914916992,0.5670404434204102
1789033873813584000,7.158583984375,-0.8040639162063599,1.3928236961364746,0.7649812698364258
1789033873823509200,7.16850927734375,-1.2184035778045654,1.1465716361999512,1.8785533905029297
1789033873833434400,7.178434326171875,-0.574996829032898,0.552006721496582,2.557249069213867
1789033873843359700,7.18835986328125,-0.8224800825119019,-0.09220409393310547,2.956681251525879
1789033873853284900,7.198284912109375,-0.9622111320495605,-0.187347412109375,3.031126022338867
1789033873863210200,7.208210205078125,-0.5415271520614624,-0.11408472061157227,2.4171762466430664
1789033873873135400,7.21813525390625,-0.813801646232605,0.057616233825683594,2.3337182998657227
1789033873883060500,7.228060546875,-0.6254463195800781,-0.17369365692138672,2.9062108993530273
1789033873892985900,7.23798583984375,-0.42885565757751465,-0.027109622955322266,3.0056066513061523
1789033873902911000,7.247910888671875,-0.5057463645935059,0.0959768295288086,2.7450170516967773
1789033873912836000,7.257836181640625,-0.33600950241088867,0.1605243682861328,1.542027473449707
1789033873922761500,7.267761474609375,0.46742188930511475,0.26041364669799805,0.9038820266723633
1789033873932686600,7.2776865234375,1.6533578634262085,0.38063955307006836,0.793299674987793
1789033873942611700,7.28761181640625,1.5863347053527832,0.35958051681518555,1.0001182556152344
1789033873952537000,7.297537109375,1.0671281814575195,0.21761608123779297,1.1710023880004883
1789033873962462200,7.307462158203125,0.06516432762145996,-0.02807903289794922,1.6824636459350586
1789033873972387300,7.31738720703125,0.17197048664093018,-0.31331300735473633,1.5515365600585938
1789033873982312700,7.327312744140625,0.16264939308166504,-0.2746286392211914,1.4462757110595703
1789033873992237800,7.33723779296875,0.08367371559143066,-0.10506820678710938,1.4504880905151367
1789033874002163000,7.347162841796875,-0.43235135078430176,0.22210478782653809,1.5025749206542969
1789033874012088300,7.35708837890625,-0.7255487442016602,0.2304399013519287,1.3302249908447266
1789033874022013400,7.367013427734375,-0.7273070812225342,-0.06819939613342285,1.329554557800293
1789033874031938600,7.3769384765625,0.32863152027130127,-0.7268319129943848,1.3320903778076172
1789033874041864000,7.386864013671875,0.43494510650634766,-1.0632343292236328,2.1328811645507812
1789033874051789000,7.3967890625,-0.07631397247314453,-0.7301888465881348,3.0282907485961914
1789033874061714400,7.40671435546875,-0.747124433517456,-0.4775056838989258,3.711688995361328
1789033874071639600,7.4166396484375,-0.25188112258911133,-0.5794985294342041,2.9294700622558594
1789033874081565000,7.42656494140625,0.8367685079574585,-0.7325773239135742,1.471858024597168
1789033874091490000,7.436489990234375,1.423952341079712,-1.1039893627166748,0.6364421844482422
1789033874101415400,7.44641552734375,1.2508364915847778,-1.437943935394287,0.8140420913696289
1789033874111340500,7.456340576171875,0.261502742767334,-1.6251246929168701,1.022233009338379
1789033874121266000,7.466265869140625,-0.42288875579833984,-1.4769983291625977,1.2304439544677734
1789033874131191300,7.47619140625,-0.9002711772918701,-1.2006349563598633,1.2358121871948242
1789033874141116400,7.486116455078125,-1.23807692527771,-1.577247142791748,0.6722698211669922
1789033874151041800,7.496041748046875,-0.14603376388549805,-1.6752322912216187,0.32546424865722656
1789033874160967000,7.505966796875,1.4782577753067017,-1.9373116493225098,-0.314544677734375
1789033874170892000,7.51589208984375,2.7984817028045654,-2.126654624938965,-1.311330795288086
1789033874180817200,7.525817138671875,2.84513258934021,-2.8568477630615234,-3.3492751121520996
1789033874190742300,7.5357421875,2.2138023376464844,-2.467602252960205,-4.411657810211182
1789033874200667400,7.54566748046875,1.3741085529327393,-1.4551560878753662,-4.922701358795166
1789033874210592500,7.555592529296875,0.62178635597229,-0.5630496740341187,-5.40252685546875
1789033874220518000,7.565517822265625,0.2958824634552002,-0.2823793292045593,-5.412950038909912
1789033874230443000,7.575443115234375,0.5011975765228271,-0.3754234313964844,-5.445206165313721
1789033874240368000,7.5853681640625,1.2739330530166626,-0.36195218563079834,-5.564405918121338
1789033874250293200,7.595293212890625,2.0246832370758057,-0.6063557863235474,-5.770493984222412
1789033874260218400,7.60521826171875,1.4137167930603027,-0.3525524139404297,-6.215544700622559
1789033874270143700,7.615143798828125,0.6350607872009277,0.34935566782951355,-6.311298847198486
1789033874280068900,7.62506884765625,0.3106226921081543,0.881879985332489,-5.9293975830078125
1789033874289994000,7.634993896484375,0.7893950939178467,0.37856578826904297,-5.810060024261475
1789033874299919400,7.64491943359375,0.9542832374572754,0.2140854001045227,-5.464554309844971
1789033874309844500,7.654844482421875,0.8338484764099121,-0.015599966049194336,-5.142899990081787
1789033874319769600,7.66476953125,0.6981369256973267,-0.060895323753356934,-4.778653621673584
1789033874329695000,7.674695068359375,0.5489240884780884,-0.23887181282043457,-4.738455772399902
1789033874339620000,7.6846201171875,-0.0506136417388916,-0.20068156719207764,-4.642953872680664
1789033874349545500,7.69454541015625,-0.5632150173187256,0.0437159538269043,-3.851029872894287
1789033874359470600,7.704470703125,0.055718421936035156,0.04649221897125244,-2.9184298515319824
1789033874369395700,7.714395751953125,0.11698246002197266,-0.2440049648284912,-2.4038305282592773
1789033874379321000,7.724321044921875,-0.17826271057128906,-0.41814494132995605,-1.8383960723876953
1789033874389246200,7.73424609375,-0.3699002265930176,-0.27704811096191406,-0.9535846710205078
1789033874399171300,7.74417138671875,-0.39417123794555664,-0.4266376495361328,-0.23646163940429688
1789033874409096700,7.7540966796875,-0.7271444797515869,-0.7130951881408691,-0.15884113311767578
1789033874419021800,7.764021728515625,-0.6148520708084106,-0.9437298774719238,0.09259223937988281
1789033874428947000,7.773947021484375,-0.25531530380249023,-1.0436525344848633,0.7116212844848633
1789033874438872300,7.783872314453125,0.24742305278778076,-1.1014463901519775,1.255894660949707
1789033874448797400,7.79379736328125,0.19491350650787354,-1.2790532112121582,1.6253719329833984
1789033874458722800,7.803722900390625,0.23163068294525146,-1.485435962677002,1.7496328353881836
1789033874468648000,7.81364794921875,0.2619471549987793,-1.6638150215148926,1.8622007369995117
1789033874478573300,7.8235732421875,-0.0970449447631836,-1.5382871627807617,2.299427032470703
1789033874488498400,7.83349853515625,0.041095852851867676,-2.106189727783203,2.3355541229248047
1789033874498423800,7.843423828125,-0.61279296875,-2.2530622482299805,2.7179861068725586
1789033874508349000,7.853348876953125,-0.6868332624435425,-2.2075462341308594,2.9671268463134766
1789033874518274300,7.8632744140625,-0.19886887073516846,-1.6143674850463867,3.2856969833374023
1789033874528199400,7.873199462890625,-1.6537575721740723,-1.2200331687927246,3.5693206787109375
1789033874538124800,7.883124755859375,-1.3863645792007446,-0.11503458023071289,4.432697296142578
1789033874548050000,7.8930498046875,-0.22142279148101807,0.09486055374145508,4.277177810668945
1789033874557975300,7.902975341796875,0.9142134785652161,0.005161762237548828,3.900149345397949
1789033874567900700,7.912900634765625,0.5456986427307129,-0.14875078201293945,3.441253662109375
1789033874577825800,7.92282568359375,-0.41609060764312744,-0.26126861572265625,3.1351394653320312
1789033874587751200,7.932751220703125,-1.1891448497772217,-0.01704692840576172,2.839104652404785
1789033874597676300,7.94267626953125,-1.162485122680664,0.4024696350097656,2.577312469482422
1789033874607601700,7.9526015625,-0.9880263805389404,0.9915413856506348,2.4874801635742188
1789033874617526800,7.96252685546875,-1.1263083219528198,1.453711986541748,2.1016292572021484
1789033874627452200,7.9724521484375,-0.379907488822937,1.6007983684539795,1.1251821517944336
1789033874637377300,7.982377197265625,-0.3938220739364624,1.3632407188415527,0.7530078887939453
1789033874647302700,7.992302734375,-0.8590761423110962,1.15087890625,1.0646753311157227
1789033874657227800,8.002227783203125,-1.4841009378433228,0.8505940437316895,2.0484142303466797
1789033874667153000,8.01215283203125,-1.8436298370361328,0.5268492698669434,2.989993095397949
1789033874677078000,8.022078125,-1.602662205696106,0.25180482864379883,3.5538082122802734
1789033874687003100,8.032003173828125,-0.9183785915374756,0.05310630798339844,3.7449169158935547
1789033874696928500,8.041928466796875,-0.3431154489517212,-0.002754688262939453,3.5291967391967773
1789033874706853600,8.051853515625,0.7661086916923523,-0.1268453598022461,2.232815742492676
1789033874716778800,8.06177880859375,1.0435779094696045,-0.09088754653930664,0.6842632293701172
1789033874726703900,8.071703857421875,1.2550233602523804,-0.09105730056762695,-0.5904664993286133
1789033874736629000,8.08162890625,1.07814621925354,0.16659212112426758,-0.7631597518920898
1789033874746554000,8.09155419921875,0.8198747038841248,0.42701005935668945,-0.7376313209533691
1789033874756479500,8.1014794921875,0.13613224029541016,0.2701125144958496,-0.39325618743896484
1789033874766404600,8.111404541015625,-0.1752312183380127,-0.2942171096801758,0.5074615478515625
1789033874776330000,8.121330078125,-0.2426091432571411,-0.7767744064331055,1.3598814010620117
1789033874786255000,8.131255126953125,-0.8604511022567749,-0.6222405433654785,2.6253890991210938
1789033874796180200,8.14118017578125,-0.9682337045669556,-0.17954730987548828,3.4968175888061523
1789033874806105300,8.151105224609376,-0.32433438301086426,0.25804734230041504,3.5992565155029297
1789033874816030700,8.16103076171875,0.7020354270935059,0.047007083892822266,2.873019218444824
1789033874825955800,8.170955810546875,0.7440980672836304,-0.7856287956237793,1.8533926010131836
1789033874835881200,8.180881103515626,0.21551406383514404,-1.3874907493591309,1.0298328399658203
1789033874845806300,8.190806396484374,-1.0884685516357422,-1.1004536151885986,0.7799434661865234
1789033874855731500,8.2007314453125,-2.372100591659546,-0.5302371978759766,2.0438995361328125
1789033874865656800,8.21065673828125,-1.54170560836792,-0.3731045722961426,3.110285758972168
1789033874875582000,8.22058203125,0.04118824005126953,-0.8181982040405273,3.121159553527832
1789033874885507000,8.230507080078125,1.0810179710388184,-1.400986909866333,3.206012725830078
1789033874895432400,8.240432373046875,1.6133289337158203,-2.206542491912842,2.7788257598876953
1789033874905357600,8.250357666015624,1.315722107887268,-2.4216742515563965,1.698007583618164
1789033874915282700,8.26028271484375,-0.0383458137512207,-1.9944450855255127,0.7016801834106445
1789033874925208000,8.2702080078125,-1.0202807188034058,-1.1255674362182617,-0.12356758117675781
1789033874935133200,8.28013330078125,-1.1576619148254395,-0.7869601249694824,-0.9512538909912109
1789033874945058300,8.290058349609374,-0.718773603439331,-1.1797068119049072,-1.1596479415893555
1789033874954983700,8.299983642578125,0.1640094518661499,-1.4808017015457153,-1.045639991760254
1789033874964908800,8.30990869140625,1.414643406867981,-1.6061944961547852,-0.9508438110351562
1789033874974834000,8.319833984375,1.9618687629699707,-2.238980293273926,-1.3927593231201172
1789033874984759300,8.32975927734375,2.0606541633605957,-2.9429872035980225,-3.125533103942871
1789033874994684400,8.339684326171875,1.7521347999572754,-2.2960596084594727,-4.214865684509277
1789033875004609800,8.34960986328125,1.2961015701293945,-1.4329125881195068,-4.856400966644287
1789033875014535000,8.359534912109375,1.0026782751083374,-0.9462813138961792,-5.5340728759765625
1789033875024460000,8.3694599609375,0.24469399452209473,-0.17580091953277588,-5.473048686981201
1789033875034385400,8.379385498046876,0.20840728282928467,-0.935021162033081,-6.0063910484313965
1789033875044310500,8.389310546875,1.0771442651748657,-0.48013126850128174,-5.9440507888793945
1789033875054235600,8.399235595703125,1.465878963470459,0.7140218615531921,-5.714878082275391
1789033875064161000,8.4091611328125,1.5443614721298218,0.6689671277999878,-6.067049980163574
1789033875074086100,8.419086181640624,0.9178817272186279,0.01090240478515625,-5.6751322746276855
1789033875084011300,8.42901123046875,-0.06616926193237305,-0.3509104251861572,-5.507071495056152
1789033875093936400,8.438936279296875,-0.07831096649169922,-0.006542205810546875,-5.373315811157227
1789033875103861800,8.44886181640625,0.006426095962524414,0.5620180368423462,-5.144599914550781
1789033875113787000,8.458786865234375,0.03591310977935791,0.9269317388534546,-5.152207374572754
1789033875123712000,8.4687119140625,0.3293665647506714,1.0656664371490479,-4.612821102142334
1789033875133637400,8.478637451171876,0.46703803539276123,0.7355934977531433,-4.555274486541748
1789033875143562500,8.4885625,0.12056028842926025,0.5829704999923706,-4.003496170043945
1789033875153487600,8.498487548828125,-0.33255982398986816,0.5595096349716187,-2.818720817565918
1789033875163413000,8.5084130859375,-0.2240382432937622,0.09845447540283203,-1.9422717094421387
1789033875173338000,8.518338134765624,-0.05264437198638916,-0.47305727005004883,-2.037226676940918
1789033875183263200,8.52826318359375,-0.5457495450973511,-0.572951078414917,-1.7882437705993652
1789033875193188600,8.538188720703126,-0.8898335695266724,-0.4503633975982666,-1.057596206665039
1789033875203113700,8.54811376953125,-0.6040736436843872,-0.5178163051605225,-0.7523403167724609
1789033875213038800,8.558038818359375,-0.4214881658554077,-0.8320727348327637,-0.6710605621337891
1789033875222964200,8.567964111328125,-0.31051552295684814,-1.197587490081787,-0.5853147506713867
1789033875232889300,8.577889404296876,-0.037412405014038086,-1.2059876918792725,-0.009677886962890625
1789033875242814500,8.587814453125,-0.42417383193969727,-1.3561172485351562,0.39999961853027344
1789033875252739800,8.59773974609375,-0.6273144483566284,-1.6238858699798584,0.9694986343383789
1789033875262665000,8.6076650390625,-0.25797855854034424,-1.7844774723052979,1.3979225158691406
1789033875272590000,8.617590087890624,-0.19916558265686035,-2.2100677490234375,1.756852149963379
1789033875282515500,8.627515380859375,-0.034215569496154785,-2.3813748359680176,2.2550668716430664
1789033875292440600,8.637440673828126,-0.27719104290008545,-2.085244655609131,2.4095897674560547
1789033875302365700,8.64736572265625,-0.7420722842216492,-2.0903124809265137,2.38427734375
1789033875312291000,8.657291015625,-0.9604676365852356,-1.5859761238098145,3.009486198425293
1789033875322216200,8.66721630859375,-1.253425121307373,-0.6518983840942383,3.4875917434692383
1789033875332141600,8.6771416015625,-1.6050373315811157,-0.4558544158935547,4.060890197753906
1789033875342066700,8.687066650390625,-0.31202876567840576,-0.6131858825683594,4.460470199584961
1789033875351991800,8.69699169921875,0.37741705775260925,-0.8830986022949219,4.418560981750488
1789033875361917000,8.7069169921875,0.0030375123023986816,-0.7821707725524902,4.606468200683594
1789033875371842000,8.716842041015624,-0.399814248085022,-0.8163642883300781,3.601217269897461
1789033875381767400,8.726767333984375,-1.360891342163086,-0.6694893836975098,2.788632392883301
1789033875391692500,8.736692626953126,-1.120693564414978,-0.4833526611328125,2.2648534774780273
1789033875401618000,8.746617919921874,-1.1523053646087646,0.049952030181884766,2.5430240631103516
1789033875411543000,8.75654296875,-1.277269721031189,0.49822282791137695,2.8280200958251953
1789033875421468200,8.76646826171875,-1.3919565677642822,0.7667484283447266,2.910519599914551
1789033875431393500,8.7763935546875,-1.3107223510742188,1.0576562881469727,2.5962448120117188
1789033875441318700,8.786318603515625,-1.763830304145813,1.3232054710388184,2.3837099075317383
1789033875451243800,8.796243896484375,-0.8941565752029419,1.49717378616333,1.622908592224121
1789033875461169200,8.806169189453126,0.10349273681640625,1.0716724395751953,0.6911191940307617
1789033875471094300,8.81609423828125,-0.13416790962219238,0.9451689720153809,0.03491783142089844
1789033875481019400,8.826019287109375,-0.6787494421005249,0.6861944198608398,0.3271303176879883
1789033875490944800,8.83594482421875,-0.26497316360473633,0.4516925811767578,0.49451351165771484
1789033875500870000,8.845869873046874,0.03441596031188965,0.2703537940979004,0.363677978515625
1789033875510795000,8.855794921875,0.058792829513549805,0.23491859436035156,-0.07254314422607422
1789033875520720100,8.86572021484375,0.23347735404968262,0.48592233657836914,-0.44733095169067383
1789033875530645500,8.8756455078125,0.22169947624206543,0.8587856292724609,-0.15745830535888672
1789033875540570600,8.885570556640625,0.4835926294326782,1.078181266784668,0.5758275985717773
1789033875550495700,8.895495849609375,0.5689046382904053,0.709228515625,1.1207408905029297
1789033875560421000,8.905421142578126,0.6481946110725403,-0.0967874526977539,1.105611801147461
1789033875570346200,8.91534619140625,0.6501625180244446,-0.7822794914245605,1.1096324920654297
1789033875580271400,8.925271240234375,-0.2539944648742676,-1.1942596435546875,1.3377809524536133
1789033875590196700,8.93519677734375,-1.460310697555542,-1.2510662078857422,2.2704381942749023
1789033875600121900,8.945121826171874,-1.8046396970748901,-1.2012887001037598,3.0019664764404297
1789033875610047000,8.955046875,-1.5247318744659424,-1.091364860534668,3.760239601135254
1789033875619972400,8.964972412109375,-0.6999740600585938,-0.6647524833679199,3.92331600189209
1789033875629897500,8.9748974609375,0.3343026638031006,-0.5734391212463379,3.4985504150390625
1789033875639822600,8.984822509765625,1.328750491142273,-0.6077332496643066,2.512467384338379
1789033875649748000,8.994748046875,1.7369197607040405,-0.7171640396118164,0.9841232299804688
1789033875659673000,9.004673095703126,1.1487617492675781,-0.5670289993286133,-0.3603382110595703
1789033875669598200,9.01459814453125,-0.0691990852355957,-0.4415860176086426,-0.8275928497314453
1789033875679523300,9.0245234375,-0.747022271156311,0.07085180282592773,-0.9405794143676758
1789033875689448700,9.03444873046875,-1.851007342338562,0.7328677177429199,-0.5421562194824219
1789033875699373800,9.044373779296874,-1.4287807941436768,1.170982837677002,-0.12815093994140625
1789033875709299000,9.054298828125,-0.9100031852722168,1.1824655532836914,0.33635807037353516
1789033875719224300,9.064224365234375,-1.305307149887085,0.5774128437042236,1.028982162475586
1789033875729149400,9.0741494140625,-1.3227595090866089,-0.21694064140319824,2.5406923294067383
1789033875739074600,9.084074462890625,-0.17461419105529785,-0.9150900840759277,3.137907028198242
1789033875749000000,9.094,1.1671216487884521,-1.8377537727355957,1.9905567169189453
1789033875758925000,9.103925048828126,1.6781387329101562,-2.170442819595337,0.5641975402832031
1789033875768850200,9.11385009765625,0.8360004425048828,-2.0484375953674316,-0.5018129348754883
1789033875778775300,9.123775390625,-0.1318873167037964,-1.6152048110961914,-0.8468532562255859
1789033875788700700,9.13370068359375,-1.082979440689087,-1.1824254989624023,-0.7799081802368164
1789033875798625800,9.143625732421874,-1.4998465776443481,-0.9577338695526123,-0.7347345352172852
1789033875808551000,9.153551025390625,-1.0882618427276611,-0.8349609375,-0.5261030197143555
1789033875818476300,9.163476318359375,-0.6452196836471558,-0.7618329524993896,-0.4472160339355469
1789033875828401400,9.1734013671875,-0.17400622367858887,-1.0310614109039307,-0.33755016326904297
1789033875838326500,9.183326416015625,0.18104565143585205,-1.5569590330123901,-0.4609251022338867
1789033875848252000,9.193251953125,0.6701151132583618,-0.9746334552764893,-1.097269058227539
1789033875858177000,9.203177001953126,0.5150682926177979,-1.3083734512329102,-2.004539966583252
1789033875868102100,9.21310205078125,0.8474162817001343,-0.877264142036438,-2.3142924308776855
1789033875878027300,9.22302734375,0.8907217979431152,-0.8452684879302979,-3.032505512237549
1789033875887952600,9.23295263671875,0.7876933813095093,-0.9318217039108276,-3.5854878425598145
1789033875897877800,9.242877685546874,0.47614097595214844,-1.047521948814392,-3.8199501037597656
1789033875907803000,9.252802978515625,0.8547810316085815,-0.03680264949798584,-3.832345485687256
1789033875917728300,9.262728271484375,0.3288975954055786,-1.0061907768249512,-4.963168144226074
1789033875927653400,9.2726533203125,-0.10048449039459229,-0.4216489791870117,-4.586552143096924
1789033875937578800,9.282578857421875,-0.23220109939575195,-0.4702855348587036,-4.512864112854004
1789033875947503900,9.29250390625,0.7734004259109497,-0.9694465398788452,-4.14317512512207
1789033875957429000,9.302428955078126,1.250274896621704,-0.7933346033096313,-3.4820947647094727
1789033875967354000,9.31235400390625,0.1772754192352295,-0.37811756134033203,-3.0990419387817383
1789033875977279200,9.322279296875,-0.6805100440979004,-0.12439179420471191,-3.1273155212402344
1789033875987204600,9.33220458984375,-1.0258268117904663,-0.1144024133682251,-3.0642848014831543
1789033875997129700,9.342129638671874,-0.900978684425354,-0.08430659770965576,-2.603999137878418
1789033876007055000,9.35205517578125,-0.7278348207473755,-0.3429633378982544,-2.296083927154541
1789033876016980200,9.361980224609376,-0.9434702396392822,-0.26294052600860596,-1.9712953567504883
1789033876026905300,9.3719052734375,-0.8635371923446655,-0.21904826164245605,-1.924623966217041
1789033876036830500,9.38183056640625,-0.9112499952316284,-0.12155377864837646,-2.15091609954834
1789033876046755600,9.391755615234375,-0.7767668962478638,-0.036596059799194336,-2.077996253967285
1789033876056681000,9.401680908203126,-0.3701063394546509,-0.1505448818206787,-2.1941604614257812
1789033876066606000,9.411606201171875,-0.18033158779144287,-0.24505209922790527,-2.5658230781555176
1789033876076531500,9.421531494140625,-0.43647778034210205,-0.17323517799377441,-2.662203311920166
1789033876086456600,9.43145654296875,-0.5845251083374023,0.19742393493652344,-2.5013604164123535
1789033876096381700,9.441381591796874,-0.6961251497268677,0.6720560789108276,-1.9690403938293457
1789033876106307000,9.45130712890625,-0.6129798889160156,0.9261671304702759,-1.3487200736999512
1789033876116232200,9.461232177734376,-0.6580343246459961,0.8218635320663452,-0.7740097045898438
1789033876126157300,9.4711572265625,-0.4866173267364502,0.4067666530609131,-0.0015954971313476562
1789033876136082400,9.48108251953125,-0.3389592170715332,-0.11707878112792969,0.6571798324584961
1789033876146007800,9.4910078125,-0.35580623149871826,-0.5247817039489746,1.2263050079345703
1789033876155933000,9.500932861328126,-0.21529090404510498,-0.8219201564788818,1.4530963897705078
1789033876165858000,9.510858154296875,-0.40562760829925537,-1.3042852878570557,1.2913522720336914
1789033876175783400,9.520783447265625,-0.7163732051849365,-1.5382416248321533,1.3573408126831055
1789033876185708500,9.53070849609375,-0.7043439149856567,-1.6164109706878662,1.2249345779418945
1789033876195633700,9.540633544921874,-0.5268375873565674,-1.4112319946289062,1.299997329711914
1789033876205558800,9.550558837890625,-0.22725796699523926,-1.4169726371765137,1.1990833282470703
1789033876215484200,9.560484130859376,-0.06355053186416626,-1.8283390998840332,0.9482822418212891
1789033876225409300,9.5704091796875,-0.17345154285430908,-1.60392427444458,1.1303586959838867
1789033876235334400,9.58033447265625,-0.823428213596344,-1.2293682098388672,1.417170524597168
1789033876245259800,9.590259765625,-0.7199377417564392,-0.4918661117553711,1.6829137802124023
1789033876255185000,9.600184814453126,-0.14631175994873047,-0.42958593368530273,1.2407159805297852
1789033876265110000,9.610110107421875,-0.39895302057266235,-0.10444831848144531,1.4767818450927734
1789033876275035100,9.62003515625,-0.42384761571884155,0.10991430282592773,1.8906822204589844
1789033876284960500,9.62996044921875,-0.138993501663208,-0.176361083984375,1.5129051208496094
1789033876294885600,9.6398857421875,0.11930012702941895,-0.13936185836791992,1.2524642944335938
1789033876304810800,9.649810791015625,-0.6280842423439026,-0.08453178405761719,1.6561851501464844
1789033876314736000,9.659736083984376,-0.4118924140930176,-0.25896787643432617,1.8348560333251953
1789033876324661200,9.6696611328125,-0.5524097084999084,-0.5724773406982422,1.9534339904785156
1789033876334586400,9.67958642578125,-0.6607968807220459,-0.24266862869262695,2.6845970153808594
1789033876344511500,9.689511474609375,-0.30491459369659424,-0.018169403076171875,2.807591438293457
1789033876354436900,9.699436767578124,-0.18215662240982056,0.0590968132019043,2.4813785552978516
1789033876364362000,9.709362060546875,-0.1515783667564392,0.5475950241088867,2.169365882873535
1789033876374287000,9.719287109375,-0.21587365865707397,0.6069602966308594,1.4759407043457031
1789033876384212500,9.72921240234375,-0.6954139471054077,0.5351691246032715,0.9902706146240234
1789033876394137600,9.7391376953125,-0.9981063604354858,0.28592586517333984,0.7274332046508789
1789033876404062700,9.749062744140625,-1.3880740404129028,0.026279449462890625,1.154952049255371
1789033876413987800,9.75898779296875,-2.0932559967041016,-0.012253761291503906,1.9410991668701172
1789033876423913200,9.768913330078124,-1.5946661233901978,-0.10382223129272461,2.4719743728637695
1789033876433838300,9.77883837890625,-0.31453609466552734,-0.365786075592041,2.249575614929199
1789033876443763500,9.788763427734375,-0.01790475845336914,-0.30377960205078125,1.8193864822387695
1789033876453688600,9.7986884765625,0.26284563541412354,-0.2619476318359375,1.2584466934204102
1789033876463614000,9.808614013671875,-0.15359747409820557,0.2568936347961426,0.81280517578125
1789033876473539000,9.8185390625,0.26435112953186035,-0.06601238250732422,-0.0034637451171875
1789033876483464200,9.828464111328126,0.3502900004386902,0.03362751007080078,-0.1799325942993164
1789033876493389600,9.8383896484375,0.289861798286438,0.14624834060668945,-0.05919456481933594
1789033876503314700,9.848314697265625,-0.13939929008483887,0.2099757194519043,0.6654672622680664
1789033876513239800,9.85823974609375,-0.26891028881073,0.1582317352294922,1.3863544464111328
1789033876523165000,9.8681650390625,-0.539819598197937,0.014011383056640625,2.00167179107666
1789033876533090300,9.87809033203125,-0.29702651500701904,-0.1518111228942871,1.9941864013671875
1789033876543015400,9.888015380859375,0.0010699033737182617,-0.2542543411254883,1.9705581665039062
1789033876552940500,9.8979404296875,0.41779184341430664,-0.4459218978881836,1.5819807052612305
1789033876562866000,9.907865966796875,0.557906985282898,-0.5493192672729492,1.2539682388305664
1789033876572791000,9.917791015625,0.5917654037475586,-0.42592287063598633,0.9679403305053711
1789033876582716200,9.927716064453126,0.12513470649719238,0.041332244873046875,0.9303054809570312
1789033876592641300,9.937641357421874,0.1683199405670166,0.4187159538269043,1.0112695693969727
1789033876602566700,9.947566650390625,0.2840306758880615,0.09528779983520508,1.2391986846923828
1789033876612491800,9.95749169921875,0.3077942132949829,0.059897422790527344,1.5368261337280273
1789033876622417000,9.9674169921875,0.4703104496002197,0.19106101989746094,1.630915641784668
1789033876632342000,9.977342041015625,0.7799191474914551,0.4976310729980469,1.2766103744506836
1789033876642267400,9.987267333984375,0.9899280667304993,0.2341930866241455,0.5283098220825195
1789033876652192500,9.997192626953124,0.6181497573852539,-0.696075439453125,-0.3054943084716797
1789033876662117600,10.00711767578125,-0.13999462127685547,-1.3270659446716309,-0.24814414978027344
1789033876672042800,10.017042724609375,-0.47138214111328125,-1.7406964302062988,0.27414703369140625
1789033876681968000,10.026968017578126,-0.29502177238464355,-1.4745543003082275,0.6981172561645508
1789033876691893200,10.036893310546875,0.17047858238220215,-1.135847806930542,1.1242284774780273
1789033876701818400,10.046818359375,0.7271862030029297,-0.7246496677398682,0.8542976379394531
1789033876711743700,10.05674365234375,0.45573437213897705,-0.6009402275085449,0.8807773590087891
1789033876721668900,10.0666689453125,0.28360748291015625,-0.8061695098876953,0.8249874114990234
1789033876731594000,10.076593994140625,0.3290475606918335,-0.8940143585205078,0.8057870864868164
1789033876741519000,10.08651904296875,0.2078763246536255,-0.7704892158508301,0.6755084991455078
1789033876751444500,10.096444580078124,0.0414576530456543,-0.8027968406677246,0.589900016784668
1789033876761369600,10.10636962890625,0.3736618757247925,-1.0666728019714355,0.2781858444213867
1789033876771294700,10.116294677734375,1.2413296699523926,-1.3131043910980225,-0.043552398681640625
1789033876781220000,10.12622021484375,1.100836157798767,-1.599257230758667,-0.3192710876464844
1789033876791145200,10.136145263671875,0.7399970293045044,-1.4394662380218506,-0.8224611282348633
1789033876801070300,10.1460703125,0.10923314094543457,-1.0744149684906006,-1.0893707275390625
1789033876810995500,10.155995361328126,-0.3592545986175537,-0.9760720729827881,-1.6390008926391602
1789033876820920800,10.1659208984375,-0.4027101993560791,-0.8634599447250366,-2.40916109085083
1789033876830846000,10.175845947265625,-0.08809995651245117,-0.4513206481933594,-2.4771509170532227
1789033876840771000,10.18577099609375,0.9925843477249146,-0.007383227348327637,-2.283125400543213
1789033876850696200,10.1956962890625,1.9607709646224976,-0.05492293834686279,-2.515963554382324
1789033876860621300,10.205621337890625,2.0239715576171875,-0.6131336688995361,-2.5226221084594727
1789033876870546700,10.215546630859375,1.552026629447937,-0.825493574142456,-3.1475963592529297
1789033876880471800,10.225471923828126,1.080187201499939,-1.4364233016967773,-3.9986443519592285
1789033876890397000,10.23539697265625,0.7039995193481445,-0.5603710412979126,-4.552949905395508
1789033876900322000,10.245322021484375,0.4852031469345093,0.13223612308502197,-5.312841892242432
1789033876910247400,10.255247314453126,-0.20553922653198242,0.5699464678764343,-5.08069372177124
1789033876920172500,10.265172607421874,-0.2395620346069336,0.8197301626205444,-3.8409857749938965
1789033876930097700,10.27509765625,0.9940510988235474,0.271697998046875,-3.1722559928894043
1789033876940022800,10.285022705078125,1.0760761499404907,-0.2744661569595337,-2.9680376052856445
1789033876949948200,10.2949482421875,0.41165173053741455,-0.7009999752044678,-3.3080530166625977
1789033876959873300,10.304873291015625,0.23235797882080078,-0.9121122360229492,-4.04198694229126
1789033876969798400,10.31479833984375,-0.12357497215270996,-0.04915213584899902,-3.6345014572143555
1789033876979723500,10.3247236328125,-0.4775419235229492,0.3388756513595581,-2.9764862060546875
1789033876989649000,10.33464892578125,-0.12717366218566895,0.21445274353027344,-2.885695457458496
1789033876999574000,10.344573974609375,0.1448378562927246,-0.07937800884246826,-2.8354954719543457
1789033877009499100,10.3544990234375,-0.09650063514709473,-0.1460486650466919,-2.5200724601745605
1789033877019424500,10.364424560546874,-0.04000735282897949,-0.0023508071899414062,-2.302180767059326
1789033877029349600,10.374349609375,-0.04493296146392822,0.17591238021850586,-2.062704563140869
1789033877039274800,10.384274658203125,0.1724381446838379,0.19622385501861572,-1.9704341888427734
1789033877049199900,10.394199951171874,0.3980323076248169,0.12001156806945801,-1.7762775421142578
1789033877059125200,10.404125244140625,0.2835273742675781,-0.002998828887939453,-1.3448586463928223
1789033877069050400,10.41405029296875,-0.03863942623138428,0.16318345069885254,-0.6239795684814453
1789033877078975500,10.4239755859375,-0.10113072395324707,0.10089635848999023,-0.24994182586669922
1789033877088900600,10.433900634765624,0.1555083990097046,-0.35716843605041504,-0.2510528564453125
1789033877098826000,10.443825927734375,-0.13178575038909912,-0.9037578105926514,-0.21686267852783203
1789033877108751000,10.453751220703126,-0.33230745792388916,-1.0323305130004883,0.13443374633789062
1789033877118676200,10.46367626953125,-0.9899530410766602,-0.6975007057189941,0.6698341369628906
1789033877128601300,10.473601318359375,-0.9899516105651855,-0.300217866897583,1.2276220321655273
1789033877138526700,10.483526611328125,-0.5845823287963867,-0.5085422992706299,1.039285659790039
1789033877148451800,10.493451904296874,-0.216467022895813,-1.1519215106964111,0.9503679275512695
1789033877158377000,10.503376953125,0.24608945846557617,-1.5089936256408691,1.3023290634155273
1789033877168302000,10.513302001953125,0.5498399138450623,-1.536557674407959,1.6491994857788086
1789033877178227500,10.5232275390625,-0.30283427238464355,-1.470271110534668,2.258695602416992
1789033877188152600,10.533152587890624,-0.4301658868789673,-1.5080971717834473,2.5634374618530273
1789033877198077700,10.54307763671875,-0.4099050760269165,-1.551443099975586,2.296417236328125
1789033877208003000,10.553003173828126,-0.34261131286621094,-1.316690444946289,1.8813962936401367
1789033877217928200,10.56292822265625,0.22957926988601685,-1.1537480354309082,0.9135322570800781
1789033877227853300,10.572853271484375,0.0021380186080932617,-0.8771181106567383,0.15474414825439453
1789033877237778400,10.5827783203125,-0.06835168600082397,-0.09733057022094727,0.033199310302734375
1789033877247703600,10.59270361328125,-0.462585985660553,0.47982025146484375,0.37975120544433594
1789033877257629000,10.60262890625,-0.33819079399108887,0.7633810043334961,1.0403642654418945
1789033877267554000,10.612553955078125,-0.006488204002380371,0.8133139610290527,2.1648435592651367
1789033877277479200,10.622479248046876,0.3604356646537781,0.8027462959289551,2.659977912902832
1789033877287404300,10.632404296875,0.24935472011566162,0.8145785331726074,2.7487478256225586
1789033877297329700,10.64232958984375,-0.08242624998092651,0.18546581268310547,2.3012170791625977
1789033877307254800,10.6522548828125,-0.37349164485931396,-0.04879045486450195,2.2040481567382812
1789033877317180000,10.662179931640624,-0.408461332321167,0.08102226257324219,2.7657432556152344
1789033877327105000,10.67210498046875,-0.5499950647354126,0.5413174629211426,3.31874942779541
1789033877337030400,10.682030517578125,0.14259254932403564,0.6650300025939941,2.474170684814453
1789033877346955500,10.69195556640625,0.4995517134666443,0.3954653739929199,1.0969438552856445
1789033877356880600,10.701880615234375,0.29022103548049927,0.3751187324523926,0.19718456268310547
1789033877366805800,10.7118056640625,-0.29718339443206787,0.46518850326538086,-0.292264461517334
1789033877376731100,10.721731201171876,-0.8730531930923462,0.5353364944458008,0.052557945251464844
1789033877386656300,10.73165625,-1.0840342044830322,0.21685075759887695,0.7610683441162109
1789033877396581400,10.741581298828125,-1.369903564453125,-0.3605813980102539,1.4124112129211426
1789033877406506500,10.751506591796876,-1.7347427606582642,-0.4896411895751953,2.140881061553955
1789033877416431900,10.761431884765624,-1.300329327583313,-0.5914840698242188,2.54398775100708
1789033877426357000,10.77135693359375,-0.5732383728027344,-0.6768255233764648,2.667276382446289
1789033877436282000,10.7812822265625,-0.246834397315979,-0.522742748260498,2.810100555419922
1789033877446207200,10.791207275390626,-0.04083418846130371,-0.32772159576416016,2.9808807373046875
1789033877456132600,10.801132568359375,0.8945714831352234,-0.46527624130249023,2.524102210998535
1789033877466057700,10.8110576171875,1.2108557224273682,0.05903434753417969,1.5329523086547852
1789033877475982800,10.82098291015625,1.6788654327392578,0.11806726455688477,0.6209993362426758
1789033877485908000,10.830907958984374,2.0387420654296875,0.03522539138793945,0.44977855682373047
1789033877495833000,10.8408330078125,2.162463665008545,-0.12898826599121094,0.12090778350830078
1789033877505758500,10.850758544921876,0.9510517120361328,-0.020369529724121094,0.04140663146972656
1789033877515683600,10.86068359375,0.20344626903533936,-0.009416580200195312,0.037436485290527344
1789033877525608700,10.870608642578125,-0.6770721673965454,0.0004119873046875,0.4751148223876953
1789033877535533800,10.880533935546875,-0.601934552192688,-0.10073328018188477,1.0929021835327148
1789033877545459200,10.890459228515626,-0.8193991184234619,-0.25830745697021484,1.878514289855957
1789033877555384300,10.90038427734375,-0.37658679485321045,-0.18089675903320312,2.2215843200683594
1789033877565309400,10.910309326171875,0.9043770432472229,0.10737943649291992,1.9608001708984375
1789033877575234600,10.920234619140626,0.3991684913635254,0.43593597412109375,1.6773242950439453
1789033877585160000,10.930159912109374,0.5192375183105469,-0.4586176872253418,0.96527099609375
1789033877595085000,10.9400849609375,0.1742076873779297,-1.1354775428771973,1.0228309631347656
1789033877605010200,10.95001025390625,0.8264247179031372,-1.4344916343688965,0.46274280548095703
1789033877614935300,10.959935302734374,1.3867053985595703,-0.8230891227722168,-0.2630481719970703
1789033877624860700,10.969860595703125,1.2300865650177002,-0.8292322158813477,-1.0342750549316406
1789033877634785800,10.979785888671875,1.238715648651123,-1.1146142482757568,-0.7294340133666992
1789033877644711000,10.9897109375,0.4727773666381836,-0.5408658981323242,0.7590713500976562
1789033877654636000,10.999635986328125,-0.631972074508667,-0.05472731590270996,1.0958194732666016
1789033877664561400,11.0095615234375,-0.9924085140228271,-0.642219066619873,-0.10021114349365234
1789033877674486500,11.019486572265626,-1.7774832248687744,-0.6200759410858154,-0.7077264785766602
1789033877684411600,11.02941162109375,-2.676469564437866,-0.39094042778015137,-0.34301185607910156
1789033877694336800,11.039336669921875,-1.3727171421051025,-0.6767394542694092,-0.021706581115722656
1789033877704262000,11.049261962890625,0.641700029373169,-0.7504184246063232,-0.0051212310791015625
1789033877714187300,11.059187255859374,3.005079984664917,-0.8010964393615723,-0.22478675842285156
1789033877724112400,11.0691123046875,3.299260139465332,-0.9096837043762207,0.46849632263183594
1789033877734037500,11.07903759765625,2.097428798675537,-0.9080524444580078,0.5351190567016602
1789033877743962600,11.088962646484376,0.7987838983535767,-0.13580799102783203,3.2058839797973633
1789033877753888000,11.098887939453125,-0.4048290252685547,-0.41855430603027344,3.3721113204956055
1789033877763813000,11.108813232421875,-0.9214764833450317,-0.9571104049682617,2.213494300842285
1789033877773738200,11.11873828125,-0.7640141248703003,-1.471315622329712,-0.31417369842529297
1789033877783663400,11.128663330078124,-1.1053801774978638,-1.4886658191680908,-1.589198112487793
1789033877793588700,11.138588623046875,-0.22814905643463135,-1.2098989486694336,-2.385011672973633
1789033877803513900,11.148513916015625,0.42480361461639404,-0.785759449005127,-2.5523881912231445
1789033877813439000,11.15843896484375,0.8000497817993164,-0.24123477935791016,-2.5960254669189453
1789033877823364000,11.168364013671875,0.8788247108459473,-0.022522807121276855,-2.4703493118286133
1789033877833289500,11.17828955078125,1.1356046199798584,-0.4105268716812134,-2.6399192810058594
1789033877843214600,11.188214599609376,1.911291480064392,-0.7801526784896851,-3.491886615753174
1789033877853139700,11.1981396484375,1.407050609588623,-0.49172544479370117,-3.9942102432250977
1789033877863064800,11.20806494140625,0.24257314205169678,-0.3517671823501587,-4.424100399017334
1789033877872990000,11.217989990234376,-0.31269967555999756,-0.6434729099273682,-4.850343227386475
1789033877882915000,11.2279150390625,-0.7278138399124146,-0.5945309400558472,-4.936476707458496
1789033877892840400,11.23784033203125,-0.9314186573028564,0.012545228004455566,-4.382955074310303
1789033877902765600,11.247765625,-0.3762284517288208,0.20128333568572998,-4.300310134887695
1789033877912690700,11.257690673828124,0.05445051193237305,0.3030259609222412,-3.9764809608459473
1789033877922615800,11.26761572265625,0.7815966606140137,0.08829772472381592,-3.766139030456543
1789033877932541200,11.277541259765625,0.9228324890136719,0.1649090051651001,-3.602477550506592
1789033877942466300,11.28746630859375,0.33380746841430664,0.3643655776977539,-3.0265426635742188
1789033877952391400,11.297391357421875,-0.45412635803222656,0.5971090793609619,-2.177342414855957
1789033877962316500,11.307316650390625,-0.20655906200408936,0.5123816728591919,-1.8621101379394531
1789033877972241700,11.31724169921875,0.11944639682769775,0.28898847103118896,-1.9891390800476074
1789033877982167000,11.3271669921875,0.07045996189117432,0.013399124145507812,-2.4145889282226562
1789033877992092200,11.337092041015625,0.23294591903686523,0.10660481452941895,-2.5120725631713867
1789033878002017300,11.347017333984375,-0.19645631313323975,0.4665346145629883,-1.9624762535095215
1789033878011942400,11.3569423828125,-0.7325330972671509,0.5635483264923096,-1.3349833488464355
1789033878021867800,11.36686767578125,-0.6991385221481323,0.399730920791626,-0.7382278442382812
1789033878031793000,11.37679296875,-0.5213433504104614,-0.17284274101257324,-0.7696104049682617
1789033878041718000,11.386718017578126,-0.3044544458389282,-0.6353855133056641,-0.8889036178588867
1789033878051643100,11.39664306640625,-0.3493204116821289,-0.5965619087219238,-0.4184684753417969
1789033878061568300,11.406568359375,-0.6214414834976196,-0.5567271709442139,0.07709026336669922
1789033878071493600,11.41649365234375,-0.924533486366272,-0.5446691513061523,0.22614002227783203
1789033878081418800,11.426418701171874,-0.7573875188827515,-0.707819938659668,0.07343769073486328
1789033878091344000,11.43634375,-0.44031572341918945,-0.7470302581787109,-0.3128175735473633
1789033878101269000,11.44626904296875,-0.4422783851623535,-0.7174954414367676,-0.022454261779785156
1789033878111194400,11.4561943359375,0.2637099623680115,-0.5026988983154297,0.4495506286621094
1789033878121119500,11.466119384765625,-0.04200947284698486,-0.33879709243774414,1.0556774139404297
1789033878131044600,11.476044677734375,-0.15115773677825928,-0.46227407455444336,1.480046272277832
1789033878140969700,11.4859697265625,-0.5948081016540527,-0.7439961433410645,1.6222114562988281
1789033878150894800,11.495894775390624,-0.5122177600860596,-0.9771080017089844,1.4683952331542969
1789033878160820000,11.505820068359375,-0.5807490944862366,-1.1938581466674805,1.3160104751586914
1789033878170745000,11.5157451171875,-0.13694679737091064,-1.492520809173584,0.9559526443481445
1789033878180670500,11.52567041015625,0.016172289848327637,-1.367959976196289,0.6215763092041016
1789033878190595600,11.535595703125,0.34297752380371094,-1.3164582252502441,0.23202037811279297
1789033878200520700,11.545520751953125,-0.47362464666366577,-1.1237077713012695,0.6090612411499023
1789033878210445800,11.55544580078125,-0.9461709260940552,-0.6753020286560059,1.319199562072754
1789033878220371000,11.565370849609375,-0.6446811556816101,-0.37022972106933594,1.7006034851074219
1789033878230296000,11.575296142578125,-0.22282731533050537,-0.045990943908691406,1.790757179260254
1789033878240221200,11.58522119140625,0.4068443775177002,-0.25112438201904297,1.6073732376098633
1789033878250146600,11.595146484375,-0.20305681228637695,-0.27630090713500977,1.7446813583374023
1789033878260071700,11.60507177734375,-0.7376739978790283,0.09819269180297852,2.2378196716308594
1789033878269996800,11.614996826171875,-0.5605993866920471,0.42170238494873047,2.4561595916748047
1789033878279922000,11.624921875,0.35208386182785034,0.8777370452880859,2.2872304916381836
1789033878289847000,11.634846923828125,0.661242663860321,0.7990813255310059,1.501596450805664
1789033878299772200,11.644772216796875,-0.2724123001098633,0.5168075561523438,1.1501731872558594
1789033878309697300,11.654697265625,-1.058528184890747,0.7979292869567871,1.1213574409484863
1789033878319622700,11.66462255859375,-1.0438016653060913,0.9840822219848633,0.8538703918457031
1789033878329547800,11.6745478515625,-0.030005037784576416,1.2993192672729492,0.4373931884765625
1789033878339473000,11.684472900390626,-0.00832223892211914,0.6810336112976074,0.2694697380065918
1789033878349398000,11.69439794921875,-1.0388762950897217,0.11357831954956055,1.1706600189208984
1789033878359323400,11.704323486328125,-1.6863785982131958,-0.19097518920898438,2.373584747314453
1789033878369248500,11.71424853515625,-1.3043361902236938,-0.4484272003173828,2.89408016204834
1789033878379173600,11.724173583984374,-0.44901537895202637,-0.5280447006225586,2.7580041885375977
1789033878389099000,11.73409912109375,-0.2111806869506836,-0.5270280838012695,2.202946662902832
1789033878399024000,11.744024169921875,0.09460657835006714,-0.4193706512451172,2.238467216491699
1789033878408949200,11.75394921875,-0.2347959280014038,-0.02493572235107422,2.8006558418273926
1789033878418874600,11.76387451171875,-0.1374603509902954,0.2713642120361328,3.017756462097168
1789033878428799700,11.7737998046875,0.06445479393005371,0.5588688850402832,3.0516319274902344
1789033878438724900,11.783724853515626,1.105700969696045,0.4893937110900879,2.2904839515686035
1789033878448650000,11.79364990234375,1.49655282497406,0.18172836303710938,1.359628677368164
1789033878458575400,11.803575439453125,1.2282694578170776,-0.1277756690979004,0.6449670791625977
1789033878468500500,11.81350048828125,1.6256924867630005,-0.3898448944091797,0.09949398040771484
1789033878478425600,11.823425537109374,1.5194894075393677,-0.3990211486816406,-0.2249584197998047
1789033878488350700,11.833350830078125,0.7255218625068665,-0.25650835037231445,0.18175697326660156
1789033878498275800,11.84327587890625,0.00761258602142334,-0.2546219825744629,0.039363861083984375
1789033878508201000,11.853200927734376,-0.0719074010848999,-0.41680479049682617,0.3087644577026367
1789033878518126000,11.8631259765625,-1.049564242362976,-0.36179161071777344,1.1415414810180664
1789033878528051500,11.873051513671875,-1.0390704870224,-0.04091310501098633,2.224776268005371
1789033878537976600,11.8829765625,-0.43212246894836426,0.4239983558654785,2.672652244567871
1789033878547901700,11.892901611328124,0.42038512229919434,0.6315836906433105,2.611081123352051
1789033878557826800,11.902826904296875,1.1918127536773682,0.35980224609375,2.132122039794922
1789033878567752000,11.912751953125,1.9248111248016357,-0.25710296630859375,1.1809282302856445
1789033878577677000,11.922677001953126,2.292480945587158,-1.0282058715820312,0.0778360366821289
1789033878587602200,11.932602294921875,1.9010679721832275,-1.1537575721740723,-0.3690032958984375
1789033878597527600,11.942527587890625,1.108363151550293,-1.2035417556762695,-1.0824589729309082
1789033878607452700,11.95245263671875,0.07153165340423584,-0.9917755126953125,-0.6032543182373047
1789033878617377800,11.962377685546874,-0.39178335666656494,-1.0738039016723633,-0.0709390640258789
1789033878627303000,11.972302978515625,-1.1237049102783203,-0.8949761390686035,0.2240915298461914
1789033878637228000,11.98222802734375,-1.1829719543457031,-0.2440171241760254,0.6188783645629883
1789033878647153200,11.992153076171874,-0.924846887588501,0.2806131839752197,0.7812061309814453
1789033878657078300,12.002078369140625,-0.8047661781311035,0.43063926696777344,0.9082107543945312
1789033878667003600,12.012003662109375,0.36235880851745605,0.36985158920288086,1.1956052780151367
1789033878676928800,12.0219287109375,1.7517778873443604,0.0007710456848144531,1.2639265060424805
1789033878686854000,12.03185400390625,2.2673227787017822,-0.34353208541870117,1.3871173858642578
1789033878696779000,12.041779052734375,2.2955949306488037,-0.8670542240142822,1.5917224884033203
1789033878706704100,12.0517041015625,1.6886869668960571,-1.2464320659637451,1.5878324508666992
1789033878716629200,12.061629150390624,0.6098427772521973,-1.5961058139801025,0.9340381622314453
1789033878726554400,12.071554443359375,-0.33772027492523193,-1.4199128150939941,-0.06502246856689453
1789033878736479700,12.081479736328125,-1.121228575706482,-0.9407110214233398,-0.6609058380126953
1789033878746404900,12.09140478515625,-0.704718828201294,-0.6305704116821289,-1.3906350135803223
1789033878756330000,12.101330078125,0.13336539268493652,-0.6631815433502197,-2.0704574584960938
1789033878766255400,12.11125537109375,0.6740844249725342,-0.7467794418334961,-2.187246799468994
1789033878776180500,12.121180419921876,1.3199678659439087,-0.8440732955932617,-1.9679813385009766
1789033878786105600,12.131105712890625,1.4905314445495605,-0.9959661960601807,-2.367640495300293
1789033878796031000,12.141031005859375,1.5315150022506714,-0.5107583999633789,-2.4112048149108887
1789033878805956000,12.1509560546875,1.3084921836853027,-0.0934293270111084,-2.3821167945861816
1789033878815881200,12.160881103515624,1.049450159072876,-0.182570219039917,-2.490044116973877
1789033878825806600,12.170806640625,0.6831073760986328,-0.5745110511779785,-3.010222911834717
1789033878835731700,12.180731689453125,0.22052478790283203,-0.9949042797088623,-3.41520357131958
1789033878845656800,12.19065673828125,0.39634382724761963,-1.3088388442993164,-3.8524508476257324
1789033878855582000,12.20058203125,-0.16036510467529297,-0.5845620632171631,-3.7594308853149414
1789033878865507000,12.210507080078125,-0.5988655090332031,0.09944307804107666,-4.1024017333984375
1789033878875432400,12.220432373046876,0.11977756023406982,0.4075028896331787,-4.0168070793151855
1789033878885357600,12.230357666015625,0.3370046615600586,0.4377075433731079,-3.193812370300293
1789033878895282700,12.24028271484375,0.22073149681091309,0.40892302989959717,-3.039030075073242
1789033878905207800,12.250207763671876,0.1649843454360962,0.15237247943878174,-3.0972323417663574
1789033878915133000,12.2601328125,0.5008699893951416,-0.5396933555603027,-3.511979579925537
1789033878925058000,12.27005810546875,-0.14053702354431152,-0.5725624561309814,-2.6832661628723145
1789033878934983200,12.279983154296875,-1.1341911554336548,-0.1702115535736084,-2.101771354675293
1789033878944908500,12.289908447265624,-1.2390189170837402,0.09531760215759277,-2.4723544120788574
1789033878954833700,12.299833740234375,-0.4556058645248413,0.06722640991210938,-2.9957308769226074
1789033878964758800,12.3097587890625,0.1277555227279663,0.011638164520263672,-3.447381019592285
1789033878974684000,12.319683837890626,0.1058734655380249,0.1758275032043457,-2.6968045234680176
1789033878984609000,12.329609130859374,-0.1519467830657959,0.2312784194946289,-1.7595739364624023
1789033878994534100,12.3395341796875,-0.2876030206680298,0.07258129119873047,-1.2034006118774414
1789033879004459300,12.349459228515625,-0.1409517526626587,-0.03393816947937012,-0.9165534973144531
1789033879014384600,12.359384521484374,0.03873038291931152,-0.29172253608703613,-1.2842316627502441
1789033879024309800,12.369309814453125,0.2673206329345703,-0.3758416175842285,-1.2220935821533203
1789033879034235000,12.37923486328125,0.3279818892478943,-0.26966404914855957,-0.9569587707519531
1789033879044160000,12.389159912109376,0.2041020393371582,-0.0882730484008789,-0.8425960540771484
1789033879054085000,12.399085205078125,-0.43114709854125977,-0.05772972106933594,-0.40050411224365234
1789033879064010200,12.40901025390625,-0.7867496013641357,0.25689125061035156,0.019715309143066406
1789033879073935400,12.418935302734376,-0.6580315828323364,0.2406923770904541,0.32157230377197266
1789033879083860500,12.428860595703124,-0.3377962112426758,-0.1805124282836914,0.18993568420410156
1789033879093785900,12.438785888671875,0.15485602617263794,-0.6248021125793457,0.44283485412597656
1789033879103711000,12.4487109375,0.4965746998786926,-0.6384148597717285,0.878178596496582
1789033879113636000,12.458635986328124,0.14917415380477905,-0.663978099822998,1.3661689758300781
1789033879123561200,12.468561279296875,-0.44443774223327637,-0.797945499420166,1.959733009338379
1789033879133486300,12.478486328125,-0.6212633848190308,-1.1354761123657227,2.1574573516845703
1789033879143411500,12.488411376953126,-0.6416932344436646,-1.3559470176696777,2.590625762939453
1789033879153336600,12.498336669921875,-0.7583783268928528,-1.143808364868164,2.874484062194824
1789033879163262000,12.508261962890625,0.6387850046157837,-1.0639944076538086,2.20072078704834
1789033879173187000,12.51818701171875,0.917529284954071,-0.9869308471679688,1.2416095733642578
1789033879183112200,12.5281123046875,0.3334219455718994,-0.9303693771362305,0.8866786956787109
1789033879193037300,12.538037353515625,0.03414475917816162,-0.453824520111084,0.9275178909301758
1789033879202962400,12.54796240234375,-0.24373352527618408,-0.24878454208374023,1.0559172630310059
