time,seconds_elapsed,z,y,x
1789033866714703400,0.059703369140625,0.34055712819099426,0.039858926087617874,0.45127636194229126
1789033866724628700,0.069628662109375,0.27397283911705017,-0.13545925915241241,0.4353938698768616
1789033866734553900,0.079553955078125,0.20372340083122253,-0.30711227655410767,0.40973755717277527
1789033866744479200,0.089479248046875,0.13652828335762024,-0.45188722014427185,0.3877464234828949
1789033866754404400,0.099404296875,0.06872228533029556,-0.5209149122238159,0.37980517745018005
1789033866764329700,0.109329833984375,-0.000305432389723137,-0.503810703754425,0.3883572816848755
1789033866774254800,0.1192548828125,-0.07605266571044922,-0.383470356464386,0.3871355652809143
1789033866784180200,0.12918017578125,-0.15607595443725586,-0.2704603672027588,0.3816377818584442
1789033866794105300,0.139105224609375,-0.19150610268115997,-0.20998476445674896,0.3822486400604248
1789033866804030700,0.14903076171875,-0.1737910360097885,-0.18982623517513275,0.3926333487033844
1789033866813955800,0.158955810546875,-0.17256930470466614,-0.2075413018465042,0.42073312401771545
1789033866823881200,0.168881103515625,-0.20738859474658966,-0.2503018379211426,0.46776971220970154
1789033866833806300,0.178806396484375,-0.26358816027641296,-0.2680169343948364,0.5258018374443054
1789033866843731700,0.188731689453125,-0.30512696504592896,-0.2380845546722412,0.5655080676078796
1789033866853656800,0.19865673828125,-0.3136790692806244,-0.15561780333518982,0.5569559335708618
1789033866863582000,0.20858203125,-0.2910770773887634,-0.019394956529140472,0.5013672709465027
1789033866873507300,0.21850732421875,-0.24953825771808624,0.1461493968963623,0.41584619879722595
1789033866883432700,0.2284326171875,-0.22266021370887756,0.22495095431804657,0.3309359848499298
1789033866893357800,0.23835791015625,-0.23304490745067596,0.22189663350582123,0.28817546367645264
1789033866903283000,0.248282958984375,-0.25992295145988464,0.18524473905563354,0.32421648502349854
1789033866913208300,0.258208251953125,-0.3026835024356842,0.14370593428611755,0.4500546157360077
1789033866923133400,0.268133544921875,-0.3588830530643463,0.11133010685443878,0.6443096399307251
1789033866933058800,0.278058837890625,-0.38270679116249084,0.09239330142736435,0.8300125002861023
1789033866942984000,0.28798388671875,-0.44868019223213196,0.16508620977401733,0.9582940936088562
1789033866952909300,0.297909423828125,-0.5745183229446411,0.36911505460739136,0.9882264733314514
1789033866962834400,0.30783447265625,-0.6783653497695923,0.4796815812587738,0.9326378107070923
1789033866972759800,0.317759765625,-0.6966912746429443,0.6537780165672302,0.845894992351532
1789033866982685000,0.327684814453125,-0.6038398146629333,0.70753413438797,0.7646499872207642
1789033866992610300,0.3376103515625,-0.4608974754810333,0.6586649417877197,0.7176133990287781
1789033867002535400,0.347535400390625,-0.3075704276561737,0.5309942364692688,0.6931788325309753
1789033867012460800,0.357460693359375,-0.19150610268115997,0.4033234715461731,0.660802960395813
1789033867022386000,0.367385986328125,-0.15057817101478577,0.26648977398872375,0.597273051738739
1789033867032311000,0.37731103515625,-0.17745621502399445,0.13393209874629974,0.504421591758728
1789033867042236400,0.387236328125,-0.24281874299049377,-0.004123337101191282,0.38469210267066956
1789033867052161500,0.39716162109375,-0.32039856910705566,-0.10858121514320374,0.24236060678958893
1789033867062087000,0.4070869140625,-0.3912588953971863,-0.17088942229747772,0.09636391699314117
1789033867072012000,0.417011962890625,-0.43890634179115295,-0.17455461621284485,-0.03558287397027016
1789033867081937400,0.4269375,-0.4718930423259735,-0.09880737960338593,-0.1363755613565445
1789033867091862500,0.436862548828125,-0.4883863925933838,-0.02977965772151947,-0.18524473905563354
1789033867101788000,0.446787841796875,-0.48594292998313904,-0.031001387163996696,-0.2078467458486557
1789033867111713000,0.456713134765625,-0.45967575907707214,-0.11407899856567383,-0.2689332067966461
1789033867121638400,0.466638427734375,-0.4315759539604187,-0.22159120440483093,-0.33307403326034546
1789033867131563500,0.4765634765625,-0.39186975359916687,-0.300392746925354,-0.4027126133441925
1789033867141489000,0.486489013671875,-0.33139413595199585,-0.2942841053009033,-0.4631882309913635
1789033867151414000,0.4964140625,-0.24404047429561615,-0.2185368686914444,-0.48823368549346924
1789033867161339100,0.506339111328125,-0.15057817101478577,-0.12873975932598114,-0.4436405599117279
1789033867171264500,0.516264404296875,-0.12736530601978302,-0.10430516302585602,-0.3061959743499756
1789033867181190000,0.52618994140625,-0.19211697578430176,0.08323032408952713,-0.09056070446968079
1789033867191115000,0.536114990234375,-0.29413139820098877,0.5285507440567017,0.13729186356067657
1789033867201040100,0.5460400390625,-0.42913252115249634,1.0001384019851685,0.32299473881721497
1789033867210965500,0.555965576171875,-0.572685718536377,1.4143047332763672,0.41462448239326477
1789033867220890600,0.565890625,-0.6966912746429443,1.6995785236358643,0.42623090744018555
1789033867230816000,0.57581591796875,-0.850018322467804,1.2090541124343872,0.4341721534729004
1789033867240741000,0.5857412109375,-1.0235038995742798,0.3831649422645569,0.48365217447280884
1789033867250666500,0.59566650390625,-1.1151336431503296,0.16081015765666962,0.504421591758728
1789033867260591600,0.605591552734375,-1.3949097394943237,0.0899498388171196,0.4995346665382385
1789033867270516700,0.615516845703125,-1.6142101287841797,0.22678354382514954,0.3254382014274597
1789033867280442000,0.625442138671875,-1.6129884719848633,0.7698423266410828,0.02916879393160343
1789033867290367500,0.635367431640625,-1.6991204023361206,1.9879066944122314,-0.08933897316455841
1789033867300292600,0.645292724609375,-1.915366530418396,3.4778058528900146,0.015729768201708794
1789033867310217700,0.6552177734375,-1.895818829536438,1.7832670211791992,-1.0697768926620483
1789033867320143000,0.66514306640625,-1.2018764019012451,-0.06276635825634003,-1.8327471017837524
1789033867330068200,0.675068115234375,-0.5445859432220459,0.6391173005104065,-1.338557481765747
1789033867339993600,0.68499365234375,-0.17318016290664673,0.09911280870437622,-0.847422182559967
1789033867349918700,0.694918701171875,-0.21899501979351044,-0.31383177638053894,-0.4222602844238281
1789033867359844000,0.704843994140625,-0.3588830530643463,-0.69012451171875,-0.09117157012224197
1789033867369769200,0.714769287109375,-0.416304349899292,-0.9601266980171204,0.11652245372533798
1789033867379694300,0.7246943359375,-0.3796524703502655,-1.4909682273864746,0.2802342176437378
1789033867389619700,0.73461962890625,-0.18234314024448395,-2.118326425552368,0.5758927464485168
1789033867399545000,0.744545166015625,0.11209368705749512,-2.3590071201324463,0.9454659819602966
1789033867409470200,0.75447021484375,0.21655155718326569,-2.140928268432617,1.1464405059814453
1789033867419395300,0.764395263671875,0.08460476994514465,-1.6003129482269287,1.0994038581848145
1789033867429320700,0.77432080078125,-0.03634645417332649,-0.9045380353927612,0.69012451171875
1789033867439245800,0.784245849609375,-0.18112140893936157,0.295811265707016,-0.07589995115995407
1789033867449171200,0.794171142578125,-0.09315688163042068,0.5639809370040894,-0.3214675784111023
1789033867459096300,0.804096435546875,-0.03940077871084213,0.8675807118415833,-0.615293562412262
1789033867469021700,0.814021728515625,0.01802051067352295,1.0862703323364258,-0.6892082095146179
1789033867478946800,0.82394677734375,-0.0015271619195118546,1.2621994018554688,-0.9378301501274109
1789033867488872200,0.8338720703125,-0.08643736690282822,1.6549854278564453,-1.2829687595367432
1789033867498797300,0.84379736328125,-0.038789913058280945,2.131459951400757,-1.4924954175949097
1789033867508722700,0.85372265625,0.1182023361325264,2.2652392387390137,-1.4686716794967651
1789033867518647800,0.863647705078125,0.3607156574726105,2.025780439376831,-1.2286018133163452
1789033867528573000,0.873572998046875,0.476779967546463,1.6647592782974243,-0.8052725195884705
1789033867538498300,0.883498291015625,0.5012145638465881,1.152243733406067,-0.3410152494907379
1789033867548423400,0.89342333984375,0.5421425104141235,0.5004509687423706,0.0383317656815052
1789033867558348800,0.903348876953125,0.6398808360099792,-0.1922696828842163,0.23747368156909943
1789033867568274000,0.91327392578125,0.7651081085205078,-0.7683151960372925,0.281455934047699
1789033867578199000,0.923198974609375,0.8646790981292725,-1.1965314149856567,0.26618432998657227
1789033867588124400,0.93312451171875,0.8817833065986633,-1.4604250192642212,0.249690979719162
1789033867598049800,0.9430498046875,0.8170316219329834,-1.5294526815414429,0.22464552521705627
1789033867607975000,0.952974853515625,0.6948586702346802,-1.4598140716552734,0.12935061752796173
1789033867617900300,0.962900390625,0.5482511520385742,-1.2081378698349,-0.042913250625133514
1789033867627825400,0.972825439453125,0.44440412521362305,-1.0199915170669556,-0.21151192486286163
1789033867637750500,0.98275048828125,0.4053087830543518,-0.6003273725509644,-0.3733910918235779
1789033867647676000,0.992676025390625,0.41874781250953674,-0.34315329790115356,-0.5340485572814941
1789033867657601000,1.00260107421875,0.5323686599731445,-0.45066550374031067,-0.585972011089325
1789033867667526400,1.0125263671875,0.620333194732666,-0.5056433081626892,-0.5535961985588074
1789033867677451500,1.022451416015625,0.6148353815078735,-0.5331322550773621,-0.38560840487480164
1789033867687376600,1.032376708984375,0.5146535634994507,-0.54962557554245,-0.14370593428611755
1789033867697302000,1.042302001953125,0.3796524703502655,-0.7371610999107361,0.06276635825634003
1789033867707227400,1.052227294921875,0.2611446976661682,-0.938746452331543,0.20631958544254303
1789033867717152500,1.062152587890625,0.1646280586719513,-1.1354448795318604,0.228921577334404
1789033867727077600,1.07207763671875,0.11575887352228165,-1.302211046218872,0.12690715491771698
1789033867737003000,1.0820029296875,0.14630211889743805,-1.365130066871643,-0.05085449293255806
1789033867746928000,1.09192822265625,0.22204934060573578,-1.2961024045944214,-0.27137666940689087
1789033867756853500,1.101853515625,0.28985533118247986,-1.1977530717849731,-0.5285507440567017
1789033867766778600,1.111778564453125,0.35277441143989563,-1.0822997093200684,-0.7661771774291992
1789033867776704000,1.1217041015625,0.41447174549102783,-0.8501710295677185,-0.9262236952781677
1789033867786629000,1.131629150390625,0.42363473773002625,-0.5526798963546753,-0.9805907011032104
1789033867796554200,1.14155419921875,0.3692677617073059,-0.34865108132362366,-0.9531017541885376
1789033867806479600,1.151479736328125,0.2568686306476593,-0.19410228729248047,-0.8211549520492554
1789033867816405000,1.161405029296875,0.07360920310020447,-0.11835505068302155,-0.6348412036895752
1789033867826330000,1.171330078125,-0.10476330667734146,-0.12812888622283936,-0.43631017208099365
1789033867836255200,1.181255126953125,-0.23793183267116547,-0.16844595968723297,-0.2683223485946655
1789033867846180600,1.1911806640625,-0.3454440236091614,-0.18066325783729553,-0.1467602699995041
1789033867856105700,1.201105712890625,-0.4120282828807831,-0.17638720571994781,-0.042913250625133514
1789033867866031000,1.211031005859375,-0.4169152081012726,-0.15989385545253754,0.037720900028944016
1789033867875956200,1.220956298828125,-0.3949240744113922,-0.14706569910049438,0.09758564829826355
1789033867885881300,1.23088134765625,-0.3741546869277954,-0.23197589814662933,0.15561780333518982
1789033867895806700,1.240806640625,-0.33505934476852417,-0.3309359848499298,0.24236060678958893
1789033867905731800,1.25073193359375,-0.3436114490032196,-0.33765551447868347,0.33765551447868347
1789033867915657200,1.2606572265625,-0.4053087830543518,-0.34193155169487,0.38530296087265015
1789033867925582300,1.270582275390625,-0.44318240880966187,-0.3816377818584442,0.3828594982624054
1789033867935507700,1.2805078125,-0.4529562294483185,-0.3474293351173401,0.3266599476337433
1789033867945432800,1.290432861328125,-0.45906487107276917,-0.2649625837802887,0.2594648003578186
1789033867955358200,1.300358154296875,-0.4712821841239929,-0.18066325783729553,0.25641047954559326
1789033867965283300,1.310283447265625,-0.5152644515037537,-0.11224640160799026,0.30283620953559875
1789033867975208700,1.320208740234375,-0.5506945848464966,-0.07131846249103546,0.3663661479949951
1789033867985133800,1.3301337890625,-0.5317577719688416,-0.009010255336761475,0.4237874448299408
1789033867995059000,1.340058837890625,-0.44990190863609314,0.03558287397027016,0.5245801210403442
1789033868004984300,1.349984375,-0.37659814953804016,0.028863361105322838,0.6760746240615845
1789033868014909400,1.359909423828125,-0.3442223072052002,-0.008399390615522861,0.8159626126289368
1789033868024834800,1.369834716796875,-0.31062474846839905,-0.0798705667257309,0.8703296184539795
1789033868034760000,1.379760009765625,-0.2977965772151947,-0.19532401859760284,0.8196278214454651
1789033868044685300,1.389685302734375,-0.3020726442337036,-0.2961167097091675,0.6974548697471619
1789033868054610400,1.3996103515625,-0.3136790692806244,-0.33948808908462524,0.5520690679550171
1789033868064535800,1.409535888671875,-0.3381136655807495,-0.3767508566379547,0.4396699368953705
1789033868074461000,1.4194609375,-0.34666576981544495,-0.4427242577075958,0.3572031855583191
1789033868084386000,1.429385986328125,-0.32528549432754517,-0.5703949928283691,0.2704603672027588
1789033868094311400,1.4393115234375,-0.281914085149765,-0.7652608752250671,0.19043709337711334
1789033868104236500,1.449236572265625,-0.23732095956802368,-1.024267554283142,0.14401137828826904
1789033868114162000,1.459161865234375,-0.1744018942117691,-1.3309216499328613,0.13362666964530945
1789033868124087000,1.469087158203125,-0.04367683082818985,-1.6571234464645386,0.1366809904575348
1789033868134012200,1.47901220703125,0.12003492563962936,-1.9698861837387085,0.16539163887500763
1789033868143937500,1.4889375,0.32650721073150635,-2.288146734237671,0.23686282336711884
1789033868153863000,1.49886279296875,0.6630937457084656,-2.6418373584747314,0.3352120518684387
1789033868163788000,1.5087880859375,0.9831868410110474,-3.0266823768615723,0.41462448239326477
1789033868173713200,1.518713134765625,1.17194402217865,-3.3968663215637207,0.4237874448299408
1789033868183638500,1.528638427734375,1.404072642326355,-3.83607816696167,0.45677414536476135
1789033868193563600,1.538563720703125,1.7516547441482544,-4.364476203918457,0.6333140730857849
1789033868203489000,1.548489013671875,1.8249585628509521,-4.655247688293457,0.6583595275878906
1789033868213414100,1.5584140625,1.489593744277954,-4.864774227142334,0.5178605914115906
1789033868223339500,1.568339599609375,1.0491602420806885,-5.032151222229004,0.3975202441215515
1789033868233264600,1.5782646484375,1.0522146224975586,-5.154324054718018,0.42684176564216614
1789033868243189800,1.588189697265625,1.3802490234375,-5.397448539733887,0.495258629322052
1789033868253115100,1.598115234375,1.685070514678955,-5.736478328704834,0.5276344418525696
1789033868263040500,1.60804052734375,1.8188499212265015,-6.058403968811035,0.5416843295097351
1789033868272965600,1.617965576171875,2.0809109210968018,-6.0871148109436035,0.5416843295097351
1789033868282890800,1.627890869140625,2.380845546722412,-5.674170017242432,0.3877464234828949
1789033868292816100,1.637816162109375,2.6728389263153076,-5.175093650817871,0.10308343172073364
1789033868302741200,1.6477412109375,2.9721624851226807,-4.972897529602051,-0.16081015765666962
1789033868312666600,1.65766650390625,3.2733190059661865,-5.164098262786865,-0.33368489146232605
1789033868322591700,1.667591796875,3.557371139526367,-5.471973896026611,-0.33001968264579773
1789033868332516900,1.677516845703125,3.772395372390747,-5.702270030975342,-0.1773035079240799
1789033868342442200,1.687442138671875,4.007578372955322,-5.786569118499756,0.02916879393160343
1789033868352367400,1.697367431640625,4.2287116050720215,-5.647292137145996,0.20937390625476837
1789033868362292700,1.707292724609375,4.342332363128662,-5.102400779724121,0.35475972294807434
1789033868372217900,1.7172177734375,4.405862331390381,-4.118908405303955,0.3223838806152344
1789033868382143200,1.727143310546875,4.376540660858154,-3.0156867504119873,0.10797034949064255
1789033868392068400,1.737068359375,4.327671527862549,-1.98515784740448,-0.2799287736415863
1789033868401993700,1.74699365234375,4.192059516906738,-1.0859649181365967,-0.8113811612129211
1789033868411918800,1.7569189453125,4.02407169342041,-0.5569559335708618,-1.3837614059448242
1789033868421844000,1.766843994140625,3.8072147369384766,-0.4634936451911926,-1.779601812362671
1789033868431769300,1.776769287109375,3.5634796619415283,-0.48365217447280884,-1.8877248764038086
1789033868441694500,1.786694580078125,3.274540662765503,-0.5429060459136963,-1.519984245300293
1789033868451619800,1.796619873046875,2.8982479572296143,-0.651639997959137,-0.8156571984291077
1789033868461545000,1.806544921875,2.4162757396698,-0.4286743700504303,-0.07345648854970932
1789033868471470300,1.81647021484375,1.9556835889816284,-0.7298306822776794,0.6858484148979187
1789033868481395500,1.8263955078125,1.5916081666946411,-0.9509637355804443,1.0633628368377686
1789033868491320800,1.83632080078125,1.3619229793548584,-1.1898118257522583,1.1018472909927368
1789033868501246000,1.846245849609375,1.025336503982544,-1.2411245107650757,1.131779670715332
1789033868511171000,1.856171142578125,0.9135482907295227,-1.1378883123397827,1.177594542503357
1789033868521096400,1.866096435546875,0.850018322467804,-0.3217730224132538,1.0890191793441772
1789033868531021600,1.876021484375,0.619722306728363,-0.21487168967723846,1.0713040828704834
1789033868540947000,1.885947021484375,0.4474584460258484,-0.3730856776237488,1.0908517837524414
1789033868550872000,1.8958720703125,0.291687935590744,-0.6760746240615845,1.2258528470993042
1789033868560797400,1.90579736328125,0.20922118425369263,-1.5080723762512207,1.2527309656143188
1789033868570722600,1.91572265625,0.14996729791164398,-1.715766429901123,1.1256710290908813
1789033868580647700,1.925647705078125,0.02718348242342472,-1.338252067565918,1.0425934791564941
1789033868590573000,1.935572998046875,0.0204639695584774,-0.976620078086853,0.7609847784042358
1789033868600498400,1.94549853515625,0.1389717310667038,-0.6149880886077881,-0.14920371770858765
1789033868610423600,1.955423583984375,0.07116574794054031,-0.5710058808326721,-0.35934120416641235
1789033868620348700,1.9653486328125,-0.006414080038666725,0.22189663350582123,0.4659371078014374
1789033868630274000,1.975274169921875,-0.1744018942117691,-0.02611446939408779,0.39568766951560974
1789033868640199200,1.98519921875,-0.3393353819847107,-0.6522508859634399,-0.23961171507835388
1789033868650124500,1.99512451171875,-0.3173442482948303,-0.3370446562767029,0.6333140730857849
1789033868660049700,2.005049560546875,-0.25870123505592346,-1.0749692916870117,1.0731366872787476
1789033868669974800,2.014974853515625,-0.7565560340881348,-0.6467530727386475,1.891695499420166
1789033868679900200,2.024900146484375,-0.8469640016555786,-0.6693550944328308,3.0016367435455322
1789033868689825300,2.0348251953125,-0.7828232049942017,-1.5459460020065308,2.551429510116577
1789033868699750700,2.044750732421875,-0.5696313977241516,-0.8226821422576904,3.3846490383148193
1789033868709675800,2.05467578125,-0.10598503798246384,-1.965610146522522,2.327242136001587
1789033868719601200,2.06460107421875,-0.1340848207473755,-1.3095413446426392,1.8605413436889648
1789033868729526300,2.0745263671875,-0.16035200655460358,-0.9008728265762329,1.6754493713378906
1789033868739451600,2.08445166015625,0.20311254262924194,-0.39629852771759033,-0.388662725687027
1789033868749376800,2.094376708984375,0.05711585655808449,1.2212713956832886,-0.039858926087617874
1789033868759302000,2.104302001953125,-0.39248061180114746,0.7044798135757446,0.30283620953559875
1789033868769227300,2.114227294921875,-0.8274163603782654,-0.2808450758457184,0.47693267464637756
1789033868779152400,2.12415234375,-0.9685261249542236,-1.5062397718429565,0.6473639607429504
1789033868789077800,2.134077880859375,-1.1798852682113647,-2.640615701675415,0.9436333775520325
1789033868799003000,2.1440029296875,-1.3338232040405273,-3.2759151458740234,1.2405136823654175
1789033868808928000,2.153927978515625,-1.2525782585144043,-3.5251479148864746,1.124449372291565
1789033868818853400,2.163853271484375,-1.2214241027832031,-3.344331979751587,0.7432697415351868
1789033868870820000,2.215820068359375,-0.15241076052188873,-0.976620078086853,-1.510210394859314
1789033868880745200,2.2257451171875,-0.24404047429561615,-1.2075269222259521,-2.3544256687164307
1789033868890670300,2.23567041015625,0.16646064817905426,-1.475085735321045,-2.852891206741333
1789033868900595700,2.245595703125,0.7699950337409973,-0.671187698841095,-1.7117958068847656
1789033868910520800,2.255520751953125,0.5415316224098206,0.92072594165802,-1.7594432830810547
1789033868920446200,2.2654462890625,0.3032943606376648,0.6421716213226318,-1.605505347251892
1789033868930371300,2.275371337890625,0.33750277757644653,0.44791659712791443,-1.4698933362960815
1789033868940296700,2.285296630859375,0.5635227560997009,1.0160208940505981,-1.7753257751464844
1789033868950221800,2.295221923828125,1.1291835308074951,1.5548036098480225,-2.240804672241211
1789033868960147000,2.30514697265625,1.8243476152420044,1.7148501873016357,-2.2835652828216553
1789033868970072300,2.315072265625,2.4400994777679443,1.5389211177825928,-2.0074543952941895
1789033868979997400,2.32499755859375,3.0582945346832275,1.5963424444198608,-1.7411173582077026
1789033868989922800,2.3349228515625,3.6703810691833496,2.050825834274292,-1.6653701066970825
1789033868999848000,2.344847900390625,4.275136947631836,2.319606304168701,-1.6519310474395752
1789033869009773300,2.354773193359375,4.780933380126953,2.4075708389282227,-1.2512037754058838
1789033869019698400,2.364698486328125,4.746724605560303,2.6555819511413574,-0.6281217336654663
1789033869029623800,2.374623779296875,4.778489589691162,2.910923480987549,-0.20051635801792145
1789033869039549000,2.384548828125,4.70640754699707,3.1552693843841553,-0.052687086164951324
1789033869049474000,2.39447412109375,4.504822254180908,3.411832571029663,0.2503018379211426
1789033869059399400,2.4043994140625,3.7339110374450684,3.1357216835021973,0.660802960395813
1789033869069324500,2.414324462890625,1.8548909425735474,1.9005529880523682,1.2313506603240967
1789033869079250000,2.42425,0.37171122431755066,0.3868301212787628,1.3889538049697876
1789033869089175000,2.434175048828125,0.41325002908706665,-0.5526798963546753,1.188590168952942
1789033869099100200,2.44410009765625,0.6698132157325745,-0.5355756878852844,1.1384992599487305
1789033869109025500,2.454025634765625,0.8188642263412476,0.0642935186624527,1.0285435914993286
1789033869118950700,2.46395068359375,0.8701768517494202,0.7203623056411743,0.9246965646743774
1789033869128876000,2.4738759765625,0.7785471677780151,1.6684244871139526,0.7622065544128418
1789033869138801200,2.48380126953125,0.3032943606376648,0.5835285782814026,0.5325213670730591
1789033869148726300,2.493726318359375,-0.44318240880966187,0.1461493968963623,0.7609847784042358
1789033869158651600,2.503651611328125,-0.9404263496398926,-0.30344706773757935,0.8978185057640076
1789033869168577000,2.513576904296875,-0.8402445316314697,-0.6907353401184082,0.8758273720741272
1789033869178502100,2.523502197265625,-0.4175260663032532,-0.7481566667556763,0.8501710295677185
1789033869188427300,2.53342724609375,-0.17318016290664673,-0.45127636194229126,0.3407098352909088
1789033869198352400,2.543352294921875,-0.14630211889743805,0.05451968312263489,-0.31413722038269043
1789033869208277800,2.55327783203125,-0.11453714966773987,0.12293653935194016,-0.7197514176368713
1789033869218203000,2.563202880859375,-0.15485422313213348,-0.6650790572166443,-0.6293434500694275
1789033869228128300,2.573128173828125,-0.22937972843647003,-0.9998329281806946,-0.5267181396484375
1789033869238053400,2.583053466796875,-0.592233419418335,-0.7652608752250671,-0.4705185890197754
1789033869247978800,2.592978759765625,-1.0528254508972168,-0.6406444311141968,-0.4240928590297699
1789033869257903900,2.60290380859375,-1.6612467765808105,-1.0499238967895508,-0.3422369956970215
1789033869267829000,2.6128291015625,-2.252563953399658,-1.9833252429962158,-0.13698641955852509
1789033869277754400,2.62275439453125,-2.3600761890411377,-2.8984005451202393,0.11102467030286789
1789033869287679700,2.6326796875,-2.257450819015503,-2.886183261871338,0.29794928431510925
1789033869297604900,2.64260498046875,-1.8542799949645996,-2.660163402557373,0.3052796721458435
1789033869307530000,2.652530029296875,-1.349705696105957,-2.6723806858062744,0.36025750637054443
1789033869317455400,2.662455322265625,-0.72173672914505,-2.7701189517974854,0.47143489122390747
1789033869327380500,2.67238037109375,-0.005803215317428112,-2.5856378078460693,0.34193155169487
1789033869337305600,2.6823056640625,0.6343830823898315,-1.8110613822937012,0.08414662629365921
1789033869347231000,2.69223095703125,0.952032744884491,-0.5172497630119324,-0.13454297184944153
1789033869357156000,2.702156005859375,1.3539817333221436,0.6226239204406738,-0.22617268562316895
1789033869367081500,2.71208154296875,1.80357825756073,1.679419994354248,-0.2909243404865265
1789033869377006600,2.722006591796875,1.9672900438308716,2.5602869987487793,-0.37400195002555847
1789033869386931700,2.731931640625,1.8683298826217651,3.266446590423584,-0.5780308246612549
1789033869396857000,2.741857177734375,1.6545273065567017,3.5132360458374023,-0.6672170758247375
1789033869406782200,2.7517822265625,1.4688243865966797,3.08440899848938,-0.5939132571220398
1789033869416707600,2.76170751953125,1.3136646747589111,2.04838228225708,-0.4350884258747101
1789033869426632700,2.7716328125,1.2073742151260376,0.6165152788162231,-0.22983787953853607
1789033869436558000,2.78155810546875,1.2354739904403687,-0.6149880886077881,-0.05146535858511925
1789033869446483200,2.791483154296875,1.2061525583267212,-1.317482590675354,0.11591159552335739
1789033869456408600,2.80140869140625,1.074205756187439,-1.494633436203003,0.21487168967723846
1789033869466333700,2.811333740234375,0.8567378520965576,-1.5447243452072144,0.17821979522705078
1789033869476258800,2.8212587890625,0.518318772315979,-1.6387975215911865,0.1464548259973526
1789033869486184200,2.83118408203125,0.08338304609060287,-1.6253584623336792,0.18921536207199097
1789033869496109300,2.841109375,-0.7351757884025574,-2.2618794441223145,0.6314814686775208
1789033869506034700,2.85103466796875,-1.6673554182052612,-3.3577709197998047,1.1910336017608643
1789033869515959800,2.860959716796875,-2.313650369644165,-3.8818929195404053,1.2215768098831177
1789033869525885000,2.870885009765625,-2.4517056941986084,-3.990626811981201,0.9870047569274902
1789033869535810300,2.880810302734375,-2.3796236515045166,-4.613708972930908,0.5093085169792175
1789033869545735400,2.8907353515625,-3.3313510417938232,-6.10421895980835,-0.5169443488121033
1789033869555660800,2.900660888671875,-3.6331183910369873,-5.554440498352051,0.18921536207199097
1789033869565586000,2.9105859375,-2.573878765106201,-4.964345455169678,0.6363683938980103
1789033869575511300,2.92051123046875,-1.4010183811187744,-3.3431103229522705,0.2893971800804138
1789033869585436400,2.9304365234375,-0.8561269640922546,-1.8464914560317993,-0.3153589367866516
1789033869595361500,2.940361572265625,-1.341153621673584,-0.782365083694458,-0.8455895781517029
1789033869605287000,2.950286865234375,-1.293506145477295,0.14859285950660706,-1.2414299249649048
1789033869615212000,2.9602119140625,-1.145676851272583,0.2585485279560089,-1.5248712301254272
1789033869625137400,2.970137451171875,-0.7363975048065186,-0.00045814859913662076,-1.771660566329956
1789033869635062500,2.9800625,-0.37354379892349243,0.726470947265625,-1.0691660642623901
1789033869644987600,2.989987548828125,-0.17073670029640198,1.1638500690460205,-0.7319687008857727
1789033869654913000,2.9999130859375,-0.04001164436340332,1.123533010482788,-0.5267181396484375
1789033869664838100,3.009838134765625,0.022296564653515816,1.0062470436096191,-0.3825540542602539
1789033869674763500,3.019763427734375,0.028405211865901947,0.8205441236495972,-0.4033234715461731
1789033869684688600,3.029688720703125,0.12370011955499649,0.7557924389839172,-0.48762279748916626
1789033869694614000,3.039614013671875,0.13225223124027252,0.8462004065513611,-0.5609265565872192
1789033869704539100,3.0495390625,0.07849612087011337,0.5884155035018921,-0.6232348084449768
1789033869714464500,3.059464599609375,0.04550942778587341,0.47723811864852905,-0.5755873322486877
1789033869724389600,3.0693896484375,0.032070402055978775,0.8229875564575195,-0.5731438994407654
1789033869734314800,3.079314697265625,0.07360920310020447,0.8804088830947876,-0.6232348084449768
1789033869744240000,3.089240234375,0.23976442217826843,0.4796815812587738,-0.35323256254196167
1789033869754165500,3.09916552734375,0.37293294072151184,-0.2179260104894638,0.06826414167881012
1789033869764090600,3.109090576171875,0.4926624298095703,-1.0022764205932617,0.3455967605113983
1789033869774015700,3.119015625,0.6710349321365356,-1.4518728256225586,0.6363683938980103
1789033869783941000,3.128941162109375,0.9874629378318787,-1.66934072971344,0.9027054309844971
1789033869793866200,3.1388662109375,1.1621702909469604,-1.494633436203003,0.6449204683303833
1789033869803791400,3.148791259765625,0.9312633275985718,-1.0499238967895508,0.28206682205200195
1789033869813716700,3.158716796875,0.7638863921165466,-0.6015490889549255,0.13423752784729004
1789033869823641900,3.168641845703125,0.85918128490448,-0.49403688311576843,0.1721111536026001
1789033869833567000,3.17856689453125,0.9495893120765686,-0.36942046880722046,0.18432845175266266
1789033869843492400,3.188492431640625,0.9312633275985718,-0.07376192510128021,0.09636391699314117
1789033869853417500,3.19841748046875,0.7150171995162964,0.23533566296100616,-0.02825249545276165
1789033869863342600,3.208342529296875,0.24465134739875793,0.44180795550346375,-0.24205516278743744
1789033869873268000,3.21826806640625,-0.03023780696094036,0.7044798135757446,-0.3630063831806183
1789033869883193000,3.228193115234375,0.33139413595199585,0.5346593856811523,-0.5914698243141174
1789033869893118200,3.2381181640625,1.1963787078857422,0.5371028780937195,-0.7234166264533997
1789033869903043600,3.248043701171875,2.0576980113983154,1.1638500690460205,-0.6953168511390686
1789033869912968700,3.25796875,2.649015188217163,1.7111849784851074,-0.8749110698699951
1789033869922893800,3.267893798828125,2.6868886947631836,2.165668249130249,-1.1485785245895386
1789033869932819200,3.277819091796875,2.3338088989257812,1.7014111280441284,-1.0764964818954468
1789033869942744300,3.287744384765625,1.9941680431365967,0.827874481678009,-0.9702059626579285
1789033869952669400,3.29766943359375,1.9245294332504272,0.9830341339111328,-0.7783944606781006
1789033869962594800,3.3075947265625,1.7168354988098145,0.9720385670661926,-0.771064043045044
1789033869972520200,3.317520263671875,1.3674207925796509,0.7777835726737976,-1.0923789739608765
1789033869982445300,3.3274453125,1.268460750579834,0.3672824501991272,-1.16079580783844
1789033869992370700,3.33737060546875,1.0888664722442627,-0.4488328993320465,-1.6360485553741455
1789033870002295800,3.3472958984375,0.15057817101478577,-1.5447243452072144,-2.2566871643066406
1789033870012221200,3.35722119140625,-1.2275327444076538,-4.170221328735352,-3.7093236446380615
1789033870022146300,3.367146240234375,0.26908594369888306,-2.037081241607666,-2.271347999572754
1789033870032071700,3.37707177734375,2.6881103515625,1.855349063873291,-0.6769908666610718
1789033870041996800,3.386996826171875,2.799287796020508,0.5444332361221313,-0.6378955245018005
1789033870051922200,3.396922119140625,2.0748021602630615,-0.8006910085678101,-1.0630574226379395
1789033870061847300,3.406847412109375,1.8842123746871948,-0.012675444595515728,-0.5755873322486877
1789033870071772700,3.416772705078125,1.6594141721725464,0.9158390164375305,-0.14431680738925934
1789033870081697800,3.42669775390625,1.0326669216156006,0.9512691497802734,-0.09911280870437622
1789033870091623000,3.436622802734375,0.4120282828807831,0.7619010806083679,-0.005039634648710489
1789033870101548300,3.44654833984375,-0.12431098520755768,0.5480984449386597,0.08292489498853683
1789033870111473400,3.456473388671875,-0.45539969205856323,0.40149086713790894,0.15012001991271973
1789033870121398500,3.4663984375,-0.68386310338974,0.3929387629032135,0.1879936307668686
1789033870131324000,3.476323974609375,-0.8756746649742126,0.3526217043399811,0.12690715491771698
1789033870141249000,3.4862490234375,-0.9233221411705017,0.2023489624261856,-0.025809036567807198
1789033870151174100,3.496174072265625,-0.6154462695121765,0.023976443335413933,-0.11988221108913422
1789033870161099500,3.506099609375,-0.6557633280754089,0.11316270381212234,-0.042913250625133514
1789033870171024600,3.516024658203125,-1.0308343172073364,0.407599538564682,0.0487164668738842
1789033870180949800,3.52594970703125,-1.3716968297958374,0.7203623056411743,0.15256348252296448
1789033870190875100,3.535875244140625,-1.6673554182052612,1.1858412027359009,0.22464552521705627
1789033870200800300,3.54580029296875,-2.079078197479248,1.3568834066390991,0.32971426844596863
1789033870210725400,3.555725341796875,-2.4846925735473633,1.1394155025482178,0.383470356464386
1789033870220650800,3.565650634765625,-2.6813910007476807,1.835801362991333,0.34926193952560425
1789033870230575900,3.575575927734375,-2.620304584503174,2.727663993835449,0.3981311321258545
1789033870240501200,3.585501220703125,-2.5323400497436523,2.884045362472534,0.33948808908462524
1789033870250426400,3.59542626953125,-2.330754518508911,2.522413492202759,0.26129740476608276
1789033870260351500,3.6053515625,-2.0131049156188965,2.076482057571411,0.2380845546722412
1789033870270276900,3.61527685546875,-1.711337685585022,1.5584688186645508,0.15867212414741516
1789033870280202200,3.6252021484375,-1.331379771232605,0.8425352573394775,0.15378521382808685
1789033870290127400,3.63512744140625,-0.9734130501747131,0.4332558512687683,0.2185368686914444
1789033870300052700,3.645052734375,-0.8622356653213501,0.4271472096443176,0.26129740476608276
1789033870309977900,3.654977783203125,-0.6533198952674866,0.5871937870979309,0.2735147178173065
1789033870319903200,3.6649033203125,-0.30146175622940063,0.5077813267707825,0.3248273432254791
1789033870329828400,3.674828369140625,-0.04001164436340332,0.38438665866851807,0.4335612654685974
1789033870339753700,3.684753662109375,0.061391908675432205,0.3404043912887573,0.5276344418525696
1789033870349678800,3.694678955078125,0.0821613147854805,0.3623955249786377,0.6180424690246582
1789033870359604200,3.704604248046875,0.07116574794054031,0.4222602844238281,0.7377719283103943
1789033870369529300,3.714529296875,0.12370011955499649,0.3404043912887573,0.856279730796814
1789033870379454500,3.724454345703125,0.1383608728647232,0.19013166427612305,0.9149227142333984
1789033870389379800,3.7343798828125,0.18234314024448395,-0.04810560122132301,0.8770490884780884
1789033870399305000,3.744304931640625,0.2666424810886383,-0.15439607203006744,0.7744238376617432
1789033870409230000,3.75422998046875,0.2861901521682739,-0.17638720571994781,0.5911644101142883
1789033870419155500,3.764155517578125,0.32162031531333923,-0.12018764764070511,0.4641045033931732
1789033870429080600,3.77408056640625,0.2715294063091278,-0.044440411031246185,0.3981311321258545
1789033870439005700,3.784005615234375,0.12125665694475174,0.022754713892936707,0.26740604639053345
1789033870448931000,3.79393115234375,-0.04978547990322113,0.07528908550739288,0.047494735568761826
1789033870458856200,3.803856201171875,-0.16584978997707367,0.10094540566205978,-0.19929464161396027
1789033870468781600,3.813781494140625,-0.19394956529140472,0.08384118974208832,-0.3764454126358032
1789033870478706700,3.823706787109375,-0.22204934060573578,0.18035782873630524,-0.4949531853199005
1789033870488632000,3.833632080078125,-0.19761475920677185,0.3379609286785126,-0.5377137064933777
1789033870498557400,3.843557373046875,-0.1902843713760376,0.633619487285614,-0.6415607333183289
1789033870508482600,3.853482666015625,-0.3393353819847107,0.6873756051063538,-0.7832813858985901
1789033870518408000,3.863407958984375,-0.45417797565460205,0.4124864339828491,-0.8761327862739563
1789033870528333000,3.8733330078125,-0.5299251675605774,0.10705405473709106,-0.8700241446495056
1789033870538258400,3.883258544921875,-0.5482511520385742,0.04474584385752678,-0.74540776014328
1789033870548183600,3.89318359375,-0.6056724190711975,0.15347976982593536,-0.6097957491874695
1789033870558109000,3.90310888671875,-0.7522799968719482,0.23655737936496735,-0.513279139995575
1789033870568034000,3.913033935546875,-0.8940005898475647,0.43203410506248474,-0.4277580678462982
1789033870577959400,3.92295947265625,-1.1212422847747803,0.4589121639728546,-0.46196648478507996
1789033870587884500,3.932884521484375,-1.127350926399231,0.2390008419752121,-0.633008599281311
1789033870597810000,3.942809814453125,-0.8463531732559204,0.09117157012224197,-0.74540776014328
1789033870607735300,3.9527353515625,-0.6435460448265076,0.07773254066705704,-0.7722858190536499
1789033870617660400,3.962660400390625,-0.5360338687896729,0.38438665866851807,-0.7063124179840088
1789033870627585800,3.972585693359375,-0.41874781250953674,0.7814487814903259,-0.6415607333183289
1789033870637511000,3.982510986328125,-0.3992001414299011,1.0147991180419922,-0.6696605086326599
1789033870647436300,3.992436279296875,-0.36743515729904175,1.0929898023605347,-0.687986433506012
1789033870657361400,4.002361328125,-0.4101957082748413,0.8718567490577698,-0.7515164017677307
1789033870667286500,4.01228662109375,-0.630107045173645,0.7790052890777588,-0.7625119686126709
1789033870677212000,4.0222119140625,-0.8683443069458008,0.6898190379142761,-0.7038689255714417
1789033870687137000,4.032136962890625,-1.0296125411987305,0.4699077308177948,-0.6745474338531494
1789033870697062400,4.0420625,-1.2104285955429077,0.2280052751302719,-0.7148644924163818
1789033870706987500,4.051987548828125,-1.3558143377304077,0.016646064817905426,-0.7942769527435303
1789033870716912600,4.06191259765625,-1.4425572156906128,-0.2863428592681885,-0.8077159523963928
1789033870726838000,4.071838134765625,-1.4865394830703735,-0.5954404473304749,-0.7942769527435303
1789033870736763100,4.08176318359375,-1.5329651832580566,-0.7738129496574402,-0.8077159523963928
1789033870746688300,4.091688232421875,-1.5586215257644653,-0.8202387094497681,-0.8675807118415833
1789033870756613600,4.101613525390625,-1.536630392074585,-0.7835868000984192,-0.9274454712867737
1789033870766538800,4.111538818359375,-1.497534990310669,-0.7591522336006165,-0.9078977704048157
1789033870776464000,4.1214638671875,-1.4633265733718872,-0.8067996501922607,-0.8235984444618225
1789033870786389200,4.13138916015625,-1.4205660820007324,-0.8727730512619019,-0.7588467597961426
1789033870796314400,4.141314453125,-1.3460404872894287,-0.8483384847640991,-0.7197514176368713
1789033870806239500,4.151239501953125,-1.203098177909851,-0.7506000995635986,-0.6415607333183289
1789033870816164900,4.161164794921875,-1.0332777500152588,-0.6027708053588867,-0.521831214427948
1789033870826090000,4.171090087890625,-0.9049961566925049,-0.4647153913974762,-0.37033677101135254
1789033870836015000,4.18101513671875,-0.8158099055290222,-0.30711227655410767,-0.23716825246810913
1789033870845940500,4.1909404296875,-0.6740893125534058,-0.2655734717845917,-0.25549420714378357
1789033870855865600,4.200865478515625,-0.5519163012504578,-0.22769984602928162,-0.3312414288520813
1789033870865791000,4.210791015625,-0.4456258714199066,-0.25702136754989624,-0.27748534083366394
1789033870875716000,4.220716064453125,-0.31490078568458557,-0.17883066833019257,-0.14431680738925934
1789033870885641500,4.230641357421875,-0.16340632736682892,0.05085449293255806,-0.0746782198548317
1789033870895566600,4.240566650390625,-0.026572618633508682,0.21090106666088104,-0.03802633285522461
1789033870905492000,4.250491943359375,0.10415244847536087,0.19868376851081848,0.005955931730568409
1789033870915417300,4.260417236328125,0.25931209325790405,0.18280129134655,0.04627300798892975
1789033870925342500,4.270342529296875,0.44990190863609314,0.26221370697021484,0.07803797721862793
1789033870935267800,4.280267822265625,0.6319395899772644,0.33918267488479614,0.09758564829826355
1789033870945193000,4.29019287109375,0.795651376247406,0.3220784664154053,0.11713331937789917
1789033870955118300,4.300118408203125,0.9483675956726074,0.30741769075393677,0.14523309469223022
1789033870965043500,4.31004345703125,1.0961968898773193,0.33429574966430664,0.16844595968723297
1789033870974968600,4.319968505859375,1.239139199256897,0.3477347791194916,0.17944152653217316
1789033870984894000,4.32989404296875,1.3906337022781372,0.35506516695022583,0.20143266022205353
1789033870994819000,4.339819091796875,1.542128086090088,0.41126471757888794,0.22464552521705627
1789033871004744200,4.349744140625,1.666744589805603,0.46624255180358887,0.2331976294517517
1789033871014669600,4.359669677734375,1.774256706237793,0.5309942364692688,0.2600756883621216
1789033871024594700,4.3695947265625,1.8658864498138428,0.5761982202529907,0.2649625837802887
1789033871034519800,4.379519775390625,1.9391902685165405,0.5542070865631104,0.2441931962966919
1789033871044445200,4.389445068359375,1.9526292085647583,0.4601338803768158,0.21487168967723846
1789033871054370300,4.399370361328125,1.9477423429489136,0.346513032913208,0.23686282336711884
1789033871064295700,4.409295654296875,1.9379684925079346,0.29886558651924133,0.258853942155838
1789033871074220800,4.419220703125,1.9147557020187378,0.31719154119491577,0.26251915097236633
1789033871084146200,4.429146240234375,1.8744385242462158,0.40026915073394775,0.24663665890693665
1789033871094071300,4.4390712890625,1.8206825256347656,0.5199986696243286,0.2441931962966919
1789033871103996700,4.44899658203125,1.7889175415039062,0.6030762791633606,0.2600756883621216
1789033871113921800,4.458921875,1.775478482246399,0.653167188167572,0.2796233594417572
1789033871123847200,4.46884716796875,1.7376048564910889,0.6201804876327515,0.28328853845596313
1789033871133772500,4.4787724609375,1.6801835298538208,0.5065596103668213,0.28695371747016907
1789033871143697700,4.48869775390625,1.638644814491272,0.3159697949886322,0.31383177638053894
1789033871153623000,4.498623046875,1.6056580543518066,0.22556181252002716,0.3052796721458435
1789033871163548200,4.508548095703125,1.5335760116577148,0.17791436612606049,0.28206682205200195
1789033871173473300,4.518473388671875,1.4761546850204468,0.18524473905563354,0.3065013885498047
1789033871183398700,4.528398681640625,1.41506826877594,0.1925751268863678,0.30894485116004944
1789033871193323800,4.53832373046875,1.3014473915100098,0.09728021919727325,0.33948808908462524
1789033871203249000,4.548248779296875,1.2513564825057983,0.08017600327730179,0.4017963111400604
1789033871213174300,4.55817431640625,1.1951569318771362,0.017867794260382652,0.4140135943889618
1789033871223099400,4.568099365234375,1.0485494136810303,-0.1311832070350647,0.4042397737503052
1789033871233024500,4.5780244140625,0.8713986277580261,-0.27779075503349304,0.3761399984359741
1789033871242950000,4.587949951171875,0.7260127663612366,-0.3975202441215515,0.3761399984359741
1789033871252875000,4.597875,0.609948456287384,-0.48792824149131775,0.3407098352909088
1789033871262800100,4.607800048828125,0.4975493550300598,-0.4903717041015625,0.3223838806152344
1789033871272725500,4.6177255859375,0.40225446224212646,-0.4549415409564972,0.3321577310562134
1789033871282650600,4.627650634765625,0.3069595396518707,-0.49281516671180725,0.32971426844596863
1789033871292575700,4.63757568359375,0.1945604383945465,-0.5929969549179077,0.3199404180049896
1789033871302501000,4.647501220703125,0.06505709886550903,-0.7066178321838379,0.2893971800804138
1789033871312426200,4.65742626953125,-0.04001164436340332,-0.754265308380127,0.23441936075687408
1789033871322351600,4.6673515625,-0.11698060482740402,-0.6406444311141968,0.18310672044754028
1789033871332276700,4.67727685546875,-0.19272783398628235,-0.4757109582424164,0.15745039284229279
1789033871342201900,4.687201904296875,-0.26358816027641296,-0.30222535133361816,0.15989385545253754
1789033871352127200,4.697127197265625,-0.3344484567642212,-0.0591011680662632,0.1879936307668686
1789033871362052400,4.70705224609375,-0.41874781250953674,0.09972367435693741,0.1562286615371704
1789033871371977700,4.716977783203125,-0.5140427350997925,0.06307178735733032,-0.005039634648710489
1789033871381902800,4.72690283203125,-0.5897899270057678,0.11438442766666412,-0.12721258401870728
1789033871391828200,4.736828125,-0.6679806113243103,0.29275694489479065,-0.11743875592947006
1789033871401753300,4.74675341796875,-0.7351757884025574,0.4686860144138336,-0.07712167501449585
1789033871411678700,4.7566787109375,-0.7644972801208496,0.5395463109016418,-0.11988221108913422
1789033871421603800,4.766603759765625,-0.7877101302146912,0.5273290276527405,-0.18096868693828583
1789033871431529200,4.776529296875,-0.8182533979415894,0.4173733592033386,-0.20418155193328857
1789033871441454300,4.786454345703125,-0.8341358304023743,0.29153522849082947,-0.19562944769859314
1789033871451379700,4.796379638671875,-0.8231402635574341,0.19379685819149017,-0.18585561215877533
1789033871461304800,4.806304931640625,-0.7632755637168884,0.10094540566205978,-0.20418155193328857
1789033871471230200,4.816230224609375,-0.6777544617652893,0.05451968312263489,-0.22006404399871826
1789033871481155300,4.8261552734375,-0.6227766275405884,0.04718930274248123,-0.23228132724761963
1789033871491080400,4.83608056640625,-0.5861247777938843,0.07528908550739288,-0.2078467458486557
1789033871501005800,4.846005859375,-0.5238165259361267,0.011759147047996521,-0.13942988216876984
1789033871510931000,4.855930908203125,-0.4822777509689331,-0.03588830679655075,-0.09178243577480316
1789033871520856000,4.86585595703125,-0.5360338687896729,-0.007788525894284248,-0.08078686892986298
1789033871530781400,4.875781494140625,-0.6630937457084656,0.049632761627435684,-0.07223475724458694
1789033871540706600,4.88570654296875,-0.869566023349762,0.05451968312263489,-0.08689551800489426
1789033871550631700,4.895631591796875,-1.1322379112243652,0.09728021919727325,-0.1980729103088379
1789033871560557000,4.90555712890625,-1.2959495782852173,0.24999640882015228,-0.29825472831726074
1789033871570482400,4.915482421875,-1.3435970544815063,0.38072147965431213,-0.3019199073314667
1789033871580407600,4.925407470703125,-1.3741402626037598,0.14370593428611755,-0.3605629503726959
1789033871590333000,4.9353330078125,-1.3997966051101685,-0.46838057041168213,-0.503505289554596
1789033871600258000,4.945258056640625,-1.4278963804244995,-0.9986112117767334,-0.551152765750885
1789033871610183400,4.955183349609375,-1.4853177070617676,-1.1085668802261353,-0.4631882309913635
1789033871620108500,4.965108642578125,-1.5708388090133667,-0.8410080671310425,-0.4094321131706238
1789033871630034000,4.975033935546875,-1.69301176071167,-0.3877464234828949,-0.45707955956459045
1789033871639959000,4.984958984375,-1.8261802196502686,-0.06520981341600418,-0.5816959738731384
1789033871649884400,4.994884521484375,-1.87627112865448,-0.11774418503046036,-0.7099775671958923
1789033871659809500,5.0048095703125,-1.8603886365890503,-0.5429060459136963,-0.7478511929512024
1789033871669735000,5.01473486328125,-1.8151847124099731,-0.9314160943031311,-0.70753413438797
1789033871679660000,5.024659912109375,-1.729663610458374,-0.9216422438621521,-0.6537780165672302
1789033871689585200,5.034585205078125,-1.5940515995025635,-0.6638572812080383,-0.5548179149627686
1789033871699510500,5.044510498046875,-1.4388920068740845,-0.38652467727661133,-0.43020153045654297
1789033871709435600,5.054435546875,-1.311832070350647,-0.25091269612312317,-0.32757624983787537
1789033871719360800,5.06436083984375,-1.1701115369796753,-0.3315468728542328,-0.28848087787628174
1789033871729286100,5.0742861328125,-1.0931425094604492,-0.3938550651073456,-0.28725916147232056
1789033871739211300,5.084211181640625,-1.008843183517456,-0.4451677203178406,-0.26648977398872375
1789033871749136400,5.094136474609375,-0.8451313972473145,-0.40607234835624695,-0.1357647031545639
1789033871759061800,5.104061767578125,-0.6557633280754089,-0.23136503994464874,0.018173227086663246
1789033871768987100,5.113987060546875,-0.499381959438324,-0.08720094710588455,0.1049160286784172
1789033871778912300,5.123912353515625,-0.3503309488296509,0.036193739622831345,0.13179408013820648
1789033871788837600,5.133837646484375,-0.14996729791164398,0.20479241013526917,0.14523309469223022
1789033871798762800,5.1437626953125,0.08949168771505356,0.4247037470340729,0.13179408013820648
1789033871808688000,5.153688232421875,0.38881543278694153,0.6458367705345154,0.11957678198814392
1789033871818613200,5.16361328125,0.6624828577041626,0.736244797706604,0.09269873052835464
1789033871828538600,5.17353857421875,0.868955135345459,0.6971494555473328,0.05238165333867073
1789033871838463700,5.183463623046875,1.035110354423523,0.6482802629470825,0.09880737960338593
1789033871848389000,5.19338916015625,1.1878265142440796,0.6910407543182373,0.19898919761180878
1789033871858314200,5.203314208984375,1.3173298835754395,0.7790052890777588,0.25152358412742615
1789033871868239600,5.213239501953125,1.4285073280334473,0.8743002414703369,0.27229297161102295
1789033871878164700,5.223164794921875,1.5238021612167358,0.9476040005683899,0.2893971800804138
1789033871888089900,5.23308984375,1.6239839792251587,1.0050252676010132,0.2906189262866974
1789033871898015200,5.24301513671875,1.7033964395523071,1.0600031614303589,0.23075416684150696
1789033871907940400,5.2529404296875,1.7522655725479126,0.9915862679481506,0.18310672044754028
1789033871917865500,5.262865478515625,1.7693698406219482,0.8999565243721008,0.1611155867576599
1789033871927790800,5.272790771484375,1.7901391983032227,0.8144354820251465,0.1611155867576599
1789033871937716000,5.282716064453125,1.842673659324646,0.7301361560821533,0.19165882468223572
1789033871947641000,5.29264111328125,1.8744385242462158,0.5652026534080505,0.20021092891693115
1789033871957566500,5.30256640625,1.8781037330627441,0.407599538564682,0.1562286615371704
1789033871967491600,5.31249169921875,1.8585560321807861,0.32330018281936646,0.09269873052835464
1789033871977417000,5.3224169921875,1.8390084505081177,0.29764387011528015,0.05238165333867073
1789033871987342300,5.33234228515625,1.8292346000671387,0.31841325759887695,0.06337722390890121
1789033871997267500,5.342267333984375,1.8243476152420044,0.3831649422645569,0.12812888622283936
1789033872007192800,5.35219287109375,1.80357825756073,0.471129447221756,0.15745039284229279
1789033872017118000,5.362117919921875,1.7571525573730469,0.5138899683952332,0.14523309469223022
1789033872027043300,5.372043212890625,1.7082833051681519,0.5053378939628601,0.14523309469223022
1789033872036968400,5.381968505859375,1.6581923961639404,0.49312058091163635,0.14889828860759735
1789033872046893800,5.391893798828125,1.5482367277145386,0.3404043912887573,0.12690715491771698
1789033872056819000,5.40181884765625,1.3906337022781372,0.10827577859163284,0.11102467030286789
1789033872066744300,5.411744384765625,1.275791049003601,0.04474584385752678,0.11468986421823502
1789033872076669400,5.42166943359375,1.2220350503921509,0.05451968312263489,0.11835505068302155
1789033872086594800,5.4315947265625,1.1426225900650024,-0.0102319847792387,0.14889828860759735
1789033872096520200,5.441520263671875,1.02655827999115,-0.1311832070350647,0.13179408013820648
1789033872106445300,5.4514453125,0.9019418358802795,-0.28267768025398254,0.08781181275844574
1789033872116370700,5.46137060546875,0.8103121519088745,-0.34865108132362366,0.07681624591350555
1789033872126295800,5.4712958984375,0.7076868414878845,-0.3572031855583191,0.08903354406356812
1789033872136221200,5.48122119140625,0.5757400393486023,-0.33399030566215515,0.11346813291311264
1789033872146146300,5.491146240234375,0.4205803871154785,-0.3718639314174652,0.12690715491771698
1789033872156071400,5.501071533203125,0.2605338394641876,-0.45738500356674194,0.1366809904575348
1789033872165996800,5.510996826171875,0.1127045527100563,-0.5441278219223022,0.12812888622283936
1789033872175922000,5.520921875,-0.011911863461136818,-0.6369792222976685,0.08170316368341446
1789033872185847000,5.530846923828125,-0.10354158282279968,-0.7200568318367004,0.009621120058000088
1789033872195772200,5.540772216796875,-0.1805105358362198,-0.7958040833473206,-0.07712167501449585
1789033872205697300,5.550697265625,-0.27091851830482483,-0.8263473510742188,-0.1455385386943817
1789033872215622400,5.560622314453125,-0.36743515729904175,-0.7982475757598877,-0.191964253783226
1789033872225547500,5.570547607421875,-0.45051276683807373,-0.6858484148979187,-0.23594652116298676
1789033872235473000,5.580472900390625,-0.5152644515037537,-0.3926333487033844,-0.26160284876823425
1789033872245398000,5.59039794921875,-0.6130027770996094,0.0642935186624527,-0.21639885008335114
1789033872255323100,5.6003232421875,-0.7363975048065186,0.41615164279937744,-0.15897755324840546
1789033872265248500,5.61024853515625,-0.78648841381073,0.6262891292572021,-0.1663079410791397
1789033872275173600,5.620173583984375,-0.766940712928772,0.7276926636695862,-0.13454297184944153
1789033872285099000,5.63009912109375,-0.7376192212104797,0.6104066371917725,-0.05513054504990578
1789033872295024000,5.640024169921875,-0.7254019379615784,0.3782780170440674,-0.009926552884280682
1789033872304949500,5.649949462890625,-0.7254019379615784,0.16447533667087555,0.007177661173045635
1789033872314875000,5.659875,-0.7657189965248108,-0.07498364895582199,0.010842849500477314
1789033872324800000,5.669800048828125,-0.8158099055290222,-0.27290382981300354,-0.029474224895238876
1789033872334725400,5.679725341796875,-0.9049961566925049,-0.3205513060092926,-0.11377356201410294
1789033872344650500,5.689650390625,-1.010064959526062,-0.2582430839538574,-0.21029019355773926
1789033872354576000,5.699575927734375,-1.0357211828231812,-0.2741255760192871,-0.2860374450683594
1789033872364501000,5.7095009765625,-1.0259474515914917,-0.3303251266479492,-0.31413722038269043
1789033872374426000,5.719426025390625,-1.0247256755828857,-0.33399030566215515,-0.305585116147995
1789033872384351500,5.7293515625,-1.0491602420806885,-0.3510945439338684,-0.2811505198478699
1789033872394276600,5.739276611328125,-1.1615593433380127,-0.4353938698768616,-0.2799287736415863
1789033872404202000,5.749201904296875,-1.3057234287261963,-0.3046688139438629,-0.35445427894592285
1789033872414127000,5.759127197265625,-1.3655881881713867,0.10949750989675522,-0.4033234715461731
1789033872424052200,5.76905224609375,-1.3619229793548584,0.4760163724422455,-0.4045451879501343
1789033872433977600,5.7789775390625,-1.3949097394943237,0.41126471757888794,-0.4766272306442261
1789033872443902700,5.78890283203125,-1.4132356643676758,-0.14706569910049438,-0.5719221234321594
1789033872453827800,5.798827880859375,-1.4840959310531616,-0.8495602011680603,-0.5621483325958252
1789033872463753200,5.808753173828125,-1.6221513748168945,-1.2319614887237549,-0.5047270059585571
1789033872473678300,5.81867822265625,-1.8164063692092896,-1.0609194040298462,-0.4815141558647156
1789033872483603700,5.828603759765625,-1.9605704545974731,-0.5917752385139465,-0.46685341000556946
1789033872493528800,5.83852880859375,-2.00577449798584,-0.2240346521139145,-0.47174033522605896
1789033872503454200,5.8484541015625,-1.9752312898635864,-0.25579962134361267,-0.513279139995575
1789033872513379600,5.858379638671875,-1.9312490224838257,-0.6052142977714539,-0.5584831237792969
1789033872523304700,5.8683046875,-1.867719054222107,-0.9656245112419128,-0.5328267812728882
1789033872533230000,5.87822998046875,-1.7736458778381348,-1.0315978527069092,-0.4289797842502594
1789033872543155200,5.8881552734375,-1.6392556428909302,-0.7628173828125,-0.3214675784111023
1789033872553080600,5.89808056640625,-1.469435214996338,-0.40118545293807983,-0.2493855506181717
1789033872563005700,5.908005615234375,-1.2812888622283936,-0.22036947309970856,-0.1663079410791397
1789033872572931000,5.91793115234375,-1.1200206279754639,-0.2228129357099533,-0.052687086164951324
1789033872582856200,5.927856201171875,-0.9831868410110474,-0.22525638341903687,0.004734201822429895
1789033872592781600,5.937781494140625,-0.8622356653213501,-0.228921577334404,0.015729768201708794
1789033872602706700,5.947706787109375,-0.7657189965248108,-0.21914774179458618,0.08048143237829208
1789033872612632000,5.957632080078125,-0.5800161361694336,-0.11285726726055145,0.18555018305778503
1789033872622557400,5.967557373046875,-0.34666576981544495,0.08872810751199722,0.2893971800804138
1789033872632482600,5.977482666015625,-0.16096286475658417,0.28664830327033997,0.3529271185398102
1789033872642408000,5.987407958984375,0.029626941308379173,0.41492989659309387,0.35414886474609375
1789033872652333000,5.9973330078125,0.23732095956802368,0.48823368549346924,0.30772313475608826
1789033872662258200,6.007258056640625,0.47067132592201233,0.512668251991272,0.2649625837802887
1789033872672183300,6.017183349609375,0.7174606919288635,0.5016726851463318,0.23441936075687408
1789033872682108700,6.027108642578125,0.9361502528190613,0.4747946560382843,0.21975859999656677
1789033872692033800,6.03703369140625,1.1169662475585938,0.4796815812587738,0.21975859999656677
1789033872701959000,6.046958984375,1.295338749885559,0.5261073112487793,0.24297146499156952
1789033872711884000,6.056884033203125,1.4553853273391724,0.5871937870979309,0.26740604639053345
1789033872721809200,6.06680908203125,1.5775582790374756,0.6653844714164734,0.268627792596817
1789033872731734300,6.076734375,1.6777400970458984,0.7228057384490967,0.2649625837802887
1789033872741659400,6.086659423828125,1.7608177661895752,0.7777835726737976,0.24663665890693665
1789033872751584800,6.096584716796875,1.8561125993728638,0.8559742569923401,0.22586725652217865
1789033872761510000,6.106510009765625,1.9074252843856812,0.8303179740905762,0.23441936075687408
1789033872771435300,6.116435302734375,1.9477423429489136,0.7790052890777588,0.25763222575187683
1789033872781360400,6.1263603515625,2.000276803970337,0.7557924389839172,0.2490801066160202
1789033872791285800,6.13628564453125,2.00882887840271,0.7374665141105652,0.21487168967723846
1789033872801211000,6.1462109375,1.961181402206421,0.6116283535957336,0.23075416684150696
1789033872811136300,6.15613623046875,1.9013166427612305,0.48212501406669617,0.24052800238132477
1789033872821061400,6.166061279296875,1.8756603002548218,0.5358811020851135,0.2087630331516266
1789033872830986800,6.17598681640625,1.8744385242462158,0.7521272301673889,0.19165882468223572
1789033872840912100,6.185912109375,1.8646647930145264,0.9341649413108826,0.21975859999656677
1789033872850837200,6.195837158203125,1.831678032875061,0.9989166259765625,0.26740604639053345
1789033872860762400,6.205762451171875,1.7828088998794556,0.8938478827476501,0.3162752389907837
1789033872870687700,6.215687744140625,1.6997312307357788,0.6641627550125122,0.3309359848499298
1789033872880612900,6.22561279296875,1.6056580543518066,0.4540252387523651,0.3199404180049896
1789033872890538000,6.2355380859375,1.5555671453475952,0.4405862092971802,0.3150535225868225
1789033872900463400,6.24546337890625,1.5018110275268555,0.5261073112487793,0.3260490894317627
1789033872910388500,6.255388427734375,1.3808598518371582,0.5004509687423706,0.31871870160102844
1789033872920313900,6.26531396484375,1.240360975265503,0.2658788859844208,0.3150535225868225
1789033872930239000,6.275239013671875,1.0949751138687134,-0.004123337101191282,0.3370446562767029
1789033872940164000,6.2851640625,0.9752455949783325,-0.16294817626476288,0.3480401933193207
1789033872950089500,6.29508935546875,0.8249728679656982,-0.2997818887233734,0.3309359848499298
1789033872960014600,6.3050146484375,0.7003564834594727,-0.3156643807888031,0.31383177638053894
1789033872969939700,6.314939697265625,0.5977311730384827,-0.24236060678958893,0.3065013885498047
1789033872979865000,6.324864990234375,0.4731147587299347,-0.21181736886501312,0.28695371747016907
1789033872989790200,6.334790283203125,0.3582721948623657,-0.281455934047699,0.28695371747016907
1789033872999715300,6.34471533203125,0.19822561740875244,-0.44150251150131226,0.26618432998657227
1789033873009640700,6.354640625,0.006414080038666725,-0.596662163734436,0.21975859999656677
1789033873019565800,6.36456591796875,-0.14263692498207092,-0.6565269231796265,0.1366809904575348
1789033873029491000,6.374490966796875,-0.24526220560073853,-0.7090612649917603,0.0206166859716177
1789033873039416300,6.384416259765625,-0.3430005609989166,-0.7493783831596375,-0.10644318908452988
1789033873049341400,6.394341552734375,-0.4712821841239929,-0.8202387094497681,-0.2188423126935959
1789033873059266800,6.404266845703125,-0.6288852691650391,-0.8116865754127502,-0.3068068325519562
1789033873069192000,6.41419189453125,-0.7632755637168884,-0.6052142977714539,-0.37033677101135254
1789033873079117300,6.424117431640625,-0.8439096808433533,-0.16783510148525238,-0.3923279047012329
1789033873089042400,6.43404248046875,-0.9245438575744629,0.4247037470340729,-0.33857181668281555
1789033873098967800,6.4439677734375,-1.0051779747009277,0.8791871070861816,-0.23472478985786438
1789033873108893000,6.453892822265625,-1.0332777500152588,1.0441206693649292,-0.15775582194328308
1789033873118818300,6.463818359375,-0.9343177080154419,0.8975130915641785,-0.1418733447790146
1789033873128743400,6.473743408203125,-0.8439096808433533,0.585972011089325,-0.09300415962934494
1789033873138668800,6.483668701171875,-0.8158099055290222,0.25610506534576416,-0.07101303339004517
1789033873148594000,6.493593994140625,-0.8097012639045715,-0.08597921580076218,-0.11499529331922531
1789033873158519300,6.503519287109375,-0.8463531732559204,-0.31932955980300903,-0.12965604662895203
1789033873168444400,6.5134443359375,-0.961195707321167,-0.4195113778114319,-0.1663079410791397
1789033873178369800,6.523369873046875,-1.0955859422683716,-0.3400989770889282,-0.25671592354774475
1789033873188295000,6.533294921875,-1.1896591186523438,-0.2130390852689743,-0.34345871210098267
1789033873198220000,6.543219970703125,-1.2079850435256958,-0.18371757864952087,-0.35811948776245117
1789033873208145400,6.5531455078125,-1.2055416107177734,-0.18616104125976562,-0.29703301191329956
1789033873218070500,6.563070556640625,-1.2287545204162598,-0.30833399295806885,-0.21639885008335114
1789033873227995600,6.57299560546875,-1.3716968297958374,-0.505032479763031,-0.19685117900371552
1789033873237921000,6.582921142578125,-1.573282241821289,-0.49281516671180725,-0.29214608669281006
1789033873247846100,6.59284619140625,-1.583056092262268,-0.022449281066656113,-0.37400195002555847
1789033873257771300,6.602771240234375,-1.4535527229309082,0.5688678026199341,-0.37033677101135254
1789033873267696600,6.612696533203125,-1.4523310661315918,0.6959276795387268,-0.4192059636116028
1789033873277621800,6.622621826171875,-1.553734540939331,0.1314886510372162,-0.5267181396484375
1789033873287547000,6.632546875,-1.6588033437728882,-0.7591522336006165,-0.5878046154975891
1789033873297472300,6.64247216796875,-1.749211311340332,-1.4017819166183472,-0.5279398560523987
1789033873307397400,6.6523974609375,-1.8591669797897339,-1.5154027938842773,-0.4082103967666626
1789033873317322500,6.662322509765625,-1.9776747226715088,-1.2209659814834595,-0.3605629503726959
1789033873327248000,6.672247802734375,-2.08152174949646,-0.7176133990287781,-0.3813323378562927
1789033873337173000,6.682173095703125,-2.140164852142334,-0.3400989770889282,-0.42653632164001465
1789033873347098000,6.69209814453125,-2.1059563159942627,-0.2790125012397766,-0.4326449930667877
1789033873357023500,6.7020234375,-1.9972224235534668,-0.4072940945625305,-0.3263545036315918
1789033873366948600,6.711948486328125,-1.8432844877243042,-0.5172497630119324,-0.15286891162395477
1789033873376874000,6.7218740234375,-1.6746858358383179,-0.41584619879722595,-0.020922118797898293
1789033873386799400,6.73179931640625,-1.4315615892410278,-0.23014330863952637,0.09269873052835464
1789033873396724500,6.741724365234375,-1.1603376865386963,-0.12873975932598114,0.23075416684150696
1789033873406649900,6.75164990234375,-0.9673043489456177,-0.03955349326133728,0.29306238889694214
1789033873416575000,6.761574951171875,-0.804814338684082,0.0850629210472107,0.2380845546722412
1789033873426500400,6.771500244140625,-0.6496546864509583,0.055741410702466965,0.21975859999656677
1789033873436425500,6.781425537109375,-0.5042688846588135,-0.007788525894284248,0.25152358412742615
1789033873446350800,6.791350830078125,-0.37110036611557007,0.039858926087617874,0.31261005997657776
1789033873456276000,6.80127587890625,-0.1279761642217636,0.19013166427612305,0.3822486400604248
1789033873466201300,6.811201416015625,0.14080433547496796,0.3721693754196167,0.4030180275440216
1789033873476126500,6.82112646484375,0.33628106117248535,0.44791659712791443,0.351705402135849
1789033873486051600,6.831051513671875,0.5561923980712891,0.4381427764892578,0.30894485116004944
1789033873495977000,6.84097705078125,0.8029817342758179,0.46746426820755005,0.2637408673763275
1789033873505902000,6.850902099609375,1.0290017127990723,0.5175551772117615,0.2087630331516266
1789033873515827200,6.8608271484375,1.2183698415756226,0.5151117444038391,0.21975859999656677
1789033873525752600,6.870752685546875,1.4199551343917847,0.5493201613426208,0.24174973368644714
1789033873535677700,6.880677734375,1.561675786972046,0.5676460862159729,0.25274530053138733
1789033873545602800,6.890602783203125,1.6496403217315674,0.6556106209754944,0.26251915097236633
1789033873555528200,6.900528076171875,1.7107268571853638,0.7875574231147766,0.25641047954559326
1789033873565453300,6.910453369140625,1.7962478399276733,0.892626166343689,0.25274530053138733
1789033873575378700,6.920378662109375,1.8878775835037231,0.9341649413108826,0.2551887631416321
1789033873585304000,6.930303955078125,1.9379684925079346,0.9476040005683899,0.22464552521705627
1789033873595229200,6.940229248046875,1.940411925315857,0.8962913751602173,0.21609342098236084
1789033873605154600,6.950154541015625,1.9477423429489136,0.8303179740905762,0.23564109206199646
1789033873615079700,6.96007958984375,1.9526292085647583,0.7851139307022095,0.2600756883621216
1789033873625005000,6.970005126953125,1.9196425676345825,0.7325795888900757,0.3016144931316376
1789033873634930200,6.97993017578125,1.8622212409973145,0.6751583218574524,0.32971426844596863
1789033873644855600,6.98985546875,1.821904182434082,0.6885973215103149,0.34193155169487
1789033873654780700,6.99978076171875,1.7620394229888916,0.7851139307022095,0.28695371747016907
1789033873664706000,7.0097060546875,1.666744589805603,0.8669698238372803,0.2234237939119339
1789033873674631200,7.019631103515625,1.589775562286377,0.9976949095726013,0.1977674663066864
1789033873684556300,7.029556396484375,1.5262455940246582,1.0807725191116333,0.14889828860759735
1789033873694481400,7.0394814453125,1.4834851026535034,0.9500474333763123,0.13912445306777954
1789033873704406500,7.049406494140625,1.4834851026535034,0.7105884552001953,0.15256348252296448
1789033873714331600,7.05933154296875,1.472489595413208,0.522442102432251,0.17088942229747772
1789033873724256800,7.0692568359375,1.3833032846450806,0.4137081801891327,0.20143266022205353
1789033873734182000,7.079181884765625,1.201265573501587,0.21578797698020935,0.16600249707698822
1789033873744107300,7.089107177734375,0.9862411618232727,-0.07620538026094437,0.16600249707698822
1789033873754032400,7.099032470703125,0.8481857180595398,-0.2435823380947113,0.1672242283821106
1789033873763957500,7.10895751953125,0.7870992422103882,-0.40118545293807983,0.10735948383808136
1789033873773883000,7.1188828125,0.7211259007453918,-0.49770209193229675,0.05849030241370201
1789033873783808000,7.12880810546875,0.6160571575164795,-0.4280634820461273,0.04993819445371628
1789033873793733400,7.1387333984375,0.5158752799034119,-0.29856017231941223,0.06337722390890121
1789033873803658800,7.14865869140625,0.425467312335968,-0.2631300091743469,0.08048143237829208
1789033873813584000,7.158583984375,0.32162031531333923,-0.3559814393520355,0.10613775253295898
1789033873823509200,7.16850927734375,0.16646064817905426,-0.5331322550773621,0.10369429737329483
1789033873833434400,7.178434326171875,-0.00946840364485979,-0.6455313563346863,0.05971203371882439
1789033873843359700,7.18835986328125,-0.15485422313213348,-0.7554870247840881,-0.01847865991294384
1789033873853284900,7.198284912109375,-0.27091851830482483,-0.836121141910553,-0.11621702462434769
1789033873863210200,7.208210205078125,-0.3588830530643463,-0.7493783831596375,-0.18585561215877533
1789033873873135400,7.21813525390625,-0.42974337935447693,-0.6149880886077881,-0.21395538747310638
1789033873883060500,7.228060546875,-0.5067123174667358,-0.3987419903278351,-0.212733656167984
1789033873892985900,7.23798583984375,-0.5702422857284546,-0.11652245372533798,-0.17486004531383514
1789033873902911000,7.247910888671875,-0.6887500286102295,0.15592323243618011,-0.12354740500450134
1789033873912836000,7.257836181640625,-0.8170316219329834,0.22556181252002716,-0.10888664424419403
1789033873922761500,7.267761474609375,-0.8964440822601318,0.13271036744117737,-0.1357647031545639
1789033873932686600,7.2776865234375,-0.9294307827949524,0.04474584385752678,-0.1418733447790146
1789033873942611700,7.28761181640625,-0.9550870656967163,-0.08109229803085327,-0.1406516134738922
1789033873952537000,7.297537109375,-0.9660826325416565,-0.2032652497291565,-0.15286891162395477
1789033873962462200,7.307462158203125,-1.0039563179016113,-0.3462076187133789,-0.16264274716377258
1789033873972387300,7.31738720703125,-1.0748165845870972,-0.3816377818584442,-0.17486004531383514
1789033873982312700,7.327312744140625,-1.1420117616653442,-0.3119991719722748,-0.17119485139846802
1789033873992237800,7.33723779296875,-1.2287545204162598,-0.18005239963531494,-0.1455385386943817
1789033874002163000,7.347162841796875,-1.3264929056167603,-0.09330959618091583,-0.14309507608413696
1789033874012088300,7.35708837890625,-1.3912445306777954,-0.14340050518512726,-0.20418155193328857
1789033874022013400,7.367013427734375,-1.4217877388000488,-0.30344706773757935,-0.3263545036315918
1789033874031938600,7.3769384765625,-1.4193443059921265,-0.3523162603378296,-0.41676250100135803
1789033874041864000,7.386864013671875,-1.408348798751831,-0.29367324709892273,-0.388662725687027
1789033874051789000,7.3967890625,-1.4596613645553589,-0.13484840095043182,-0.34956738352775574
1789033874061714400,7.40671435546875,-1.5793908834457397,-0.031001387163996696,-0.39599308371543884
1789033874071639600,7.4166396484375,-1.6661336421966553,-0.11652245372533798,-0.458301305770874
1789033874081565000,7.42656494140625,-1.701563835144043,-0.2692386507987976,-0.43020153045654297
1789033874091490000,7.436489990234375,-1.749211311340332,-0.3217730224132538,-0.3727802336215973
1789033874101415400,7.44641552734375,-1.8102977275848389,-0.22525638341903687,-0.37033677101135254
1789033874111340500,7.456340576171875,-1.8616104125976562,-0.05787943676114082,-0.41676250100135803
1789033874121266000,7.466265869140625,-1.8994840383529663,0.0154243353754282,-0.4021017551422119
1789033874131191300,7.47619140625,-1.91414475440979,-0.16661337018013,-0.32268932461738586
1789033874141116400,7.486116455078125,-1.895818829536438,-0.5380191802978516,-0.2909243404865265
1789033874151041800,7.496041748046875,-1.8738276958465576,-0.7603739500045776,-0.31413722038269043
1789033874160967000,7.505966796875,-1.8408410549163818,-0.6675224900245667,-0.30802857875823975
1789033874170892000,7.51589208984375,-1.8066326379776,-0.33765551447868347,-0.2188423126935959
1789033874180817200,7.525817138671875,-1.6649119853973389,-0.05299251899123192,-0.06612611562013626
1789033874190742300,7.5357421875,-1.4535527229309082,0.07528908550739288,0.10735948383808136
1789033874200667400,7.54566748046875,-1.2519673109054565,0.05818486958742142,0.24785839021205902
1789033874210592500,7.555592529296875,-1.0528254508972168,-0.04199695214629173,0.31871870160102844
1789033874220518000,7.565517822265625,-0.8805615901947021,-0.13729186356067657,0.3150535225868225
1789033874230443000,7.575443115234375,-0.7254019379615784,-0.13729186356067657,0.27840161323547363
1789033874240368000,7.5853681640625,-0.562911868095398,-0.0334448479115963,0.28817546367645264
1789033874250293200,7.595293212890625,-0.38331764936447144,0.07284562289714813,0.3675878942012787
1789033874260218400,7.60521826171875,-0.17195843160152435,0.1669187992811203,0.38591381907463074
1789033874270143700,7.615143798828125,0.051618073135614395,0.24633121490478516,0.32360562682151794
1789033874280068900,7.62506884765625,0.27397283911705017,0.31719154119491577,0.24541492760181427
1789033874289994000,7.634993896484375,0.5073232054710388,0.3672824501991272,0.20143266022205353
1789033874299919400,7.64491943359375,0.7528908252716064,0.3929387629032135,0.1928805559873581
1789033874309844500,7.654844482421875,0.980132520198822,0.480903297662735,0.1672242283821106
1789033874319769600,7.66476953125,1.1756092309951782,0.6018545031547546,0.11835505068302155
1789033874329695000,7.674695068359375,1.3527600765228271,0.7044798135757446,0.07559451460838318
1789033874339620000,7.6846201171875,1.5311325788497925,0.7838922142982483,0.030390523374080658
1789033874349545500,7.69454541015625,1.6594141721725464,0.7973312735557556,-0.01359174121171236
1789033874359470600,7.704470703125,1.7388266324996948,0.809548556804657,-0.005039634648710489
1789033874369395700,7.714395751953125,1.8157955408096313,0.8303179740905762,0.02916879393160343
1789033874379321000,7.724321044921875,1.8842123746871948,0.8657481074333191,0.02916879393160343
1789033874389246200,7.73424609375,1.9379684925079346,0.837648332118988,0.03527744114398956
1789033874399171300,7.74417138671875,1.951407551765442,0.7338013052940369,0.0487164668738842
1789033874409096700,7.7540966796875,1.9770638942718506,0.6201804876327515,0.02672533318400383
1789033874419021800,7.764021728515625,2.019824504852295,0.5187768936157227,0.003512472379952669
1789033874428947000,7.773947021484375,2.0405938625335693,0.4699077308177948,0.02306014485657215
1789033874438872300,7.783872314453125,2.034485101699829,0.5053378939628601,0.05238165333867073
1789033874448797400,7.79379736328125,2.039371967315674,0.5627591609954834,0.05482511222362518
1789033874458722800,7.803722900390625,2.0442590713500977,0.5798633694648743,0.06337722390890121
1789033874468648000,7.81364794921875,2.039371967315674,0.6409498453140259,0.0951421856880188
1789033874478573300,7.8235732421875,1.9733986854553223,0.7215840220451355,0.10858121514320374
1789033874488498400,7.83349853515625,1.9159773588180542,0.7655662894248962,0.14401137828826904
1789033874498423800,7.843423828125,1.8634430170059204,0.6849321126937866,0.18310672044754028
1789033874508349000,7.853348876953125,1.7779219150543213,0.5639809370040894,0.19043709337711334
1789033874518274300,7.8632744140625,1.666744589805603,0.5309942364692688,0.18066325783729553
1789033874528199400,7.873199462890625,1.5494585037231445,0.3575085997581482,0.1611155867576599
1789033874538124800,7.883124755859375,1.395520567893982,0.07773254066705704,0.14889828860759735
1789033874548050000,7.8930498046875,1.2354739904403687,-0.050549060106277466,0.15378521382808685
1789033874557975300,7.902975341796875,1.0876446962356567,0.02764163166284561,0.1672242283821106
1789033874567900700,7.912900634765625,0.9471458196640015,0.049632761627435684,0.17577634751796722
1789033874577825800,7.92282568359375,0.8115338683128357,0.01908952370285988,0.17333288490772247
1789033874587751200,7.932751220703125,0.6783653497695923,-0.10186170041561127,0.17455461621284485
1789033874597676300,7.94267626953125,0.5513054728507996,-0.24113887548446655,0.19532401859760284
1789033874607601700,7.9526015625,0.41813695430755615,-0.36453354358673096,0.20387612283229828
1789033874617526800,7.96252685546875,0.28496840596199036,-0.5148062705993652,0.19898919761180878
1789033874627452200,7.9724521484375,0.18234314024448395,-0.5820014476776123,0.18677189946174622
1789033874637377300,7.982377197265625,0.09560033679008484,-0.5795579552650452,0.17088942229747772
1789033874647302700,7.992302734375,-0.00946840364485979,-0.6455313563346863,0.14034618437290192
1789033874657227800,8.002227783203125,-0.14996729791164398,-0.8006910085678101,0.08048143237829208
1789033874667153000,8.01215283203125,-0.31612253189086914,-0.9350812435150146,-0.009926552884280682
1789033874677078000,8.022078125,-0.4773908257484436,-0.9228639602661133,-0.08078686892986298
1789033874687003100,8.032003173828125,-0.5958985686302185,-0.7237220406532288,-0.11133010685443878
1789033874696928500,8.041928466796875,-0.713184654712677,-0.4353938698768616,-0.14798198640346527
1789033874706853600,8.051853515625,-0.8402445316314697,-0.08109229803085327,-0.16752967238426208
1789033874716778800,8.06177880859375,-0.9282090067863464,0.11804962158203125,-0.14798198640346527
1789033874726703900,8.071703857421875,-0.9587522745132446,0.19990549981594086,-0.1259908676147461
1789033874736629000,8.08162890625,-0.9575305581092834,0.1974620372056961,-0.10277800261974335
1789033874746554000,8.09155419921875,-0.970969557762146,0.08261945843696594,-0.09056070446968079
1789033874756479500,8.1014794921875,-0.9782999157905579,-0.12018764764070511,-0.10888664424419403
1789033874766404600,8.111404541015625,-0.990517258644104,-0.30711227655410767,-0.14431680738925934
1789033874776330000,8.121330078125,-0.990517258644104,-0.34987279772758484,-0.16386447846889496
1789033874786255000,8.131255126953125,-1.0259474515914917,-0.3779725730419159,-0.17974695563316345
1789033874796180200,8.14118017578125,-1.1517854928970337,-0.38408124446868896,-0.22495095431804657
1789033874806105300,8.151105224609376,-1.34237539768219,-0.32299473881721497,-0.2835939824581146
1789033874816030700,8.16103076171875,-1.477987289428711,-0.13362666964530945,-0.27748534083366394
1789033874825955800,8.170955810546875,-1.4950915575027466,0.14737112820148468,-0.22617268562316895
1789033874835881200,8.180881103515626,-1.4388920068740845,0.48701193928718567,-0.20906847715377808
1789033874845806300,8.190806396484374,-1.3741402626037598,0.5334376692771912,-0.2444986253976822
1789033874855731500,8.2007314453125,-1.3851358890533447,0.08750637620687485,-0.28725916147232056
1789033874865656800,8.21065673828125,-1.4865394830703735,-0.3352120518684387,-0.3251327872276306
1789033874875582000,8.22058203125,-1.5916081666946411,-0.5111411213874817,-0.2945895493030548
1789033874885507000,8.230507080078125,-1.701563835144043,-0.43172869086265564,-0.2383899837732315
1789033874895432400,8.240432373046875,-1.8017456531524658,-0.14706569910049438,-0.19685117900371552
1789033874905357600,8.250357666015624,-1.8322888612747192,0.23533566296100616,-0.1773035079240799
1789033874915282700,8.26028271484375,-1.7993022203445435,0.40637779235839844,-0.16997312009334564
1789033874925208000,8.2702080078125,-1.8054108619689941,0.23167046904563904,-0.15531237423419952
1789033874935133200,8.28013330078125,-1.8298454284667969,-0.14950916171073914,-0.14920371770858765
1789033874945058300,8.290058349609374,-1.8261802196502686,-0.5404626131057739,-0.1406516134738922
1789033874954983700,8.299983642578125,-1.7736458778381348,-0.6565269231796265,-0.12721258401870728
1789033874964908800,8.30990869140625,-1.69301176071167,-0.4378373324871063,-0.09666935354471207
1789033874974834000,8.319833984375,-1.6197079420089722,-0.16294817626476288,-0.036804601550102234
1789033874984759300,8.32975927734375,-1.5012001991271973,-0.046883873641490936,0.06582067906856537
1789033874994684400,8.339684326171875,-1.34237539768219,-0.04932733252644539,0.17821979522705078
1789033875004609800,8.34960986328125,-1.1798852682113647,-0.1568395346403122,0.268627792596817
1789033875014535000,8.359534912109375,-1.0125083923339844,-0.25213444232940674,0.31871870160102844
1789033875024460000,8.3694599609375,-0.8671225309371948,-0.22036947309970856,0.27107125520706177
1789033875034385400,8.379385498046876,-0.6679806113243103,-0.20693044364452362,0.26251915097236633
1789033875044310500,8.389310546875,-0.44318240880966187,-0.19471314549446106,0.3578140437602997
1789033875054235600,8.399235595703125,-0.24770566821098328,-0.09330959618091583,0.40057456493377686
1789033875064161000,8.4091611328125,-0.03023780696094036,0.15470150113105774,0.33826637268066406
1789033875074086100,8.419086181640624,0.21655155718326569,0.3452913165092468,0.268627792596817
1789033875084011300,8.42901123046875,0.46944957971572876,0.4137081801891327,0.2075413018465042
1789033875093936400,8.438936279296875,0.7137954831123352,0.35995206236839294,0.1928805559873581
1789033875103861800,8.44886181640625,0.9239329695701599,0.29275694489479065,0.20021092891693115
1789033875113787000,8.458786865234375,1.1169662475585938,0.3220784664154053,0.1721111536026001
1789033875123712000,8.4687119140625,1.267238974571228,0.35873034596443176,0.15256348252296448
1789033875133637400,8.478637451171876,1.4223986864089966,0.48823368549346924,0.12690715491771698
1789033875143562500,8.4885625,1.5873321294784546,0.6140718460083008,0.09147699922323227
1789033875153487600,8.498487548828125,1.7021746635437012,0.6495019793510437,0.0487164668738842
1789033875163413000,8.5084130859375,1.7815871238708496,0.6360629796981812,0.01695149764418602
1789033875173338000,8.518338134765624,1.8768820762634277,0.6849321126937866,-0.01359174121171236
1789033875183263200,8.52826318359375,1.9721769094467163,0.7606793642044067,-0.07345648854970932
1789033875193188600,8.538188720703126,2.0161592960357666,0.7790052890777588,-0.11499529331922531
1789033875203113700,8.54811376953125,2.0320417881011963,0.6812669634819031,-0.07589995115995407
1789033875213038800,8.558038818359375,2.045480728149414,0.5835285782814026,-0.0062613640911877155
1789033875222964200,8.567964111328125,2.0552544593811035,0.5652026534080505,0.043829549103975296
1789033875232889300,8.577889404296876,2.043037176132202,0.6067414283752441,0.08048143237829208
1789033875242814500,8.587814453125,2.0210461616516113,0.6702713966369629,0.07315105944871902
1789033875252739800,8.59773974609375,2.000276803970337,0.6702713966369629,0.04627300798892975
1789033875262665000,8.6076650390625,1.9758421182632446,0.623845636844635,0.05971203371882439
1789033875272590000,8.617590087890624,1.9562944173812866,0.6116283535957336,0.07681624591350555
1789033875282515500,8.627515380859375,1.9184207916259766,0.6519454121589661,0.08414662629365921
1789033875292440600,8.637440673828126,1.8683298826217651,0.6727148294448853,0.0902552679181099
1789033875302365700,8.64736572265625,1.8280128240585327,0.6385064125061035,0.1207985132932663
1789033875312291000,8.657291015625,1.7693698406219482,0.5542070865631104,0.1366809904575348
1789033875322216200,8.66721630859375,1.6325361728668213,0.38560840487480164,0.10980294644832611
1789033875332141600,8.6771416015625,1.4676026105880737,0.1314886510372162,0.09880737960338593
1789033875342066700,8.687066650390625,1.305112600326538,-0.028557928279042244,0.13912445306777954
1789033875351991800,8.69699169921875,1.1572833061218262,-0.050549060106277466,0.14889828860759735
1789033875361917000,8.7069169921875,0.9666935205459595,-0.046883873641490936,0.09392046183347702
1789033875371842000,8.716842041015624,0.7834340929985046,-0.07254019379615784,0.05604684352874756
1789033875381767400,8.726767333984375,0.6637045741081238,-0.12018764764070511,0.051159925758838654
1789033875391692500,8.736692626953126,0.5635227560997009,-0.20082180202007294,0.0694858655333519
1789033875401618000,8.746617919921874,0.4364628791809082,-0.2680169343948364,0.06337722390890121
1789033875411543000,8.75654296875,0.28985533118247986,-0.39141160249710083,0.031612250953912735
1789033875421468200,8.76646826171875,0.15179990231990814,-0.5404626131057739,-0.019700389355421066
1789033875431393500,8.7763935546875,0.0308486707508564,-0.671187698841095,-0.08811724185943604
1789033875441318700,8.786318603515625,-0.08765909820795059,-0.86544269323349,-0.1614210158586502
1789033875451243800,8.796243896484375,-0.19883649051189423,-0.9326378107070923,-0.22495095431804657
1789033875461169200,8.806169189453126,-0.27947062253952026,-0.7457131743431091,-0.2603811025619507
1789033875471094300,8.81609423828125,-0.3136790692806244,-0.5600103139877319,-0.2493855506181717
1789033875481019400,8.826019287109375,-0.36254823207855225,-0.48670652508735657,-0.233503058552742
1789033875490944800,8.83594482421875,-0.4224129915237427,-0.3462076187133789,-0.22006404399871826
1789033875500870000,8.845869873046874,-0.48472121357917786,-0.0896444097161293,-0.18463388085365295
1789033875510795000,8.855794921875,-0.5250383019447327,0.1302669197320938,-0.12110394239425659
1789033875520720100,8.86572021484375,-0.5299251675605774,0.2536616027355194,-0.08689551800489426
1789033875530645500,8.8756455078125,-0.5421425104141235,0.21456626057624817,-0.12232567369937897
1789033875540570600,8.885570556640625,-0.5861247777938843,0.055741410702466965,-0.17974695563316345
1789033875550495700,8.895495849609375,-0.6398808360099792,-0.09330959618091583,-0.23594652116298676
1789033875560421000,8.905421142578126,-0.6716458201408386,-0.16783510148525238,-0.2848156988620758
1789033875570346200,8.91534619140625,-0.6753110289573669,-0.15073087811470032,-0.3006981909275055
1789033875580271400,8.925271240234375,-0.6753110289573669,-0.1055268943309784,-0.3006981909275055
1789033875590196700,8.93519677734375,-0.7205150127410889,-0.12873975932598114,-0.2860374450683594
1789033875600121900,8.945121826171874,-0.814588189125061,-0.18982623517513275,-0.2750418782234192
1789033875610047000,8.955046875,-0.9440914988517761,-0.22769984602928162,-0.2689332067966461
1789033875619972400,8.964972412109375,-1.0845904350280762,-0.19349141418933868,-0.2603811025619507
1789033875629897500,8.9748974609375,-1.193324327468872,-0.1153007298707962,-0.23472478985786438
1789033875639822600,8.984822509765625,-1.2654063701629639,0.006872228812426329,-0.17486004531383514
1789033875649748000,8.994748046875,-1.2605195045471191,0.13881902396678925,-0.08078686892986298
1789033875659673000,9.004673095703126,-1.193324327468872,0.18524473905563354,-0.011148282326757908
1789033875669598200,9.01459814453125,-1.1346813440322876,0.09605848789215088,-0.027030766010284424
1789033875679523300,9.0245234375,-1.109025001525879,-0.06154462695121765,-0.09911280870437622
1789033875689448700,9.03444873046875,-1.1139118671417236,-0.32299473881721497,-0.16264274716377258
1789033875699373800,9.044373779296874,-1.1310161352157593,-0.42073312401771545,-0.2029598206281662
1789033875709299000,9.054298828125,-1.127350926399231,-0.27290382981300354,-0.233503058552742
1789033875719224300,9.064224365234375,-1.1151336431503296,-0.18005239963531494,-0.3092502951622009
1789033875729149400,9.0741494140625,-1.203098177909851,-0.2655734717845917,-0.3617846667766571
1789033875739074600,9.084074462890625,-1.370475172996521,-0.2838993966579437,-0.34468045830726624
1789033875749000000,9.094,-1.4999784231185913,-0.10919208079576492,-0.2799287736415863
1789033875758925000,9.103925048828126,-1.5512911081314087,0.1925751268863678,-0.21151192486286163
1789033875768850200,9.11385009765625,-1.546404242515564,0.3929387629032135,-0.17363831400871277
1789033875778775300,9.123775390625,-1.5292999744415283,0.4222602844238281,-0.15286891162395477
1789033875788700700,9.13370068359375,-1.518304467201233,0.2597702443599701,-0.13820815086364746
1789033875798625800,9.143625732421874,-1.479209065437317,0.03252854943275452,-0.1406516134738922
1789033875808551000,9.153551025390625,-1.4340050220489502,-0.13729186356067657,-0.1455385386943817
1789033875818476300,9.163476318359375,-1.3936879634857178,-0.22769984602928162,-0.1565341055393219
1789033875828401400,9.1734013671875,-1.4205660820007324,-0.28267768025398254,-0.17363831400871277
1789033875838326500,9.183326416015625,-1.4657700061798096,-0.2838993966579437,-0.15531237423419952
1789033875848252000,9.193251953125,-1.4291181564331055,-0.2594648003578186,-0.09789107739925385
1789033875858177000,9.203177001953126,-1.321605920791626,-0.291229784488678,-0.017256930470466614
1789033875868102100,9.21310205078125,-1.232419729232788,-0.3046688139438629,0.057268574833869934
1789033875878027300,9.22302734375,-1.1505638360977173,-0.23503021895885468,0.057268574833869934
1789033875887952600,9.23295263671875,-1.038164734840393,-0.15073087811470032,0.043829549103975296
1789033875897877800,9.242877685546874,-0.9037744402885437,-0.11896591633558273,0.08414662629365921
1789033875907803000,9.252802978515625,-0.776714563369751,-0.10063996911048889,0.1721111536026001
1789033875917728300,9.262728271484375,-0.6056724190711975,-0.14462223649024963,0.24663665890693665
1789033875927653400,9.2726533203125,-0.4517345130443573,-0.08842267841100693,0.2283107042312622
1789033875937578800,9.282578857421875,-0.30146175622940063,0.06551524996757507,0.1464548259973526
1789033875947503900,9.29250390625,-0.12553271651268005,0.15470150113105774,0.16844595968723297
1789033875957429000,9.302428955078126,0.06872228533029556,0.20723587274551392,0.2503018379211426
1789033875967354000,9.31235400390625,0.231212317943573,0.2793179154396057,0.24052800238132477
1789033875977279200,9.322279296875,0.37171122431755066,0.36483898758888245,0.1415679156780243
1789033875987204600,9.33220458984375,0.49999281764030457,0.4344775676727295,0.021838415414094925
1789033875997129700,9.342129638671874,0.6270527243614197,0.4796815812587738,-0.05757400393486023
1789033876007055000,9.35205517578125,0.7589994668960571,0.5248855352401733,-0.08200860023498535
1789033876016980200,9.361980224609376,0.9007201194763184,0.49312058091163635,-0.08078686892986298
1789033876026905300,9.3719052734375,1.025336503982544,0.4027126133441925,-0.07589995115995407
1789033876036830500,9.38183056640625,1.1426225900650024,0.3404043912887573,-0.08811724185943604
1789033876046755600,9.391755615234375,1.2220350503921509,0.3404043912887573,-0.11866047978401184
1789033876056681000,9.401680908203126,1.2977821826934814,0.3929387629032135,-0.13942988216876984
1789033876066606000,9.411606201171875,1.404072642326355,0.5102248191833496,-0.1467602699995041
1789033876076531500,9.421531494140625,1.5018110275268555,0.6360629796981812,-0.1663079410791397
1789033876086456600,9.43145654296875,1.5885539054870605,0.6641627550125122,-0.16019928455352783
1789033876096381700,9.441381591796874,1.638644814491272,0.6323977708816528,-0.12843431532382965
1789033876106307000,9.45130712890625,1.645975112915039,0.5969675779342651,-0.12110394239425659
1789033876116232200,9.461232177734376,1.6581923961639404,0.5468766689300537,-0.1455385386943817
1789033876126157300,9.4711572265625,1.6594141721725464,0.4894554018974304,-0.16752967238426208
1789033876136082400,9.48108251953125,1.6691880226135254,0.4955640435218811,-0.18952079117298126
1789033876146007800,9.4910078125,1.6814053058624268,0.5273290276527405,-0.2078467458486557
1789033876155933000,9.500932861328126,1.685070514678955,0.5334376692771912,-0.20173808932304382
1789033876165858000,9.510858154296875,1.6936225891113281,0.4943423271179199,-0.18952079117298126
1789033876175783400,9.520783447265625,1.6899573802947998,0.46135562658309937,-0.1821904182434082
1789033876185708500,9.53070849609375,1.6704097986221313,0.4332558512687683,-0.15897755324840546
1789033876195633700,9.540633544921874,1.638644814491272,0.38438665866851807,-0.11743875592947006
1789033876205558800,9.550558837890625,1.5861103534698486,0.3355174660682678,-0.0795651376247406
1789033876215484200,9.560484130859376,1.5934407711029053,0.3367392122745514,-0.039248060435056686
1789033876225409300,9.5704091796875,1.600771188735962,0.3428478538990021,-0.019700389355421066
1789033876235334400,9.58033447265625,1.5347977876663208,0.2548833191394806,-0.03802633285522461
1789033876245259800,9.590259765625,1.4504984617233276,0.19379685819149017,-0.07589995115995407
1789033876255185000,9.600184814453126,1.4004075527191162,0.21945317089557648,-0.07101303339004517
1789033876265110000,9.610110107421875,1.3552035093307495,0.24510949850082397,-0.033139415085315704
1789033876275035100,9.62003515625,1.2452478408813477,0.13881902396678925,-0.0013744457392022014
1789033876284960500,9.62996044921875,1.1499528884887695,0.07651081681251526,0.0206166859716177
1789033876294885600,9.6398857421875,1.074205756187439,0.09850194305181503,0.024281874299049377
1789033876304810800,9.649810791015625,0.9532544612884521,0.03375028073787689,-0.007483093533664942
1789033876314736000,9.659736083984376,0.8420770764350891,-0.04810560122132301,-0.012370011769235134
1789033876324661200,9.6696611328125,0.7712168097496033,-0.14950916171073914,0.018173227086663246
1789033876334586400,9.67958642578125,0.6893609166145325,-0.2655734717845917,0.04505127668380737
1789033876344511500,9.689511474609375,0.5806269645690918,-0.3352120518684387,0.041386090219020844
1789033876354436900,9.699436767578124,0.48044514656066895,-0.35475972294807434,0.037720900028944016
1789033876364362000,9.709362060546875,0.37293294072151184,-0.3462076187133789,0.04505127668380737
1789033876374287000,9.719287109375,0.27519458532333374,-0.35964664816856384,0.051159925758838654
1789033876384212500,9.72921240234375,0.189673513174057,-0.41706791520118713,0.0487164668738842
1789033876394137600,9.7391376953125,0.11881320178508759,-0.5172497630119324,0.037720900028944016
1789033876404062700,9.749062744140625,0.04428769648075104,-0.6504182815551758,0.008399390615522861
1789033876413987800,9.75898779296875,-0.054672397673130035,-0.8275690674781799,-0.06123919412493706
1789033876423913200,9.768913330078124,-0.17195843160152435,-0.8910989761352539,-0.12476912885904312
1789033876433838300,9.77883837890625,-0.2733619809150696,-0.7041743993759155,-0.13332124054431915
1789033876443763500,9.788763427734375,-0.35155269503593445,-0.39996370673179626,-0.1101083755493164
1789033876453688600,9.7986884765625,-0.42363473773002625,-0.10186170041561127,-0.09544762223958969
1789033876463614000,9.808614013671875,-0.48472121357917786,0.0691804364323616,-0.09422589093446732
1789033876473539000,9.8185390625,-0.5433642268180847,0.16081015765666962,-0.10644318908452988
1789033876483464200,9.828464111328126,-0.5751292109489441,0.1974620372056961,-0.13454297184944153
1789033876493389600,9.8383896484375,-0.5787943601608276,0.14492766559123993,-0.18096868693828583
1789033876503314700,9.848314697265625,-0.5812378525733948,-0.04932733252644539,-0.2176205813884735
1789033876513239800,9.85823974609375,-0.5873464941978455,-0.25702136754989624,-0.2188423126935959
1789033876523165000,9.8681650390625,-0.6056724190711975,-0.38530296087265015,-0.2286161482334137
1789033876533090300,9.87809033203125,-0.6325504779815674,-0.3975202441215515,-0.2530507445335388
1789033876543015400,9.888015380859375,-0.6728675365447998,-0.3730856776237488,-0.26648977398872375
1789033876552940500,9.8979404296875,-0.7107411623001099,-0.31444263458251953,-0.2701549530029297
1789033876562866000,9.907865966796875,-0.7425061464309692,-0.22036947309970856,-0.264046311378479
1789033876572791000,9.917791015625,-0.7730493545532227,-0.16539163887500763,-0.2444986253976822
1789033876582716200,9.927716064453126,-0.82436203956604,-0.24602578580379486,-0.22128576040267944
1789033876592641300,9.937641357421874,-0.9098830819129944,-0.3938550651073456,-0.21517711877822876
1789033876602566700,9.947566650390625,-0.989295482635498,-0.503810703754425,-0.24205516278743744
1789033876612491800,9.95749169921875,-1.0772600173950195,-0.5844448804855347,-0.2799287736415863
1789033876622417000,9.9674169921875,-1.1811070442199707,-0.6284271478652954,-0.3116937577724457
1789033876632342000,9.977342041015625,-1.2861758470535278,-0.5526798963546753,-0.34345871210098267
1789033876642267400,9.987267333984375,-1.339931845664978,-0.39507678151130676,-0.3666715919971466
1789033876652192500,9.997192626953124,-1.3240493535995483,-0.19837833940982819,-0.35445427894592285
1789033876662117600,10.00711767578125,-1.2605195045471191,-0.05177079141139984,-0.3104720115661621
1789033876672042800,10.017042724609375,-1.193324327468872,0.0435241162776947,-0.2897026240825653
1789033876681968000,10.026968017578126,-1.176220178604126,-0.022449281066656113,-0.29336780309677124
1789033876691893200,10.036893310546875,-1.214093804359436,-0.18371757864952087,-0.2542724609375
1789033876701818400,10.046818359375,-1.2483022212982178,-0.2692386507987976,-0.22495095431804657
1789033876711743700,10.05674365234375,-1.2922844886779785,-0.25579962134361267,-0.2383899837732315
1789033876721668900,10.0666689453125,-1.3252711296081543,-0.18005239963531494,-0.2591593861579895
1789033876731594000,10.076593994140625,-1.3472622632980347,-0.05299251899123192,-0.2530507445335388
1789033876741519000,10.08651904296875,-1.3839141130447388,0.03741546720266342,-0.23961171507835388
1789033876751444500,10.096444580078124,-1.4584397077560425,-0.040775224566459656,-0.24327689409255981
1789033876761369600,10.10636962890625,-1.5305217504501343,-0.16661337018013,-0.24327689409255981
1789033876771294700,10.116294677734375,-1.5097522735595703,-0.20204351842403412,-0.19074252247810364
1789033876781220000,10.12622021484375,-1.4413354396820068,-0.13362666964530945,-0.11988221108913422
1789033876791145200,10.136145263671875,-1.3826924562454224,-0.03222311660647392,-0.07345648854970932
1789033876801070300,10.1460703125,-1.3765838146209717,0.0019853105768561363,-0.06368265300989151
1789033876810995500,10.155995361328126,-1.4046835899353027,-0.08109229803085327,-0.0746782198548317
1789033876820920800,10.1659208984375,-1.3484840393066406,-0.2741255760192871,-0.07589995115995407
1789033876830846000,10.175845947265625,-1.2629629373550415,-0.48304131627082825,-0.04413498193025589
1789033876840771000,10.18577099609375,-1.173776626586914,-0.5209149122238159,-0.017256930470466614
1789033876850696200,10.1956962890625,-1.0613775253295898,-0.3205513060092926,-0.0038179049734026194
1789033876860621300,10.205621337890625,-0.9660826325416565,-0.06765327602624893,0.021838415414094925
1789033876870546700,10.215546630859375,-0.8659008145332336,0.13271036744117737,0.060933761298656464
1789033876880471800,10.225471923828126,-0.7082977294921875,0.18646647036075592,0.1207985132932663
1789033876890397000,10.23539697265625,-0.5665770769119263,0.1363755613565445,0.19898919761180878
1789033876900322000,10.245322021484375,-0.42363473773002625,0.09239330142736435,0.24174973368644714
1789033876910247400,10.255247314453126,-0.2660316228866577,0.09605848789215088,0.21120649576187134
1789033876920172500,10.265172607421874,-0.11209368705749512,0.141262486577034,0.17455461621284485
1789033876930097700,10.27509765625,0.03329212963581085,0.21212279796600342,0.20387612283229828
1789033876940022800,10.285022705078125,0.18723005056381226,0.2903134822845459,0.22098033130168915
1789033876949948200,10.2949482421875,0.33628106117248535,0.3611738085746765,0.18921536207199097
1789033876959873300,10.304873291015625,0.4938841760158539,0.4027126133441925,0.14889828860759735
1789033876969798400,10.31479833984375,0.6417134404182434,0.356286883354187,0.14889828860759735
1789033876979723500,10.3247236328125,0.7455604672431946,0.2952004075050354,0.1366809904575348
1789033876989649000,10.33464892578125,0.8457422852516174,0.2793179154396057,0.11713331937789917
1789033876999574000,10.344573974609375,0.9752455949783325,0.29275694489479065,0.10369429737329483
1789033877009499100,10.3544990234375,1.1059707403182983,0.3159697949886322,0.08414662629365921
1789033877019424500,10.364424560546874,1.2159262895584106,0.304974228143692,0.0694858655333519
1789033877029349600,10.374349609375,1.2928953170776367,0.30253079533576965,0.04016435891389847
1789033877039274800,10.384274658203125,1.3588687181472778,0.388051837682724,-0.011148282326757908
1789033877049199900,10.394199951171874,1.4578287601470947,0.5041161775588989,-0.02458730712532997
1789033877059125200,10.404125244140625,1.5677844285964966,0.5566505193710327,0.005955931730568409
1789033877069050400,10.41405029296875,1.647196888923645,0.5810851454734802,0.030390523374080658
1789033877078975500,10.4239755859375,1.6630793809890747,0.5676460862159729,0.041386090219020844
1789033877088900600,10.433900634765624,1.6728532314300537,0.5786416530609131,0.041386090219020844
1789033877098826000,10.443825927734375,1.6972877979278564,0.6861538887023926,0.008399390615522861
1789033877108751000,10.453751220703126,1.7217223644256592,0.7973312735557556,-0.0038179049734026194
1789033877118676200,10.46367626953125,1.7266093492507935,0.7863357067108154,0.01695149764418602
1789033877128601300,10.473601318359375,1.6887357234954834,0.5908589363098145,0.060933761298656464
1789033877138526700,10.483526611328125,1.6581923961639404,0.37094762921333313,0.09147699922323227
1789033877148451800,10.493451904296874,1.6606359481811523,0.3110828995704651,0.05482511222362518
1789033877158377000,10.503376953125,1.6581923961639404,0.3868301212787628,0.010842849500477314
1789033877168302000,10.513302001953125,1.6618576049804688,0.560315728187561,-0.0025961752980947495
1789033877178227500,10.5232275390625,1.655748963356018,0.6885973215103149,-0.023365577682852745
1789033877188152600,10.533152587890624,1.6203187704086304,0.5994110703468323,-0.0013744457392022014
1789033877198077700,10.54307763671875,1.561675786972046,0.42959064245224,0.027947064489126205
1789033877208003000,10.553003173828126,1.4749330282211304,0.33429574966430664,0.015729768201708794
1789033877217928200,10.56292822265625,1.432172417640686,0.3428478538990021,0.024281874299049377
1789033877227853300,10.572853271484375,1.4370594024658203,0.4137081801891327,0.024281874299049377
1789033877237778400,10.5827783203125,1.4199551343917847,0.4760163724422455,0.043829549103975296
1789033877247703600,10.59270361328125,1.3674207925796509,0.3929387629032135,0.07681624591350555
1789033877257629000,10.60262890625,1.305112600326538,0.2341139316558838,0.10735948383808136
1789033877267554000,10.612553955078125,1.2073742151260376,0.07284562289714813,0.13179408013820648
1789033877277479200,10.622479248046876,1.0595449209213257,-0.018784092739224434,0.1305723488330841
1789033877287404300,10.632404296875,0.8726203441619873,-0.06154462695121765,0.09880737960338593
1789033877297329700,10.64232958984375,0.7431169748306274,-0.09819651395082474,0.08903354406356812
1789033877307254800,10.6522548828125,0.6490437984466553,-0.18371757864952087,0.09392046183347702
1789033877317180000,10.662179931640624,0.5390881896018982,-0.2790125012397766,0.1000291109085083
1789033877327105000,10.67210498046875,0.37659814953804016,-0.44638943672180176,0.10858121514320374
1789033877337030400,10.682030517578125,0.23365578055381775,-0.5245801210403442,0.1611155867576599
1789033877346955500,10.69195556640625,0.1493564397096634,-0.49281516671180725,0.19532401859760284
1789033877356880600,10.701880615234375,0.09193515032529831,-0.4696022868156433,0.19898919761180878
1789033877366805800,10.7118056640625,0.03940077871084213,-0.505032479763031,0.18921536207199097
1789033877376731100,10.721731201171876,-0.026572618633508682,-0.6174315810203552,0.1672242283821106
1789033877386656300,10.73165625,-0.10720676928758621,-0.7286089658737183,0.1415679156780243
1789033877396581400,10.741581298828125,-0.18784092366695404,-0.8336777091026306,0.10247256606817245
1789033877406506500,10.751506591796876,-0.26358816027641296,-0.9350812435150146,0.04993819445371628
1789033877416431900,10.761431884765624,-0.33689191937446594,-0.9082031846046448,-0.0062613640911877155
1789033877426357000,10.77135693359375,-0.42363473773002625,-0.7225003242492676,-0.05635227635502815
1789033877436282000,10.7812822265625,-0.5262600183486938,-0.4708240330219269,-0.10766492038965225
1789033877446207200,10.791207275390626,-0.6545416116714478,-0.25213444232940674,-0.15775582194328308
1789033877456132600,10.801132568359375,-0.7999274134635925,0.004428769461810589,-0.17608177661895752
1789033877466057700,10.8110576171875,-0.8866702318191528,0.10583232343196869,-0.13454297184944153
1789033877475982800,10.82098291015625,-0.8988875150680542,0.08384118974208832,-0.09911280870437622
1789033877485908000,10.830907958984374,-0.878118097782135,-0.02000582218170166,-0.0844520553946495
1789033877495833000,10.8408330078125,-0.8280271887779236,-0.08842267841100693,-0.042913250625133514
1789033877505758500,10.850758544921876,-0.7706059217453003,-0.19593487679958344,0.002290742937475443
1789033877515683600,10.86068359375,-0.7388409376144409,-0.30222535133361816,0.03405570983886719
1789033877525608700,10.870608642578125,-0.7498365044593811,-0.4610501825809479,0.03649916872382164
1789033877535533800,10.880533935546875,-0.8121446967124939,-0.596662163734436,0.004734201822429895
1789033877545459200,10.890459228515626,-0.9049961566925049,-0.6626355648040771,-0.049021899700164795
1789033877555384300,10.90038427734375,-1.0516036748886108,-0.641866147518158,-0.10155627131462097
1789033877565309400,10.910309326171875,-1.146898627281189,-0.46227192878723145,-0.09666935354471207
1789033877575234600,10.920234619140626,-1.2678498029708862,-0.1922696828842163,-0.12721258401870728
1789033877585160000,10.930159912109374,-1.3570361137390137,-0.08353576064109802,-0.20051635801792145
1789033877595085000,10.9400849609375,-1.3350449800491333,-0.16416990756988525,-0.2237292230129242
1789033877605010200,10.95001025390625,-1.242193579673767,-0.29367324709892273,-0.15531237423419952
1789033877614935300,10.959935302734374,-1.1163554191589355,-0.45249807834625244,-0.06001746281981468
1789033877624860700,10.969860595703125,-0.9514219164848328,-0.5673406720161438,-0.058795735239982605
1789033877634785800,10.979785888671875,-0.8060360550880432,-0.47326749563217163,-0.08933897316455841
1789033877644711000,10.9897109375,-0.8158099055290222,-0.24724751710891724,-0.07834340631961823
1789033877654636000,10.999635986328125,-0.9184352159500122,-0.05543597787618637,-0.1003345400094986
1789033877664561400,11.0095615234375,-0.9416480660438538,0.15470150113105774,-0.13454297184944153
1789033877674486500,11.019486572265626,-0.9001092314720154,0.35017824172973633,-0.20662501454353333
1789033877684411600,11.02941162109375,-0.897665798664093,0.31230461597442627,-0.3520108163356781
1789033877694336800,11.039336669921875,-0.970969557762146,-0.034666575491428375,-0.4228711426258087
1789033877704262000,11.049261962890625,-1.0711513757705688,-0.46227192878723145,-0.35934120416641235
1789033877714187300,11.059187255859374,-1.1114684343338013,-0.578336238861084,-0.21395538747310638
1789033877724112400,11.0691123046875,-1.0882556438446045,-0.2887863218784332,-0.10766492038965225
1789033877734037500,11.07903759765625,-1.0748165845870972,0.20601414144039154,-0.1406516134738922
1789033877743962600,11.088962646484376,-1.2336413860321045,0.595745861530304,-0.23961171507835388
1789033877753888000,11.098887939453125,-1.4010183811187744,0.7496837973594666,-0.295811265707016
1789033877763813000,11.108813232421875,-1.4914263486862183,0.6116283535957336,-0.25549420714378357
1789033877773738200,11.11873828125,-1.4596613645553589,0.37949973344802856,-0.17119485139846802
1789033877783663400,11.128663330078124,-1.3729186058044434,0.07651081681251526,-0.11621702462434769
1789033877793588700,11.138588623046875,-1.2715150117874146,-0.13973531126976013,-0.09056070446968079
1789033877803513900,11.148513916015625,-1.148120403289795,-0.22769984602928162,-0.03802633285522461
1789033877813439000,11.15843896484375,-1.0344995260238647,-0.2484692484140396,0.01695149764418602
1789033877823364000,11.168364013671875,-0.9392045736312866,-0.21059563755989075,0.057268574833869934
1789033877833289500,11.17828955078125,-0.8463531732559204,-0.13484840095043182,0.10369429737329483
1789033877843214600,11.188214599609376,-0.7302888631820679,0.009315688163042068,0.18921536207199097
1789033877853139700,11.1981396484375,-0.6056724190711975,0.18890993297100067,0.2380845546722412
1789033877863064800,11.20806494140625,-0.49571678042411804,0.32452189922332764,0.2124282270669937
1789033877872990000,11.217989990234376,-0.3601047992706299,0.3257436454296112,0.2075413018465042
1789033877882915000,11.2279150390625,-0.19883649051189423,0.22067490220069885,0.2136499583721161
1789033877892840400,11.23784033203125,-0.0412333719432354,0.12293653935194016,0.17088942229747772
1789033877902765600,11.247765625,0.1029307171702385,0.08750637620687485,0.12935061752796173
1789033877912690700,11.257690673828124,0.24709481000900269,0.07528908550739288,0.13790272176265717
1789033877922615800,11.26761572265625,0.3802633285522461,0.10216713696718216,0.17455461621284485
1789033877932541200,11.277541259765625,0.5219839811325073,0.16325360536575317,0.2124282270669937
1789033877942466300,11.28746630859375,0.6612611413002014,0.20479241013526917,0.22953243553638458
1789033877952391400,11.297391357421875,0.7736602425575256,0.20723587274551392,0.20509785413742065
1789033877962316500,11.307316650390625,0.8628464937210083,0.18524473905563354,0.18066325783729553
1789033877972241700,11.31724169921875,0.9654718041419983,0.20967933535575867,0.16600249707698822
1789033877982167000,11.3271669921875,1.072983980178833,0.2854265570640564,0.14034618437290192
1789033877992092200,11.337092041015625,1.1841614246368408,0.3721693754196167,0.14523309469223022
1789033878002017300,11.347017333984375,1.2843432426452637,0.4650208055973053,0.16355904936790466
1789033878011942400,11.3569423828125,1.3478730916976929,0.4955640435218811,0.15745039284229279
1789033878021867800,11.36686767578125,1.375972867012024,0.3929387629032135,0.14889828860759735
1789033878031793000,11.37679296875,1.4016292095184326,0.3355174660682678,0.11835505068302155
1789033878041718000,11.386718017578126,1.45294189453125,0.38438665866851807,0.08170316368341446
1789033878051643100,11.39664306640625,1.5030328035354614,0.4796815812587738,0.06826414167881012
1789033878061568300,11.406568359375,1.5250239372253418,0.5199986696243286,0.051159925758838654
1789033878071493600,11.41649365234375,1.5470150709152222,0.5114465355873108,0.025503603741526604
1789033878081418800,11.426418701171874,1.570227861404419,0.439364492893219,0.031612250953912735
1789033878091344000,11.43634375,1.6215405464172363,0.40149086713790894,0.064598947763443
1789033878101269000,11.44626904296875,1.6508620977401733,0.48823368549346924,0.07559451460838318
1789033878111194400,11.4561943359375,1.6520837545394897,0.6360629796981812,0.07681624591350555
1789033878121119500,11.466119384765625,1.637423038482666,0.6849321126937866,0.043829549103975296
1789033878131044600,11.476044677734375,1.5922189950942993,0.653167188167572,0.0010690133785828948
1789033878140969700,11.4859697265625,1.5433498620986938,0.643393337726593,-0.06734783947467804
1789033878150894800,11.495894775390624,1.5066980123519897,0.6824886798858643,-0.13332124054431915
1789033878160820000,11.505820068359375,1.4785982370376587,0.6751583218574524,-0.14798198640346527
1789033878170745000,11.5157451171875,1.4676026105880737,0.6385064125061035,-0.09911280870437622
1789033878180670500,11.52567041015625,1.4456114768981934,0.6604975461959839,-0.06123919412493706
1789033878190595600,11.535595703125,1.4407246112823486,0.7435751557350159,-0.042913250625133514
1789033878200520700,11.545520751953125,1.432172417640686,0.7313578724861145,-0.07345648854970932
1789033878210445800,11.55544580078125,1.3661991357803345,0.5358811020851135,-0.08933897316455841
1789033878220371000,11.565370849609375,1.2721259593963623,0.3782780170440674,-0.1003345400094986
1789033878230296000,11.575296142578125,1.1743875741958618,0.37094762921333313,-0.11621702462434769
1789033878240221200,11.58522119140625,1.1365139484405518,0.4247037470340729,-0.08078686892986298
1789033878250146600,11.595146484375,1.1169662475585938,0.3623955249786377,-0.042913250625133514
1789033878260071700,11.60507177734375,1.0473276376724243,0.16325360536575317,-0.05146535858511925
1789033878269996800,11.614996826171875,0.9056070446968079,-0.03955349326133728,-0.08811724185943604
1789033878279922000,11.624921875,0.7235693335533142,-0.10797034949064255,-0.09300415962934494
1789033878289847000,11.634846923828125,0.6148353815078735,-0.08720094710588455,-0.042913250625133514
1789033878299772200,11.644772216796875,0.5720748901367188,-0.10186170041561127,-0.008704823441803455
1789033878309697300,11.654697265625,0.5048797130584717,-0.249690979719162,-0.011148282326757908
1789033878319622700,11.66462255859375,0.3998109996318817,-0.443945974111557,-0.029474224895238876
1789033878329547800,11.6745478515625,0.28496840596199036,-0.46715885400772095,-0.02458730712532997
1789033878339473000,11.684472900390626,0.1957821547985077,-0.41584619879722595,0.01206457894295454
1789033878349398000,11.69439794921875,0.09071341902017593,-0.5221366882324219,0.0206166859716177
1789033878359323400,11.704323486328125,-0.04367683082818985,-0.7188351154327393,-0.023365577682852745
1789033878369248500,11.71424853515625,-0.17806708812713623,-0.8666644096374512,-0.09911280870437622
1789033878379173600,11.724173583984374,-0.28557929396629333,-0.8324559926986694,-0.16875138878822327
1789033878389099000,11.73409912109375,-0.3491092324256897,-0.7408262491226196,-0.212733656167984
1789033878399024000,11.744024169921875,-0.3857611119747162,-0.6296488642692566,-0.2237292230129242
1789033878408949200,11.75394921875,-0.4370737373828888,-0.5758927464485168,-0.22006404399871826
1789033878418874600,11.76387451171875,-0.517707884311676,-0.5306887626647949,-0.21517711877822876
1789033878428799700,11.7737998046875,-0.6239983439445496,-0.49770209193229675,-0.1724165827035904
1789033878438724900,11.783724853515626,-0.7351757884025574,-0.3828594982624054,-0.07223475724458694
1789033878448650000,11.79364990234375,-0.7999274134635925,-0.2741255760192871,0.005955931730568409
1789033878458575400,11.803575439453125,-0.8268054723739624,-0.2741255760192871,-0.0025961752980947495
1789033878468500500,11.81350048828125,-0.8304706811904907,-0.2692386507987976,-0.03436114266514778
1789033878478425600,11.823425537109374,-0.8341358304023743,-0.24480405449867249,-0.042913250625133514
1789033878488350700,11.833350830078125,-0.8451313972473145,-0.2435823380947113,-0.03191768378019333
1789033878498275800,11.84327587890625,-0.8634573817253113,-0.33276858925819397,-0.030695954337716103
1789033878508201000,11.853200927734376,-0.879339873790741,-0.40607234835624695,-0.03802633285522461
1789033878518126000,11.8631259765625,-0.9037744402885437,-0.4915934205055237,-0.06734783947467804
1789033878528051500,11.873051513671875,-0.9636391997337341,-0.6027708053588867,-0.11743875592947006
1789033878537976600,11.8829765625,-1.0454950332641602,-0.6308705806732178,-0.15775582194328308
1789033878547901700,11.892901611328124,-1.127350926399231,-0.6540834903717041,-0.18829907476902008
1789033878557826800,11.902826904296875,-1.1908808946609497,-0.6137663722038269,-0.20173808932304382
1789033878567752000,11.912751953125,-1.2067633867263794,-0.5184714794158936,-0.2029598206281662
1789033878577677000,11.922677001953126,-1.1261292695999146,-0.40973755717277527,-0.17974695563316345
1789033878587602200,11.932602294921875,-1.0259474515914917,-0.32910341024398804,-0.13942988216876984
1789033878597527600,11.942527587890625,-0.9257655739784241,-0.27168211340904236,-0.11377356201410294
1789033878607452700,11.95245263671875,-0.8744529485702515,-0.228921577334404,-0.13698641955852509
1789033878617377800,11.962377685546874,-0.8341358304023743,-0.19471314549446106,-0.1614210158586502
1789033878627303000,11.972302978515625,-0.7999274134635925,-0.22769984602928162,-0.15042544901371002
1789033878637228000,11.98222802734375,-0.804814338684082,-0.21914774179458618,-0.11499529331922531
1789033878647153200,11.992153076171874,-0.8561269640922546,-0.17516547441482544,-0.1455385386943817
1789033878657078300,12.002078369140625,-0.9440914988517761,-0.23991714417934418,-0.2689332067966461
1789033878667003600,12.012003662109375,-1.0858120918273926,-0.38652467727661133,-0.35811948776245117
1789033878676928800,12.0219287109375,-1.2250893115997314,-0.4072940945625305,-0.33857181668281555
1789033878686854000,12.03185400390625,-1.3350449800491333,-0.19349141418933868,-0.29825472831726074
1789033878696779000,12.041779052734375,-1.426674723625183,0.15470150113105774,-0.26648977398872375
1789033878706704100,12.0517041015625,-1.4840959310531616,0.5090031027793884,-0.22739441692829132
1789033878716629200,12.061629150390624,-1.4865394830703735,0.6482802629470825,-0.16875138878822327
1789033878726554400,12.071554443359375,-1.4450006484985352,0.5102248191833496,-0.08323032408952713
1789033878736479700,12.081479736328125,-1.4181225299835205,0.18402300775051117,-0.03436114266514778
1789033878746404900,12.09140478515625,-1.4205660820007324,-0.12751802802085876,-0.033139415085315704
1789033878756330000,12.101330078125,-1.3949097394943237,-0.25579962134361267,-0.04169152304530144
1789033878766255400,12.11125537109375,-1.322827696800232,-0.21059563755989075,-0.04535670951008797
1789033878776180500,12.121180419921876,-1.222645878791809,-0.08597921580076218,0.003512472379952669
1789033878786105600,12.131105712890625,-1.107803225517273,0.008093958720564842,0.08170316368341446
1789033878796031000,12.141031005859375,-0.9966259002685547,0.09850194305181503,0.14278964698314667
1789033878805956000,12.1509560546875,-0.9013310074806213,0.20357069373130798,0.19410228729248047
1789033878815881200,12.160881103515624,-0.8084795475006104,0.2695440948009491,0.27840161323547363
1789033878825806600,12.170806640625,-0.6960803866386414,0.28176137804985046,0.3675878942012787
1789033878835731700,12.180731689453125,-0.5580250024795532,0.24144430458545685,0.4079049527645111
1789033878845656800,12.19065673828125,-0.40897396206855774,0.1571449637413025,0.45310893654823303
1789033878855582000,12.20058203125,-0.2929096519947052,0.07162389904260635,0.46776971220970154
1789033878865507000,12.210507080078125,-0.18417572975158691,0.008093958720564842,0.4189005196094513
1789033878875432400,12.220432373046876,-0.0461202897131443,0.005650499369949102,0.39080074429512024
1789033878885357600,12.230357666015625,0.10659590363502502,0.04108065739274025,0.38102689385414124
1789033878895282700,12.24028271484375,0.2507599890232086,0.08750637620687485,0.33948808908462524
1789033878905207800,12.250207763671876,0.3790415823459625,0.11927134543657303,0.2796233594417572
1789033878915133000,12.2601328125,0.5256491303443909,0.2328922003507614,0.22220206260681152
1789033878925058000,12.27005810546875,0.674700140953064,0.3721693754196167,0.18066325783729553
1789033878934983200,12.279983154296875,0.7919861674308777,0.38438665866851807,0.15378521382808685
1789033878944908500,12.289908447265624,0.878728985786438,0.304974228143692,0.1256854236125946
1789033878954833700,12.299833740234375,0.9679152369499207,0.25610506534576416,0.11102467030286789
1789033878964758800,12.3097587890625,1.0864230394363403,0.28176137804985046,0.10980294644832611
1789033878974684000,12.319683837890626,1.1951569318771362,0.35873034596443176,0.10858121514320374
1789033878984609000,12.329609130859374,1.2733476161956787,0.4430296719074249,0.07681624591350555
1789033878994534100,12.3395341796875,1.3478730916976929,0.48823368549346924,0.025503603741526604
1789033879004459300,12.349459228515625,1.4028509855270386,0.4442514181137085,-0.0062613640911877155
1789033879014384600,12.359384521484374,1.479819893836975,0.4039343297481537,-0.03558287397027016
1789033879024309800,12.369309814453125,1.5567889213562012,0.4503600597381592,-0.06001746281981468
1789033879034235000,12.37923486328125,1.609323263168335,0.5652026534080505,-0.06490438431501389
1789033879044160000,12.389159912109376,1.6581923961639404,0.7008146047592163,-0.04169152304530144
1789033879054085000,12.399085205078125,1.6911791563034058,0.7594576478004456,-0.017256930470466614
1789033879064010200,12.40901025390625,1.675296664237976,0.6947059631347656,-0.012370011769235134
