time,seconds_elapsed,z,y,x
1789033866734553900,0.079553955078125,0.20708316564559937,-0.3090975880622864,0.4159989058971405
1789033866744479200,0.089479248046875,0.13988803327083588,-0.45387253165245056,0.39400777220726013
1789033866754404400,0.099404296875,0.0720820426940918,-0.5229002237319946,0.3860665261745453
1789033866764329700,0.109329833984375,0.0030543238390237093,-0.5057960152626038,0.3946186602115631
1789033866774254800,0.1192548828125,-0.07269290834665298,-0.3854556679725647,0.39339691400527954
1789033866784180200,0.12918017578125,-0.15271618962287903,-0.2724456787109375,0.38789913058280945
1789033866794105300,0.139105224609375,-0.18814635276794434,-0.21197007596492767,0.38850998878479004
1789033866804030700,0.14903076171875,-0.17043127119541168,-0.19181154668331146,0.39889469742774963
1789033866813955800,0.158955810546875,-0.1692095398902893,-0.20952661335468292,0.4269944727420807
1789033866823881200,0.168881103515625,-0.20402882993221283,-0.2522871494293213,0.4740310609340668
1789033866833806300,0.178806396484375,-0.26022839546203613,-0.27000224590301514,0.5320632457733154
1789033866843731700,0.188731689453125,-0.3017672002315521,-0.24006985127925873,0.5717694163322449
1789033866853656800,0.19865673828125,-0.31031930446624756,-0.15760311484336853,0.5632173418998718
1789033866863582000,0.20858203125,-0.2877173125743866,-0.021380268037319183,0.5076286196708679
1789033866873507300,0.21850732421875,-0.2461785078048706,0.1441640853881836,0.4221075773239136
1789033866883432700,0.2284326171875,-0.21930044889450073,0.22296564280986786,0.33719736337661743
1789033866893357800,0.23835791015625,-0.22968515753746033,0.21991132199764252,0.29443681240081787
1789033866903283000,0.248282958984375,-0.2565632164478302,0.18325942754745483,0.33047783374786377
1789033866913208300,0.258208251953125,-0.2993237376213074,0.14172062277793884,0.4563159942626953
1789033866923133400,0.268133544921875,-0.3555232882499695,0.10934479534626007,0.6505709886550903
1789033866933058800,0.278058837890625,-0.379347026348114,0.09040798991918564,0.8362739086151123
1789033866942984000,0.28798388671875,-0.4453204274177551,0.16310089826583862,0.9645555019378662
1789033866952909300,0.297909423828125,-0.5711585879325867,0.36712974309921265,0.9944878816604614
1789033866962834400,0.30783447265625,-0.6750055551528931,0.4776962697505951,0.9388991594314575
1789033866972759800,0.317759765625,-0.6933315396308899,0.6517927050590515,0.8521563410758972
1789033866982685000,0.327684814453125,-0.6004800796508789,0.7055488228797913,0.7709113359451294
1789033866992610300,0.3376103515625,-0.4575377106666565,0.656679630279541,0.7238747477531433
1789033867002535400,0.347535400390625,-0.3042106628417969,0.5290089249610901,0.6994401812553406
1789033867012460800,0.357460693359375,-0.18814635276794434,0.4013381600379944,0.667064368724823
1789033867022386000,0.367385986328125,-0.14721840620040894,0.26450446248054504,0.6035344004631042
1789033867032311000,0.37731103515625,-0.1740964651107788,0.13194678723812103,0.5106829404830933
1789033867042236400,0.387236328125,-0.23945899307727814,-0.006108647678047419,0.3909534513950348
1789033867052161500,0.39716162109375,-0.3170388340950012,-0.11056652665138245,0.24862197041511536
1789033867062087000,0.4070869140625,-0.38789913058280945,-0.17287473380565643,0.1026252806186676
1789033867072012000,0.417011962890625,-0.4355465769767761,-0.17653992772102356,-0.02932151034474373
1789033867081937400,0.4269375,-0.4685332775115967,-0.10079269111156464,-0.13011419773101807
1789033867091862500,0.436862548828125,-0.48502662777900696,-0.03176496922969818,-0.17898337543010712
1789033867101788000,0.446787841796875,-0.4825831651687622,-0.03298669680953026,-0.20158538222312927
1789033867111713000,0.456713134765625,-0.4563159942626953,-0.11606431007385254,-0.2626718580722809
1789033867121638400,0.466638427734375,-0.42821621894836426,-0.22357651591300964,-0.32681265473365784
1789033867131563500,0.4765634765625,-0.38850998878479004,-0.3023780584335327,-0.3964512348175049
1789033867141489000,0.486489013671875,-0.3280344009399414,-0.29626941680908203,-0.4569268524646759
1789033867151414000,0.4964140625,-0.2406807243824005,-0.2205221801996231,-0.4819723069667816
1789033867161339100,0.506339111328125,-0.14721840620040894,-0.13072505593299866,-0.4373791813850403
1789033867171264500,0.516264404296875,-0.12400554865598679,-0.10629047453403473,-0.29993459582328796
1789033867181190000,0.52618994140625,-0.18875721096992493,0.08124501258134842,-0.08429934084415436
1789033867191115000,0.536114990234375,-0.29077163338661194,0.526565432548523,0.143553227186203
1789033867201040100,0.5460400390625,-0.4257727563381195,0.998153030872345,0.3292561173439026
1789033867210965500,0.555965576171875,-0.5693259835243225,1.4123194217681885,0.42088583111763
1789033867220890600,0.565890625,-0.6933315396308899,1.6975932121276855,0.4324922561645508
1789033867230816000,0.57581591796875,-0.8466585874557495,1.2070688009262085,0.4404335021972656
1789033867240741000,0.5857412109375,-1.0201442241668701,0.3811796307563782,0.48991355299949646
1789033867250666500,0.59566650390625,-1.1117738485336304,0.1588248461484909,0.5106829404830933
1789033867260591600,0.605591552734375,-1.3915499448776245,0.08796452730894089,0.5057960152626038
1789033867270516700,0.615516845703125,-1.61085045337677,0.22479823231697083,0.33169957995414734
1789033867280442000,0.625442138671875,-1.609628677368164,0.767857015132904,0.03543015569448471
1789033867290367500,0.635367431640625,-1.6957606077194214,1.9859213829040527,-0.08307760953903198
1789033867300292600,0.645292724609375,-1.9120067358016968,3.475820541381836,0.021991131827235222
1789033867310217700,0.6552177734375,-1.8924590349197388,1.7812817096710205,-1.063515543937683
1789033867320143000,0.66514306640625,-1.1985167264938354,-0.06475166976451874,-1.8264856338500977
1789033867330068200,0.675068115234375,-0.5412262082099915,0.6371319890022278,-1.3322961330413818
1789033867339993600,0.68499365234375,-0.1698204129934311,0.09712749719619751,-0.841160774230957
1789033867349918700,0.694918701171875,-0.2156352698802948,-0.31581708788871765,-0.4159989058971405
1789033867359844000,0.704843994140625,-0.3555232882499695,-0.6921098232269287,-0.08491020649671555
1789033867369769200,0.714769287109375,-0.41294458508491516,-0.9621120095252991,0.12278381735086441
1789033867379694300,0.7246943359375,-0.37629270553588867,-1.4929535388946533,0.2864955961704254
1789033867389619700,0.73461962890625,-0.17898337543010712,-2.120311737060547,0.5821541547775269
1789033867399545000,0.744545166015625,0.11545344442129135,-2.360992431640625,0.9517273306846619
1789033867409470200,0.75447021484375,0.21991132199764252,-2.142913579940796,1.1527018547058105
1789033867419395300,0.764395263671875,0.08796452730894089,-1.6022982597351074,1.1056652069091797
1789033867429320700,0.77432080078125,-0.03298669680953026,-0.9065233469009399,0.6963858604431152
1789033867439245800,0.784245849609375,-0.17776164412498474,0.2938259541988373,-0.06963858753442764
1789033867449171200,0.794171142578125,-0.08979712426662445,0.5619956254959106,-0.31520622968673706
1789033867459096300,0.804096435546875,-0.0360410213470459,0.8655954003334045,-0.6090322136878967
1789033867469021700,0.814021728515625,0.021380268037319183,1.084285020828247,-0.6829468011856079
1789033867478946800,0.82394677734375,0.001832594396546483,1.26021409034729,-0.9315688014030457
1789033867488872200,0.8338720703125,-0.08307760953903198,1.6530001163482666,-1.276707410812378
1789033867498797300,0.84379736328125,-0.03543015569448471,2.129474639892578,-1.4862339496612549
1789033867508722700,0.85372265625,0.12156209349632263,2.263253927230835,-1.4624103307724
1789033867518647800,0.863647705078125,0.3640754222869873,2.0237951278686523,-1.22234046459198
1789033867528573000,0.873572998046875,0.48013970255851746,1.6627739667892456,-0.7990111112594604
1789033867538498300,0.883498291015625,0.5045742988586426,1.1502584218978882,-0.3347539007663727
1789033867548423400,0.89342333984375,0.545502245426178,0.4984656572341919,0.04459312930703163
1789033867558348800,0.903348876953125,0.6432406306266785,-0.19425499439239502,0.24373504519462585
1789033867568274000,0.91327392578125,0.768467903137207,-0.7703005075454712,0.2877173125743866
1789033867578199000,0.923198974609375,0.8680388331413269,-1.1985167264938354,0.2724456787109375
1789033867588124400,0.93312451171875,0.8851430416107178,-1.4624103307724,0.2559523284435272
1789033867598049800,0.9430498046875,0.8203914165496826,-1.5314379930496216,0.2309068888425827
1789033867607975000,0.952974853515625,0.6982184648513794,-1.4617993831634521,0.13561198115348816
1789033867617900300,0.962900390625,0.5516108870506287,-1.2101231813430786,-0.036651886999607086
1789033867627825400,0.972825439453125,0.4477638900279999,-1.0219768285751343,-0.2052505612373352
1789033867637750500,0.98275048828125,0.40866854786872864,-0.6023126840591431,-0.36712974309921265
1789033867647676000,0.992676025390625,0.4221075773239136,-0.3451386094093323,-0.5277871489524841
1789033867657601000,1.00260107421875,0.535728394985199,-0.4526508152484894,-0.5797106623649597
1789033867667526400,1.0125263671875,0.6236929297447205,-0.5076286196708679,-0.5473348498344421
1789033867677451500,1.022451416015625,0.6181951761245728,-0.5351175665855408,-0.379347026348114
1789033867687376600,1.032376708984375,0.5180133581161499,-0.5516108870506287,-0.13744457066059113
1789033867697302000,1.042302001953125,0.38301220536231995,-0.7391464114189148,0.06902772188186646
1789033867707227400,1.052227294921875,0.26450446248054504,-0.9407317638397217,0.21258094906806946
1789033867717152500,1.062152587890625,0.16798780858516693,-1.137430191040039,0.23518294095993042
1789033867727077600,1.07207763671875,0.11911863088607788,-1.3041963577270508,0.1331685185432434
1789033867737003000,1.0820029296875,0.1496618688106537,-1.3671153783798218,-0.04459312930703163
1789033867746928000,1.09192822265625,0.2254091054201126,-1.2980875968933105,-0.26511532068252563
1789033867756853500,1.101853515625,0.2932150959968567,-1.1997383832931519,-0.5222893953323364
1789033867766778600,1.111778564453125,0.35613417625427246,-1.084285020828247,-0.7599157691001892
1789033867776704000,1.1217041015625,0.41783151030540466,-0.8521563410758972,-0.9199623465538025
1789033867786629000,1.131629150390625,0.4269944727420807,-0.554665207862854,-0.9743293523788452
1789033867796554200,1.14155419921875,0.37262752652168274,-0.35063639283180237,-0.9468404054641724
1789033867806479600,1.151479736328125,0.26022839546203613,-0.19608759880065918,-0.8148936033248901
1789033867816405000,1.161405029296875,0.0769689604640007,-0.12034036219120026,-0.62857985496521
1789033867826330000,1.171330078125,-0.10140355676412582,-0.13011419773101807,-0.43004879355430603
1789033867836255200,1.181255126953125,-0.23457208275794983,-0.17043127119541168,-0.2620609998703003
1789033867846180600,1.1911806640625,-0.34208428859710693,-0.18264856934547424,-0.14049890637397766
1789033867856105700,1.201105712890625,-0.40866854786872864,-0.17837251722812653,-0.036651886999607086
1789033867866031000,1.211031005859375,-0.41355544328689575,-0.16187916696071625,0.043982263654470444
1789033867875956200,1.220956298828125,-0.3915643095970154,-0.1490510106086731,0.10384701192378998
1789033867885881300,1.23088134765625,-0.3707949221134186,-0.23396120965480804,0.16187916696071625
1789033867895806700,1.240806640625,-0.33169957995414734,-0.3329212963581085,0.24862197041511536
1789033867905731800,1.25073193359375,-0.3402516841888428,-0.3396408259868622,0.3439168632030487
1789033867915657200,1.2606572265625,-0.401949018239975,-0.3439168632030487,0.3915643095970154
1789033867925582300,1.270582275390625,-0.43982264399528503,-0.3836230933666229,0.389120876789093
1789033867935507700,1.2805078125,-0.44959646463394165,-0.3494146466255188,0.3329212963581085
1789033867945432800,1.290432861328125,-0.4557051360607147,-0.2669478952884674,0.2657261788845062
1789033867955358200,1.300358154296875,-0.4679224193096161,-0.18264856934547424,0.2626718580722809
1789033867965283300,1.310283447265625,-0.5119046568870544,-0.11423171311616898,0.3090975880622864
1789033867975208700,1.320208740234375,-0.5473348498344421,-0.07330377399921417,0.37262752652168274
1789033867985133800,1.3301337890625,-0.5283980369567871,-0.010995565913617611,0.43004879355430603
1789033867995059000,1.340058837890625,-0.4465421438217163,0.033597562462091446,0.5308414697647095
1789033868004984300,1.349984375,-0.37323838472366333,0.026878049597144127,0.6823359727859497
1789033868014909400,1.359909423828125,-0.34086254239082336,-0.010384701192378998,0.8222240209579468
1789033868024834800,1.369834716796875,-0.3072649836540222,-0.0818558782339096,0.8765909671783447
1789033868034760000,1.379760009765625,-0.29443681240081787,-0.19730933010578156,0.8258891701698303
1789033868044685300,1.389685302734375,-0.2987128794193268,-0.2981020212173462,0.7037162184715271
1789033868054610400,1.3996103515625,-0.31031930446624756,-0.34147340059280396,0.5583304166793823
1789033868064535800,1.409535888671875,-0.3347539007663727,-0.3787361681461334,0.4459312856197357
1789033868074461000,1.4194609375,-0.3433060050010681,-0.44470956921577454,0.3634645342826843
1789033868084386000,1.429385986328125,-0.32192572951316833,-0.5723803043365479,0.2767217457294464
1789033868094311400,1.4393115234375,-0.27855435013771057,-0.7672461867332458,0.19669845700263977
1789033868104236500,1.449236572265625,-0.23396120965480804,-1.0262528657913208,0.15027274191379547
1789033868114162000,1.459161865234375,-0.17104214429855347,-1.33290696144104,0.13988803327083588
1789033868124087000,1.469087158203125,-0.040317077189683914,-1.6591087579727173,0.14294235408306122
1789033868134012200,1.47901220703125,0.1233946830034256,-1.9718714952468872,0.17165300250053406
1789033868143937500,1.4889375,0.3298669755458832,-2.2901320457458496,0.24312418699264526
1789033868153863000,1.49886279296875,0.66645348072052,-2.64382266998291,0.34147340059280396
1789033868163788000,1.5087880859375,0.9865466356277466,-3.028667688369751,0.42088583111763
1789033868173713200,1.518713134765625,1.1753038167953491,-3.3988516330718994,0.43004879355430603
1789033868183638500,1.528638427734375,1.4074324369430542,-3.8380634784698486,0.4630354940891266
1789033868193563600,1.538563720703125,1.7550145387649536,-4.366461277008057,0.6395754218101501
1789033868203489000,1.548489013671875,1.8283182382583618,-4.657233238220215,0.6646208763122559
1789033868213414100,1.5584140625,1.4929535388946533,-4.866759777069092,0.5241219997406006
1789033868223339500,1.568339599609375,1.0525200366973877,-5.034136772155762,0.40378162264823914
1789033868233264600,1.5782646484375,1.0555742979049683,-5.156309604644775,0.43310311436653137
1789033868243189800,1.588189697265625,1.3836086988449097,-5.399433612823486,0.5015199780464172
1789033868253115100,1.598115234375,1.6884303092956543,-5.738463878631592,0.5338957905769348
1789033868263040500,1.60804052734375,1.8222095966339111,-6.060389518737793,0.5479456782341003
1789033868272965600,1.617965576171875,2.084270715713501,-6.089099884033203,0.5479456782341003
1789033868282890800,1.627890869140625,2.3842053413391113,-5.6761555671691895,0.39400777220726013
1789033868292816100,1.637816162109375,2.6761984825134277,-5.177079200744629,0.10934479534626007
1789033868302741200,1.6477412109375,2.97552227973938,-4.97488260269165,-0.1545487940311432
1789033868312666600,1.65766650390625,3.2766785621643066,-5.166083335876465,-0.3274235129356384
1789033868322591700,1.667591796875,3.5607306957244873,-5.473959445953369,-0.3237583339214325
1789033868332516900,1.677516845703125,3.7757551670074463,-5.704255104064941,-0.17104214429855347
1789033868342442200,1.687442138671875,4.0109381675720215,-5.788554668426514,0.03543015569448471
1789033868352367400,1.697367431640625,4.232071399688721,-5.649277687072754,0.2156352698802948
1789033868362292700,1.707292724609375,4.345692157745361,-5.104386329650879,0.3610210716724396
1789033868372217900,1.7172177734375,4.40922212600708,-4.120893955230713,0.328645259141922
1789033868382143200,1.727143310546875,4.3799004554748535,-3.017672061920166,0.11423171311616898
1789033868392068400,1.737068359375,4.331031322479248,-1.9871431589126587,-0.27366742491722107
1789033868401993700,1.74699365234375,4.1954193115234375,-1.0879502296447754,-0.8051197528839111
1789033868411918800,1.7569189453125,4.027431488037109,-0.5589412450790405,-1.377500057220459
1789033868421844000,1.766843994140625,3.810574531555176,-0.46547895669937134,-1.7733404636383057
1789033868431769300,1.776769287109375,3.5668394565582275,-0.48563748598098755,-1.8814635276794434
1789033868441694500,1.786694580078125,3.277900457382202,-0.544891357421875,-1.5137228965759277
1789033868451619800,1.796619873046875,2.9016077518463135,-0.6536253094673157,-0.8093958497047424
1789033868461545000,1.806544921875,2.41963529586792,-0.430659681558609,-0.06719512492418289
1789033868471470300,1.81647021484375,1.9590433835983276,-0.7318159937858582,0.6921098232269287
1789033868481395500,1.8263955078125,1.5949679613113403,-0.952949047088623,1.0696241855621338
1789033868491320800,1.83632080078125,1.3652827739715576,-1.191797137260437,1.1081087589263916
1789033868501246000,1.846245849609375,1.0286962985992432,-1.2431098222732544,1.1380411386489868
1789033868511171000,1.856171142578125,0.9169080257415771,-1.1398736238479614,1.1838558912277222
1789033868521096400,1.866096435546875,0.8533781170845032,-0.3237583339214325,1.0952805280685425
1789033868531021600,1.876021484375,0.6230821013450623,-0.21685700118541718,1.0775654315948486
1789033868540947000,1.885947021484375,0.4508182108402252,-0.3750709891319275,1.0971131324768066
1789033868550872000,1.8958720703125,0.29504770040512085,-0.6780598759651184,1.232114315032959
1789033868560797400,1.90579736328125,0.21258094906806946,-1.5100576877593994,1.258992314338684
1789033868570722600,1.91572265625,0.1533270627260208,-1.7177517414093018,1.1319323778152466
1789033868580647700,1.925647705078125,0.030543239787220955,-1.3402373790740967,1.0488548278808594
1789033868590573000,1.935572998046875,0.023823726922273636,-0.9786053895950317,0.7672461867332458
1789033868600498400,1.94549853515625,0.14233149588108063,-0.6169734001159668,-0.14294235408306122
1789033868610423600,1.955423583984375,0.07452550530433655,-0.5729911923408508,-0.3530798554420471
1789033868620348700,1.9653486328125,-0.0030543238390237093,0.21991132199764252,0.472198486328125
1789033868630274000,1.975274169921875,-0.17104214429855347,-0.028099779039621353,0.401949018239975
1789033868640199200,1.98519921875,-0.33597561717033386,-0.6542361974716187,-0.23335035145282745
1789033868650124500,1.99512451171875,-0.3139844834804535,-0.3390299379825592,0.6395754218101501
1789033868660049700,2.005049560546875,-0.25534147024154663,-1.0769546031951904,1.0793980360031128
1789033868669974800,2.014974853515625,-0.7531962990760803,-0.6487383842468262,1.8979568481445312
1789033868679900200,2.024900146484375,-0.8436042666435242,-0.6713404059410095,3.0078980922698975
1789033868689825300,2.0348251953125,-0.7794634699821472,-1.5479313135147095,2.5576908588409424
1789033868699750700,2.044750732421875,-0.5662716627120972,-0.8246674537658691,3.3909103870391846
1789033868709675800,2.05467578125,-0.1026252806186676,-1.9675954580307007,2.333503484725952
1789033868719601200,2.06460107421875,-0.13072505593299866,-1.3115266561508179,1.8668028116226196
1789033868729526300,2.0745263671875,-0.15699224174022675,-0.9028581380844116,1.6817107200622559
1789033868739451600,2.08445166015625,0.20647229254245758,-0.39828383922576904,-0.38240134716033936
1789033868749376800,2.094376708984375,0.06047561392188072,1.2192860841751099,-0.033597562462091446
1789033868759302000,2.104302001953125,-0.389120876789093,0.7024945020675659,0.3090975880622864
1789033868769227300,2.114227294921875,-0.8240565657615662,-0.2828303873538971,0.4831940531730652
1789033868779152400,2.12415234375,-0.9651663303375244,-1.5082250833511353,0.6536253094673157
1789033868789077800,2.134077880859375,-1.176525592803955,-2.6426010131835938,0.9498947262763977
1789033868799003000,2.1440029296875,-1.3304635286331177,-3.277900457382202,1.2467750310897827
1789033868808928000,2.153927978515625,-1.249218463897705,-3.5271332263946533,1.1307107210159302
1789033868818853400,2.163853271484375,-1.2180644273757935,-3.3463172912597656,0.749531090259552
1789033868870820000,2.215820068359375,-0.1490510106086731,-0.9786053895950317,-1.5039490461349487
1789033868880745200,2.2257451171875,-0.2406807243824005,-1.2095122337341309,-2.3481643199920654
1789033868890670300,2.23567041015625,0.1698204129934311,-1.4770710468292236,-2.8466298580169678
1789033868900595700,2.245595703125,0.7733548283576965,-0.6731730103492737,-1.7055344581604004
1789033868910520800,2.255520751953125,0.544891357421875,0.9187406301498413,-1.7531819343566895
1789033868920446200,2.2654462890625,0.3066541254520416,0.6401863098144531,-1.5992439985275269
1789033868930371300,2.275371337890625,0.34086254239082336,0.4459312856197357,-1.4636319875717163
1789033868940296700,2.285296630859375,0.5668824911117554,1.0140355825424194,-1.7690644264221191
1789033868950221800,2.295221923828125,1.1325433254241943,1.5528182983398438,-2.2345433235168457
1789033868960147000,2.30514697265625,1.8277074098587036,1.712864875793457,-2.27730393409729
1789033868970072300,2.315072265625,2.4434590339660645,1.536935806274414,-2.001193046569824
1789033868979997400,2.32499755859375,3.0616543292999268,1.5943571329116821,-1.7348560094833374
1789033868989922800,2.3349228515625,3.673740863800049,2.0488405227661133,-1.6591087579727173
1789033868999848000,2.344847900390625,4.278496742248535,2.3176209926605225,-1.64566969871521
1789033869009773300,2.354773193359375,4.784293174743652,2.405585527420044,-1.2449424266815186
1789033869019698400,2.364698486328125,4.750084400177002,2.6535966396331787,-0.6218603253364563
1789033869029623800,2.374623779296875,4.781849384307861,2.90893816947937,-0.19425499439239502
1789033869039549000,2.384548828125,4.7097673416137695,3.1532840728759766,-0.046425722539424896
1789033869049474000,2.39447412109375,4.508182048797607,3.4098472595214844,0.2565632164478302
1789033869059399400,2.4043994140625,3.7372708320617676,3.1337363719940186,0.667064368724823
1789033869069324500,2.414324462890625,1.858250617980957,1.8985676765441895,1.237612009048462
1789033869079250000,2.42425,0.3750709891319275,0.3848448097705841,1.3952151536941528
1789033869089175000,2.434175048828125,0.4166097939014435,-0.554665207862854,1.1948515176773071
1789033869099100200,2.44410009765625,0.6731730103492737,-0.5375609993934631,1.1447606086730957
1789033869109025500,2.454025634765625,0.8222240209579468,0.06230820715427399,1.0348049402236938
1789033869118950700,2.46395068359375,0.8735366463661194,0.7183769941329956,0.9309579133987427
1789033869128876000,2.4738759765625,0.7819069027900696,1.666439175605774,0.768467903137207
1789033869138801200,2.48380126953125,0.3066541254520416,0.5815432667732239,0.5387827157974243
1789033869148726300,2.493726318359375,-0.43982264399528503,0.1441640853881836,0.7672461867332458
1789033869158651600,2.503651611328125,-0.9370665550231934,-0.30543237924575806,0.9040798544883728
1789033869168577000,2.513576904296875,-0.8368847370147705,-0.6927206516265869,0.8820887207984924
1789033869178502100,2.523502197265625,-0.41416633129119873,-0.750141978263855,0.8564324378967285
1789033869188427300,2.53342724609375,-0.1698204129934311,-0.45326167345046997,0.34697118401527405
1789033869198352400,2.543352294921875,-0.14294235408306122,0.05253437161445618,-0.3078758418560028
1789033869208277800,2.55327783203125,-0.11117739230394363,0.12095122784376144,-0.7134900689125061
1789033869218203000,2.563202880859375,-0.15149445831775665,-0.667064368724823,-0.6230821013450623
1789033869228128300,2.573128173828125,-0.2260199636220932,-1.0018181800842285,-0.5204567909240723
1789033869238053400,2.583053466796875,-0.5888736248016357,-0.7672461867332458,-0.46425724029541016
1789033869247978800,2.592978759765625,-1.0494656562805176,-0.6426297426223755,-0.41783151030540466
1789033869257903900,2.60290380859375,-1.6578869819641113,-1.0519092082977295,-0.33597561717033386
1789033869267829000,2.6128291015625,-2.249204158782959,-1.9853105545043945,-0.13072505593299866
1789033869277754400,2.62275439453125,-2.3567163944244385,-2.900385856628418,0.11728604137897491
1789033869287679700,2.6326796875,-2.2540910243988037,-2.8881685733795166,0.3042106628417969
1789033869297604900,2.64260498046875,-1.85092031955719,-2.6621487140655518,0.31154105067253113
1789033869307530000,2.652530029296875,-1.3463460206985474,-2.674365997314453,0.36651885509490967
1789033869317455400,2.662455322265625,-0.7183769941329956,-2.772104263305664,0.4776962697505951
1789033869327380500,2.67238037109375,-0.002443459117785096,-2.587623119354248,0.3481929302215576
1789033869337305600,2.6823056640625,0.637742817401886,-1.8130466938018799,0.09040798991918564
1789033869347231000,2.69223095703125,0.9553925395011902,-0.5192350745201111,-0.1282816082239151
1789033869357156000,2.702156005859375,1.3573415279388428,0.6206386089324951,-0.21991132199764252
1789033869367081500,2.71208154296875,1.8069380521774292,1.6774346828460693,-0.28466299176216125
1789033869377006600,2.722006591796875,1.9706497192382812,2.5583016872406006,-0.36774060130119324
1789033869386931700,2.731931640625,1.8716896772384644,3.2644612789154053,-0.5717694163322449
1789033869396857000,2.741857177734375,1.6578869819641113,3.5112507343292236,-0.6609556674957275
1789033869406782200,2.7517822265625,1.4721840620040894,3.082423686981201,-0.5876519083976746
1789033869416707600,2.76170751953125,1.3170244693756104,2.0463969707489014,-0.42882707715034485
1789033869426632700,2.7716328125,1.2107340097427368,0.6145299673080444,-0.22357651591300964
1789033869436558000,2.78155810546875,1.2388337850570679,-0.6169734001159668,-0.04520399495959282
1789033869446483200,2.791483154296875,1.2095122337341309,-1.3194679021835327,0.12217295914888382
1789033869456408600,2.80140869140625,1.0775654315948486,-1.4966187477111816,0.2211330533027649
1789033869466333700,2.811333740234375,0.8600975871086121,-1.546709656715393,0.1844811588525772
1789033869476258800,2.8212587890625,0.5216785073280334,-1.6407828330993652,0.15271618962287903
1789033869486184200,2.83118408203125,0.08674279600381851,-1.627343773841858,0.1954767256975174
1789033869496109300,2.841109375,-0.7318159937858582,-2.263864755630493,0.637742817401886
1789033869506034700,2.85103466796875,-1.663995623588562,-3.3597562313079834,1.1972949504852295
1789033869515959800,2.860959716796875,-2.310290575027466,-3.883878231048584,1.227838158607483
1789033869525885000,2.870885009765625,-2.4483461380004883,-3.99261212348938,0.9932661056518555
1789033869535810300,2.880810302734375,-2.3762640953063965,-4.615694046020508,0.5155698657035828
1789033869545735400,2.8907353515625,-3.327991247177124,-6.106204509735107,-0.5106829404830933
1789033869555660800,2.900660888671875,-3.629758596420288,-5.556426048278809,0.1954767256975174
1789033869565586000,2.9105859375,-2.570518970489502,-4.966330528259277,0.6426297426223755
1789033869575511300,2.92051123046875,-1.3976585865020752,-3.345095634460449,0.29565855860710144
1789033869585436400,2.9304365234375,-0.8527672290802002,-1.848476767539978,-0.3090975880622864
1789033869595361500,2.940361572265625,-1.3377938270568848,-0.7843503952026367,-0.8393282294273376
1789033869605287000,2.950286865234375,-1.2901464700698853,0.14660754799842834,-1.2351685762405396
1789033869615212000,2.9602119140625,-1.1423171758651733,0.2565632164478302,-1.518609881401062
1789033869625137400,2.970137451171875,-0.7330377101898193,-0.002443459117785096,-1.7653992176055908
1789033869635062500,2.9800625,-0.370184063911438,0.7244856357574463,-1.062904715538025
1789033869644987600,2.989987548828125,-0.16737695038318634,1.1618647575378418,-0.7257073521614075
1789033869654913000,2.9999130859375,-0.036651886999607086,1.1215476989746094,-0.5204567909240723
1789033869664838100,3.009838134765625,0.0256563201546669,1.0042617321014404,-0.37629270553588867
1789033869674763500,3.019763427734375,0.03176496922969818,0.8185588121414185,-0.3970620930194855
1789033869684688600,3.029688720703125,0.12705987691879272,0.7538071274757385,-0.481361448764801
1789033869694614000,3.039614013671875,0.13561198115348816,0.8442151546478271,-0.554665207862854
1789033869704539100,3.0495390625,0.0818558782339096,0.5864301919937134,-0.6169734001159668
1789033869714464500,3.059464599609375,0.04886918142437935,0.47525280714035034,-0.5693259835243225
1789033869724389600,3.0693896484375,0.03543015569448471,0.8210022449493408,-0.5668824911117554
1789033869734314800,3.079314697265625,0.0769689604640007,0.8784235715866089,-0.6169734001159668
1789033869744240000,3.089240234375,0.24312418699264526,0.4776962697505951,-0.34697118401527405
1789033869754165500,3.09916552734375,0.37629270553588867,-0.21991132199764252,0.07452550530433655
1789033869764090600,3.109090576171875,0.49602219462394714,-1.0042617321014404,0.35185810923576355
1789033869774015700,3.119015625,0.6743947267532349,-1.4538581371307373,0.6426297426223755
1789033869783941000,3.128941162109375,0.9908226728439331,-1.6713260412216187,0.9089667797088623
1789033869793866200,3.1388662109375,1.1655299663543701,-1.4966187477111816,0.6511818766593933
1789033869803791400,3.148791259765625,0.934623122215271,-1.0519092082977295,0.2883281707763672
1789033869813716700,3.158716796875,0.7672461867332458,-0.6035344004631042,0.14049890637397766
1789033869823641900,3.168641845703125,0.8625410795211792,-0.49602219462394714,0.17837251722812653
1789033869833567000,3.17856689453125,0.952949047088623,-0.37140578031539917,0.1905898153781891
1789033869843492400,3.188492431640625,0.934623122215271,-0.07574722915887833,0.1026252806186676
1789033869853417500,3.19841748046875,0.7183769941329956,0.23335035145282745,-0.021991131827235222
1789033869863342600,3.208342529296875,0.24801109731197357,0.43982264399528503,-0.235793799161911
1789033869873268000,3.21826806640625,-0.026878049597144127,0.7024945020675659,-0.35674503445625305
1789033869883193000,3.228193115234375,0.3347539007663727,0.5326740741729736,-0.5852084755897522
1789033869893118200,3.2381181640625,1.1997383832931519,0.5351175665855408,-0.7171552777290344
1789033869903043600,3.248043701171875,2.0610578060150146,1.1618647575378418,-0.6890554428100586
1789033869912968700,3.25796875,2.6523749828338623,1.7091996669769287,-0.8686497211456299
1789033869922893800,3.267893798828125,2.690248489379883,2.1636829376220703,-1.1423171758651733
1789033869932819200,3.277819091796875,2.3371686935424805,1.6994258165359497,-1.0702351331710815
1789033869942744300,3.287744384765625,1.997527837753296,0.8258891701698303,-0.9639446139335632
1789033869952669400,3.29766943359375,1.9278892278671265,0.9810488224029541,-0.7721330523490906
1789033869962594800,3.3075947265625,1.7201951742172241,0.9700532555580139,-0.7648026943206787
1789033869972520200,3.317520263671875,1.37078058719635,0.7757982611656189,-1.0861176252365112
1789033869982445300,3.3274453125,1.2718204259872437,0.3652971386909485,-1.1545344591140747
1789033869992370700,3.33737060546875,1.092226266860962,-0.4508182108402252,-1.6297872066497803
1789033870002295800,3.3472958984375,0.1539379209280014,-1.546709656715393,-2.2504258155822754
1789033870012221200,3.35722119140625,-1.2241730690002441,-4.172206401824951,-3.7030622959136963
1789033870022146300,3.367146240234375,0.2724456787109375,-2.0390665531158447,-2.2650866508483887
1789033870032071700,3.37707177734375,2.691470146179199,1.8533637523651123,-0.6707295179367065
1789033870041996800,3.386996826171875,2.802647590637207,0.5424479246139526,-0.6316341757774353
1789033870051922200,3.396922119140625,2.0781619548797607,-0.8026763200759888,-1.0567960739135742
1789033870061847300,3.406847412109375,1.887572169303894,-0.014660755172371864,-0.5693259835243225
1789033870071772700,3.416772705078125,1.6627739667892456,0.9138537049293518,-0.1380554437637329
1789033870081697800,3.42669775390625,1.0360267162322998,0.9492838382720947,-0.09285144507884979
1789033870091623000,3.436622802734375,0.4153880476951599,0.7599157691001892,0.001221729558892548
1789033870101548300,3.44654833984375,-0.12095122784376144,0.546113133430481,0.08918625861406326
1789033870111473400,3.456473388671875,-0.4520399272441864,0.3995055556297302,0.15638138353824615
1789033870121398500,3.4663984375,-0.6805033683776855,0.3909534513950348,0.19425499439239502
1789033870131324000,3.476323974609375,-0.8723149299621582,0.35063639283180237,0.1331685185432434
1789033870141249000,3.4862490234375,-0.9199623465538025,0.2003636509180069,-0.01954767294228077
1789033870151174100,3.496174072265625,-0.6120865345001221,0.021991131827235222,-0.11362084746360779
1789033870161099500,3.506099609375,-0.6524035930633545,0.11117739230394363,-0.036651886999607086
1789033870171024600,3.516024658203125,-1.0274745225906372,0.4056142270565033,0.05497783049941063
1789033870180949800,3.52594970703125,-1.3683371543884277,0.7183769941329956,0.1588248461484909
1789033870190875100,3.535875244140625,-1.663995623588562,1.1838558912277222,0.2309068888425827
1789033870200800300,3.54580029296875,-2.075718402862549,1.3548980951309204,0.33597561717033386
1789033870210725400,3.555725341796875,-2.481332778930664,1.137430191040039,0.3897317349910736
1789033870220650800,3.565650634765625,-2.6780312061309814,1.8338160514831543,0.3555232882499695
1789033870230575900,3.575575927734375,-2.6169447898864746,2.7256786823272705,0.4043924808502197
1789033870240501200,3.585501220703125,-2.528980255126953,2.8820600509643555,0.34574946761131287
1789033870250426400,3.59542626953125,-2.327394723892212,2.52042818069458,0.2675587832927704
1789033870260351500,3.6053515625,-2.0097451210021973,2.0744967460632324,0.24434591829776764
1789033870270276900,3.61527685546875,-1.7079778909683228,1.556483507156372,0.1649334877729416
1789033870280202200,3.6252021484375,-1.3280199766159058,0.8405499458312988,0.16004657745361328
1789033870290127400,3.63512744140625,-0.9700532555580139,0.4312705397605896,0.22479823231697083
1789033870300052700,3.645052734375,-0.8588758707046509,0.4251618981361389,0.2675587832927704
1789033870309977900,3.654977783203125,-0.6499601006507874,0.5852084755897522,0.27977606654167175
1789033870319903200,3.6649033203125,-0.2981020212173462,0.5057960152626038,0.33108872175216675
1789033870329828400,3.674828369140625,-0.036651886999607086,0.38240134716033936,0.43982264399528503
1789033870339753700,3.684753662109375,0.06475166976451874,0.3384190797805786,0.5338957905769348
1789033870349678800,3.694678955078125,0.08552107214927673,0.360410213470459,0.6243038177490234
1789033870359604200,3.704604248046875,0.07452550530433655,0.4202749729156494,0.7440332770347595
1789033870369529300,3.714529296875,0.12705987691879272,0.3384190797805786,0.8625410795211792
1789033870379454500,3.724454345703125,0.14172062277793884,0.18814635276794434,0.9211840629577637
1789033870389379800,3.7343798828125,0.18570289015769958,-0.050090912729501724,0.8833104968070984
1789033870399305000,3.744304931640625,0.27000224590301514,-0.15638138353824615,0.7806851863861084
1789033870409230000,3.75422998046875,0.28954991698265076,-0.17837251722812653,0.5974257588386536
1789033870419155500,3.764155517578125,0.3249800503253937,-0.12217295914888382,0.47036588191986084
1789033870429080600,3.77408056640625,0.27488914132118225,-0.046425722539424896,0.4043924808502197
1789033870439005700,3.784005615234375,0.12461641430854797,0.020769402384757996,0.27366742491722107
1789033870448931000,3.79393115234375,-0.046425722539424896,0.07330377399921417,0.053756099194288254
1789033870458856200,3.803856201171875,-0.16249002516269684,0.09896009415388107,-0.19303326308727264
1789033870468781600,3.813781494140625,-0.1905898153781891,0.0818558782339096,-0.370184063911438
1789033870478706700,3.823706787109375,-0.21868959069252014,0.17837251722812653,-0.4886918365955353
1789033870488632000,3.833632080078125,-0.19425499439239502,0.33597561717033386,-0.5314523577690125
1789033870498557400,3.843557373046875,-0.18692462146282196,0.6316341757774353,-0.6352993845939636
1789033870508482600,3.853482666015625,-0.33597561717033386,0.685390293598175,-0.7770199775695801
1789033870518408000,3.863407958984375,-0.4508182108402252,0.4105011224746704,-0.8698714375495911
1789033870528333000,3.8733330078125,-0.526565432548523,0.10506874322891235,-0.8637627959251404
1789033870538258400,3.883258544921875,-0.544891357421875,0.04276053607463837,-0.7391464114189148
1789033870548183600,3.89318359375,-0.6023126840591431,0.15149445831775665,-0.6035344004631042
1789033870558109000,3.90310888671875,-0.748920202255249,0.23457208275794983,-0.5070177912712097
1789033870568034000,3.913033935546875,-0.8906408548355103,0.43004879355430603,-0.4214966893196106
1789033870577959400,3.92295947265625,-1.117882490158081,0.4569268524646759,-0.4557051360607147
1789033870587884500,3.932884521484375,-1.1239912509918213,0.2370155304670334,-0.6267472505569458
1789033870597810000,3.942809814453125,-0.8429933786392212,0.08918625861406326,-0.7391464114189148
1789033870607735300,3.9527353515625,-0.6401863098144531,0.07574722915887833,-0.7660244107246399
1789033870617660400,3.962660400390625,-0.5326740741729736,0.38240134716033936,-0.7000510096549988
1789033870627585800,3.972585693359375,-0.4153880476951599,0.7794634699821472,-0.6352993845939636
1789033870637511000,3.982510986328125,-0.3958403766155243,1.0128138065338135,-0.6633991599082947
1789033870647436300,3.992436279296875,-0.3640754222869873,1.091004490852356,-0.6817250847816467
1789033870657361400,4.002361328125,-0.4068359434604645,0.8698714375495911,-0.7452550530433655
1789033870667286500,4.01228662109375,-0.6267472505569458,0.7770199775695801,-0.7562506198883057
1789033870677212000,4.0222119140625,-0.8649845123291016,0.6878337264060974,-0.6976075768470764
1789033870687137000,4.032136962890625,-1.0262528657913208,0.4679224193096161,-0.6682860851287842
1789033870697062400,4.0420625,-1.2070688009262085,0.2260199636220932,-0.7086031436920166
1789033870706987500,4.051987548828125,-1.352454662322998,0.014660755172371864,-0.7880155444145203
1789033870716912600,4.06191259765625,-1.4391974210739136,-0.2883281707763672,-0.8014546036720276
1789033870726838000,4.071838134765625,-1.4831796884536743,-0.5974257588386536,-0.7880155444145203
1789033870736763100,4.08176318359375,-1.5296053886413574,-0.7757982611656189,-0.8014546036720276
1789033870746688300,4.091688232421875,-1.5552617311477661,-0.8222240209579468,-0.861319363117218
1789033870756613600,4.101613525390625,-1.5332705974578857,-0.7855721116065979,-0.9211840629577637
1789033870766538800,4.111538818359375,-1.4941751956939697,-0.7611374855041504,-0.9016364216804504
1789033870776464000,4.1214638671875,-1.459966778755188,-0.8087849617004395,-0.8173370957374573
1789033870786389200,4.13138916015625,-1.4172062873840332,-0.8747583627700806,-0.7525854110717773
1789033870796314400,4.141314453125,-1.342680811882019,-0.8503237962722778,-0.7134900689125061
1789033870806239500,4.151239501953125,-1.1997383832931519,-0.7525854110717773,-0.6352993845939636
1789033870816164900,4.161164794921875,-1.0299180746078491,-0.6047561168670654,-0.5155698657035828
1789033870826090000,4.171090087890625,-0.9016364216804504,-0.4667007029056549,-0.3640754222869873
1789033870836015000,4.18101513671875,-0.8124501705169678,-0.3090975880622864,-0.2309068888425827
1789033870845940500,4.1909404296875,-0.6707295179367065,-0.2675587832927704,-0.24923282861709595
1789033870855865600,4.200865478515625,-0.5485565662384033,-0.22968515753746033,-0.3249800503253937
1789033870865791000,4.210791015625,-0.4422661066055298,-0.25900667905807495,-0.2712239623069763
1789033870875716000,4.220716064453125,-0.31154105067253113,-0.18081597983837128,-0.1380554437637329
1789033870885641500,4.230641357421875,-0.16004657745361328,0.04886918142437935,-0.06841685622930527
1789033870895566600,4.240566650390625,-0.023212861269712448,0.20891575515270233,-0.03176496922969818
1789033870905492000,4.250491943359375,0.10751219838857651,0.19669845700263977,0.012217295356094837
1789033870915417300,4.260417236328125,0.2626718580722809,0.18081597983837128,0.05253437161445618
1789033870925342500,4.270342529296875,0.45326167345046997,0.26022839546203613,0.08429934084415436
1789033870935267800,4.280267822265625,0.6352993845939636,0.33719736337661743,0.10384701192378998
1789033870945193000,4.29019287109375,0.7990111112594604,0.32009315490722656,0.1233946830034256
1789033870955118300,4.300118408203125,0.9517273306846619,0.30543237924575806,0.15149445831775665
1789033870965043500,4.31004345703125,1.099556565284729,0.33231043815612793,0.1747073233127594
1789033870974968600,4.319968505859375,1.2424989938735962,0.34574946761131287,0.18570289015769958
1789033870984894000,4.32989404296875,1.3939933776855469,0.3530798554420471,0.20769402384757996
1789033870994819000,4.339819091796875,1.545487880706787,0.40927940607070923,0.2309068888425827
1789033871004744200,4.349744140625,1.6701042652130127,0.46425724029541016,0.23945899307727814
1789033871014669600,4.359669677734375,1.7776165008544922,0.5290089249610901,0.2663370370864868
1789033871024594700,4.3695947265625,1.869246244430542,0.574212908744812,0.2712239623069763
1789033871034519800,4.379519775390625,1.9425499439239502,0.5522217750549316,0.25045454502105713
1789033871044445200,4.389445068359375,1.9559890031814575,0.4581485986709595,0.2211330533027649
1789033871054370300,4.399370361328125,1.9511021375656128,0.3445277214050293,0.24312418699264526
1789033871064295700,4.409295654296875,1.9413282871246338,0.2968802750110626,0.26511532068252563
1789033871074220800,4.419220703125,1.9181153774261475,0.31520622968673706,0.26878049969673157
1789033871084146200,4.429146240234375,1.877798318862915,0.39828383922576904,0.2528980076313019
1789033871094071300,4.4390712890625,1.8240422010421753,0.5180133581161499,0.25045454502105713
1789033871103996700,4.44899658203125,1.792277216911316,0.6010909676551819,0.2663370370864868
1789033871113921800,4.458921875,1.7788382768630981,0.6511818766593933,0.28588470816612244
1789033871123847200,4.46884716796875,1.740964651107788,0.6181951761245728,0.28954991698265076
1789033871133772500,4.4787724609375,1.68354332447052,0.5045742988586426,0.2932150959968567
1789033871143697700,4.48869775390625,1.6420044898986816,0.3139844834804535,0.32009315490722656
1789033871153623000,4.498623046875,1.6090178489685059,0.22357651591300964,0.31154105067253113
1789033871163548200,4.508548095703125,1.536935806274414,0.17592905461788177,0.2883281707763672
1789033871173473300,4.518473388671875,1.479514479637146,0.18325942754745483,0.3127627670764923
1789033871183398700,4.528398681640625,1.4184280633926392,0.1905898153781891,0.31520622968673706
1789033871193323800,4.53832373046875,1.304807186126709,0.09529490768909454,0.34574946761131287
1789033871203249000,4.548248779296875,1.2547162771224976,0.07819069176912308,0.40805765986442566
1789033871213174300,4.55817431640625,1.1985167264938354,0.01588248461484909,0.4202749729156494
1789033871223099400,4.568099365234375,1.0519092082977295,-0.1331685185432434,0.4105011224746704
1789033871233024500,4.5780244140625,0.8747583627700806,-0.27977606654167175,0.38240134716033936
1789033871242950000,4.587949951171875,0.7293725609779358,-0.3995055556297302,0.38240134716033936
1789033871252875000,4.597875,0.6133082509040833,-0.48991355299949646,0.34697118401527405
1789033871262800100,4.607800048828125,0.5009090900421143,-0.4923570156097412,0.328645259141922
1789033871272725500,4.6177255859375,0.4056142270565033,-0.4569268524646759,0.3384190797805786
1789033871282650600,4.627650634765625,0.31031930446624756,-0.49480047821998596,0.33597561717033386
1789033871292575700,4.63757568359375,0.19792018830776215,-0.5949822664260864,0.32620179653167725
1789033871302501000,4.647501220703125,0.06841685622930527,-0.7086031436920166,0.29565855860710144
1789033871312426200,4.65742626953125,-0.036651886999607086,-0.7562506198883057,0.2406807243824005
1789033871322351600,4.6673515625,-0.11362084746360779,-0.6426297426223755,0.1893680840730667
1789033871332276700,4.67727685546875,-0.1893680840730667,-0.4776962697505951,0.1637117564678192
1789033871342201900,4.687201904296875,-0.26022839546203613,-0.3042106628417969,0.16615521907806396
1789033871352127200,4.697127197265625,-0.33108872175216675,-0.06108647957444191,0.19425499439239502
1789033871362052400,4.70705224609375,-0.4153880476951599,0.0977383628487587,0.16249002516269684
1789033871371977700,4.716977783203125,-0.5106829404830933,0.06108647957444191,0.001221729558892548
1789033871381902800,4.72690283203125,-0.5864301919937134,0.11239911615848541,-0.12095122784376144
1789033871391828200,4.736828125,-0.6646208763122559,0.29077163338661194,-0.11117739230394363
1789033871401753300,4.74675341796875,-0.7318159937858582,0.4667007029056549,-0.07086031138896942
1789033871411678700,4.7566787109375,-0.7611374855041504,0.5375609993934631,-0.11362084746360779
1789033871421603800,4.766603759765625,-0.7843503952026367,0.5253437161445618,-0.1747073233127594
1789033871431529200,4.776529296875,-0.8148936033248901,0.4153880476951599,-0.19792018830776215
1789033871441454300,4.786454345703125,-0.8307760953903198,0.28954991698265076,-0.1893680840730667
1789033871451379700,4.796379638671875,-0.8197805285453796,0.19181154668331146,-0.1795942485332489
1789033871461304800,4.806304931640625,-0.7599157691001892,0.09896009415388107,-0.19792018830776215
1789033871471230200,4.816230224609375,-0.6743947267532349,0.05253437161445618,-0.21380266547203064
1789033871481155300,4.8261552734375,-0.6194168925285339,0.04520399495959282,-0.2260199636220932
1789033871491080400,4.83608056640625,-0.5827649831771851,0.07330377399921417,-0.20158538222312927
1789033871501005800,4.846005859375,-0.5204567909240723,0.009773836471140385,-0.1331685185432434
1789033871510931000,4.855930908203125,-0.4789179861545563,-0.03787361457943916,-0.08552107214927673
1789033871520856000,4.86585595703125,-0.5326740741729736,-0.009773836471140385,-0.07452550530433655
1789033871530781400,4.875781494140625,-0.6597339510917664,0.04764745384454727,-0.06597339361906052
1789033871540706600,4.88570654296875,-0.8662062287330627,0.05253437161445618,-0.08063415437936783
1789033871550631700,4.895631591796875,-1.128878116607666,0.09529490768909454,-0.19181154668331146
1789033871560557000,4.90555712890625,-1.2925899028778076,0.24801109731197357,-0.2919933497905731
1789033871570482400,4.915482421875,-1.3402373790740967,0.3787361681461334,-0.29565855860710144
1789033871580407600,4.925407470703125,-1.37078058719635,0.14172062277793884,-0.3543015718460083
1789033871590333000,4.9353330078125,-1.3964369297027588,-0.47036588191986084,-0.4972439408302307
1789033871600258000,4.945258056640625,-1.4245367050170898,-1.000596523284912,-0.544891357421875
1789033871610183400,4.955183349609375,-1.4819579124450684,-1.110552191734314,-0.4569268524646759
1789033871620108500,4.965108642578125,-1.5674790143966675,-0.8429933786392212,-0.40317076444625854
1789033871630034000,4.975033935546875,-1.6896519660949707,-0.3897317349910736,-0.4508182108402252
1789033871639959000,4.984958984375,-1.8228205442428589,-0.06719512492418289,-0.5754346251487732
1789033871649884400,4.994884521484375,-1.8729114532470703,-0.11972949653863907,-0.7037162184715271
1789033871659809500,5.0048095703125,-1.8570289611816406,-0.544891357421875,-0.7415898442268372
1789033871669735000,5.01473486328125,-1.811824917793274,-0.9334014058113098,-0.7012727856636047
1789033871679660000,5.024659912109375,-1.7263038158416748,-0.9236275553703308,-0.647516667842865
1789033871689585200,5.034585205078125,-1.5906919240951538,-0.665842592716217,-0.5485565662384033
1789033871699510500,5.044510498046875,-1.4355322122573853,-0.38850998878479004,-0.42394015192985535
1789033871709435600,5.054435546875,-1.3084723949432373,-0.2528980076313019,-0.32131487131118774
1789033871719360800,5.06436083984375,-1.166751742362976,-0.3335321843624115,-0.2822195291519165
1789033871729286100,5.0742861328125,-1.08978271484375,-0.3958403766155243,-0.2809978127479553
1789033871739211300,5.084211181640625,-1.0054833889007568,-0.4471530318260193,-0.26022839546203613
1789033871749136400,5.094136474609375,-0.84177166223526,-0.40805765986442566,-0.12950333952903748
1789033871759061800,5.104061767578125,-0.6524035930633545,-0.23335035145282745,0.024434590712189674
1789033871768987100,5.113987060546875,-0.49602219462394714,-0.08918625861406326,0.11117739230394363
1789033871778912300,5.123912353515625,-0.34697118401527405,0.034208428114652634,0.1380554437637329
1789033871788837600,5.133837646484375,-0.14660754799842834,0.20280711352825165,0.15149445831775665
1789033871798762800,5.1437626953125,0.09285144507884979,0.42271843552589417,0.1380554437637329
1789033871808688000,5.153688232421875,0.39217519760131836,0.6438514590263367,0.12583814561367035
1789033871818613200,5.16361328125,0.665842592716217,0.7342594861984253,0.09896009415388107
1789033871828538600,5.17353857421875,0.8723149299621582,0.695164144039154,0.05864302068948746
1789033871838463700,5.183463623046875,1.0384701490402222,0.6462949514389038,0.10506874322891235
1789033871848389000,5.19338916015625,1.1911863088607788,0.6890554428100586,0.2052505612373352
1789033871858314200,5.203314208984375,1.3206896781921387,0.7770199775695801,0.2577849328517914
1789033871868239600,5.213239501953125,1.431867003440857,0.8723149299621582,0.27855435013771057
1789033871878164700,5.223164794921875,1.527161955833435,0.9456186890602112,0.29565855860710144
1789033871888089900,5.23308984375,1.627343773841858,1.0030399560928345,0.2968802750110626
1789033871898015200,5.24301513671875,1.7067562341690063,1.0580178499221802,0.2370155304670334
1789033871907940400,5.2529404296875,1.7556253671646118,0.9896009564399719,0.1893680840730667
1789033871917865500,5.262865478515625,1.7727296352386475,0.8979712128639221,0.16737695038318634
1789033871927790800,5.272790771484375,1.7934989929199219,0.8124501705169678,0.16737695038318634
1789033871937716000,5.282716064453125,1.8460333347320557,0.7281508445739746,0.19792018830776215
1789033871947641000,5.29264111328125,1.877798318862915,0.5632173418998718,0.20647229254245758
1789033871957566500,5.30256640625,1.8814635276794434,0.4056142270565033,0.16249002516269684
1789033871967491600,5.31249169921875,1.8619158267974854,0.32131487131118774,0.09896009415388107
1789033871977417000,5.3224169921875,1.8423681259155273,0.29565855860710144,0.05864302068948746
1789033871987342300,5.33234228515625,1.832594394683838,0.31642794609069824,0.06963858753442764
1789033871997267500,5.342267333984375,1.8277074098587036,0.3811796307563782,0.13439024984836578
1789033872007192800,5.35219287109375,1.8069380521774292,0.46914416551589966,0.1637117564678192
1789033872017118000,5.362117919921875,1.760512351989746,0.5119046568870544,0.15149445831775665
1789033872027043300,5.372043212890625,1.711643099784851,0.5033525824546814,0.15149445831775665
1789033872036968400,5.381968505859375,1.6615521907806396,0.49113526940345764,0.15515965223312378
1789033872046893800,5.391893798828125,1.5515965223312378,0.3384190797805786,0.1331685185432434
1789033872056819000,5.40181884765625,1.3939933776855469,0.10629047453403473,0.11728604137897491
1789033872066744300,5.411744384765625,1.2791508436203003,0.04276053607463837,0.12095122784376144
1789033872076669400,5.42166943359375,1.2253947257995605,0.05253437161445618,0.12461641430854797
1789033872086594800,5.4315947265625,1.1459823846817017,-0.012217295356094837,0.15515965223312378
1789033872096520200,5.441520263671875,1.0299180746078491,-0.1331685185432434,0.1380554437637329
1789033872106445300,5.4514453125,0.9053016304969788,-0.28466299176216125,0.09407317638397217
1789033872116370700,5.46137060546875,0.813671886920929,-0.35063639283180237,0.08307760953903198
1789033872126295800,5.4712958984375,0.711046576499939,-0.3591884970664978,0.09529490768909454
1789033872136221200,5.48122119140625,0.5790998339653015,-0.33597561717033386,0.11972949653863907
1789033872146146300,5.491146240234375,0.42394015192985535,-0.3738492429256439,0.1331685185432434
1789033872156071400,5.501071533203125,0.26389357447624207,-0.45937031507492065,0.14294235408306122
1789033872165996800,5.510996826171875,0.11606431007385254,-0.546113133430481,0.13439024984836578
1789033872175922000,5.520921875,-0.008552107028663158,-0.6389645338058472,0.08796452730894089
1789033872185847000,5.530846923828125,-0.10018182545900345,-0.7220421433448792,0.01588248461484909
1789033872195772200,5.540772216796875,-0.17715078592300415,-0.7977893948554993,-0.07086031138896942
1789033872205697300,5.550697265625,-0.2675587832927704,-0.8283326625823975,-0.13927717506885529
1789033872215622400,5.560622314453125,-0.3640754222869873,-0.8002328872680664,-0.18570289015769958
1789033872225547500,5.570547607421875,-0.4471530318260193,-0.6878337264060974,-0.22968515753746033
1789033872235473000,5.580472900390625,-0.5119046568870544,-0.3946186602115631,-0.25534147024154663
1789033872245398000,5.59039794921875,-0.6096430420875549,0.06230820715427399,-0.2101374864578247
1789033872255323100,5.6003232421875,-0.7330377101898193,0.41416633129119873,-0.15271618962287903
1789033872265248500,5.61024853515625,-0.7831286191940308,0.6243038177490234,-0.16004657745361328
1789033872275173600,5.620173583984375,-0.7635809779167175,0.7257073521614075,-0.1282816082239151
1789033872285099000,5.63009912109375,-0.7342594861984253,0.6084213256835938,-0.04886918142437935
1789033872295024000,5.640024169921875,-0.7220421433448792,0.37629270553588867,-0.003665188793092966
1789033872304949500,5.649949462890625,-0.7220421433448792,0.16249002516269684,0.013439024798572063
1789033872314875000,5.659875,-0.7623592615127563,-0.0769689604640007,0.017104214057326317
1789033872324800000,5.669800048828125,-0.8124501705169678,-0.27488914132118225,-0.023212861269712448
1789033872334725400,5.679725341796875,-0.9016364216804504,-0.3225366175174713,-0.10751219838857651
1789033872344650500,5.689650390625,-1.0067051649093628,-0.26022839546203613,-0.20402882993221283
1789033872354576000,5.699575927734375,-1.0323615074157715,-0.2761108875274658,-0.27977606654167175
1789033872364501000,5.7095009765625,-1.0225876569747925,-0.33231043815612793,-0.3078758418560028
1789033872374426000,5.719426025390625,-1.0213658809661865,-0.33597561717033386,-0.2993237376213074
1789033872384351500,5.7293515625,-1.0458004474639893,-0.3530798554420471,-0.27488914132118225
1789033872394276600,5.739276611328125,-1.158199667930603,-0.4373791813850403,-0.27366742491722107
1789033872404202000,5.749201904296875,-1.3023637533187866,-0.3066541254520416,-0.3481929302215576
1789033872414127000,5.759127197265625,-1.362228512763977,0.10751219838857651,-0.3970620930194855
1789033872424052200,5.76905224609375,-1.3585633039474487,0.4740310609340668,-0.39828383922576904
1789033872433977600,5.7789775390625,-1.3915499448776245,0.40927940607070923,-0.47036588191986084
1789033872443902700,5.78890283203125,-1.4098758697509766,-0.1490510106086731,-0.5656607747077942
1789033872453827800,5.798827880859375,-1.480736255645752,-0.851545512676239,-0.5558869242668152
1789033872463753200,5.808753173828125,-1.6187916994094849,-1.2339468002319336,-0.4984656572341919
1789033872473678300,5.81867822265625,-1.8130466938018799,-1.062904715538025,-0.47525280714035034
1789033872483603700,5.828603759765625,-1.9572107791900635,-0.5937605500221252,-0.46059203147888184
1789033872493528800,5.83852880859375,-2.0024147033691406,-0.2260199636220932,-0.46547895669937134
1789033872503454200,5.8484541015625,-1.9718714952468872,-0.2577849328517914,-0.5070177912712097
1789033872513379600,5.858379638671875,-1.9278892278671265,-0.6071996092796326,-0.5522217750549316
1789033872523304700,5.8683046875,-1.8643592596054077,-0.9676098227500916,-0.526565432548523
1789033872533230000,5.87822998046875,-1.7702860832214355,-1.033583164215088,-0.42271843552589417
1789033872543155200,5.8881552734375,-1.635895848274231,-0.7648026943206787,-0.31520622968673706
1789033872553080600,5.89808056640625,-1.4660754203796387,-0.40317076444625854,-0.24312418699264526
1789033872563005700,5.908005615234375,-1.2779290676116943,-0.22235478460788727,-0.16004657745361328
1789033872572931000,5.91793115234375,-1.1166608333587646,-0.22479823231697083,-0.046425722539424896
1789033872582856200,5.927856201171875,-0.9798271059989929,-0.22724169492721558,0.010995565913617611
1789033872592781600,5.937781494140625,-0.8588758707046509,-0.2309068888425827,0.021991131827235222
1789033872602706700,5.947706787109375,-0.7623592615127563,-0.2211330533027649,0.08674279600381851
1789033872612632000,5.957632080078125,-0.5766563415527344,-0.11484257876873016,0.19181154668331146
1789033872622557400,5.967557373046875,-0.3433060050010681,0.08674279600381851,0.29565855860710144
1789033872632482600,5.977482666015625,-0.15760311484336853,0.28466299176216125,0.3591884970664978
1789033872642408000,5.987407958984375,0.03298669680953026,0.41294458508491516,0.360410213470459
1789033872652333000,5.9973330078125,0.2406807243824005,0.4862483739852905,0.3139844834804535
1789033872662258200,6.007258056640625,0.4740310609340668,0.5106829404830933,0.2712239623069763
1789033872672183300,6.017183349609375,0.720820426940918,0.49968740344047546,0.2406807243824005
1789033872682108700,6.027108642578125,0.9395100474357605,0.4728093445301056,0.2260199636220932
1789033872692033800,6.03703369140625,1.120326042175293,0.4776962697505951,0.2260199636220932
1789033872701959000,6.046958984375,1.2986985445022583,0.5241219997406006,0.24923282861709595
1789033872711884000,6.056884033203125,1.4587451219558716,0.5852084755897522,0.27366742491722107
1789033872721809200,6.06680908203125,1.5809180736541748,0.6633991599082947,0.27488914132118225
1789033872731734300,6.076734375,1.6810998916625977,0.720820426940918,0.2712239623069763
1789033872741659400,6.086659423828125,1.7641774415969849,0.7757982611656189,0.2528980076313019
1789033872751584800,6.096584716796875,1.859472393989563,0.8539889454841614,0.23212862014770508
1789033872761510000,6.106510009765625,1.9107850790023804,0.8283326625823975,0.2406807243824005
1789033872771435300,6.116435302734375,1.9511021375656128,0.7770199775695801,0.26389357447624207
1789033872781360400,6.1263603515625,2.003636360168457,0.7538071274757385,0.25534147024154663
1789033872791285800,6.13628564453125,2.012188673019409,0.7354812026023865,0.2211330533027649
1789033872801211000,6.1462109375,1.9645410776138306,0.6096430420875549,0.2370155304670334
1789033872811136300,6.15613623046875,1.9046764373779297,0.48013970255851746,0.2467893660068512
1789033872821061400,6.166061279296875,1.879020094871521,0.5338957905769348,0.21502439677715302
1789033872830986800,6.17598681640625,1.877798318862915,0.750141978263855,0.19792018830776215
1789033872840912100,6.185912109375,1.868024468421936,0.9321796298027039,0.2260199636220932
1789033872850837200,6.195837158203125,1.8350378274917603,0.9969313144683838,0.27366742491722107
1789033872860762400,6.205762451171875,1.7861685752868652,0.8918625712394714,0.3225366175174713
1789033872870687700,6.215687744140625,1.703091025352478,0.6621774435043335,0.33719736337661743
1789033872880612900,6.22561279296875,1.6090178489685059,0.4520399272441864,0.32620179653167725
1789033872890538000,6.2355380859375,1.5589269399642944,0.43860089778900146,0.32131487131118774
1789033872900463400,6.24546337890625,1.5051708221435547,0.5241219997406006,0.33231043815612793
1789033872910388500,6.255388427734375,1.3842196464538574,0.4984656572341919,0.3249800503253937
1789033872920313900,6.26531396484375,1.2437206506729126,0.26389357447624207,0.32131487131118774
1789033872930239000,6.275239013671875,1.0983349084854126,-0.006108647678047419,0.3433060050010681
1789033872940164000,6.2851640625,0.9786053895950317,-0.1649334877729416,0.3543015718460083
1789033872950089500,6.29508935546875,0.8283326625823975,-0.3017672002315521,0.33719736337661743
1789033872960014600,6.3050146484375,0.7037162184715271,-0.3176496922969818,0.32009315490722656
1789033872969939700,6.314939697265625,0.6010909676551819,-0.24434591829776764,0.3127627670764923
1789033872979865000,6.324864990234375,0.4764745235443115,-0.21380266547203064,0.2932150959968567
1789033872989790200,6.334790283203125,0.36163195967674255,-0.2834412455558777,0.2932150959968567
1789033872999715300,6.34471533203125,0.20158538222312927,-0.44348782300949097,0.2724456787109375
1789033873009640700,6.354640625,0.009773836471140385,-0.5986474752426147,0.2260199636220932
1789033873019565800,6.36456591796875,-0.13927717506885529,-0.6585122346878052,0.14294235408306122
1789033873029491000,6.374490966796875,-0.2419024556875229,-0.711046576499939,0.026878049597144127
1789033873039416300,6.384416259765625,-0.3396408259868622,-0.7513636946678162,-0.10018182545900345
1789033873049341400,6.394341552734375,-0.4679224193096161,-0.8222240209579468,-0.21258094906806946
1789033873059266800,6.404266845703125,-0.6255255341529846,-0.813671886920929,-0.30054548382759094
1789033873069192000,6.41419189453125,-0.7599157691001892,-0.6071996092796326,-0.3640754222869873
1789033873079117300,6.424117431640625,-0.8405499458312988,-0.1698204129934311,-0.3860665261745453
1789033873089042400,6.43404248046875,-0.9211840629577637,0.42271843552589417,-0.33231043815612793
1789033873098967800,6.4439677734375,-1.0018181800842285,0.8772017955780029,-0.22846342623233795
1789033873108893000,6.453892822265625,-1.0299180746078491,1.0421353578567505,-0.15149445831775665
1789033873118818300,6.463818359375,-0.9309579133987427,0.8955277800559998,-0.13561198115348816
1789033873128743400,6.473743408203125,-0.8405499458312988,0.5839866995811462,-0.08674279600381851
1789033873138668800,6.483668701171875,-0.8124501705169678,0.25411975383758545,-0.06475166976451874
1789033873148594000,6.493593994140625,-0.8063415288925171,-0.08796452730894089,-0.10873392969369888
1789033873158519300,6.503519287109375,-0.8429933786392212,-0.32131487131118774,-0.1233946830034256
1789033873168444400,6.5134443359375,-0.9578359723091125,-0.4214966893196106,-0.16004657745361328
1789033873178369800,6.523369873046875,-1.092226266860962,-0.34208428859710693,-0.25045454502105713
1789033873188295000,6.533294921875,-1.186299443244934,-0.21502439677715302,-0.33719736337661743
1789033873198220000,6.543219970703125,-1.2046253681182861,-0.18570289015769958,-0.35185810923576355
1789033873208145400,6.5531455078125,-1.2021819353103638,-0.18814635276794434,-0.29077163338661194
1789033873218070500,6.563070556640625,-1.2253947257995605,-0.31031930446624756,-0.2101374864578247
1789033873227995600,6.57299560546875,-1.3683371543884277,-0.5070177912712097,-0.1905898153781891
1789033873237921000,6.582921142578125,-1.5699224472045898,-0.49480047821998596,-0.28588470816612244
1789033873247846100,6.59284619140625,-1.5796962976455688,-0.024434590712189674,-0.36774060130119324
1789033873257771300,6.602771240234375,-1.450192928314209,0.5668824911117554,-0.3640754222869873
1789033873267696600,6.612696533203125,-1.4489712715148926,0.6939423680305481,-0.41294458508491516
1789033873277621800,6.622621826171875,-1.5503748655319214,0.12950333952903748,-0.5204567909240723
1789033873287547000,6.632546875,-1.655443549156189,-0.7611374855041504,-0.5815432667732239
1789033873297472300,6.64247216796875,-1.7458515167236328,-1.4037672281265259,-0.5216785073280334
1789033873307397400,6.6523974609375,-1.8558071851730347,-1.517388105392456,-0.401949018239975
1789033873317322500,6.662322509765625,-1.9743149280548096,-1.2229512929916382,-0.3543015718460083
1789033873327248000,6.672247802734375,-2.0781619548797607,-0.7195987105369568,-0.3750709891319275
1789033873337173000,6.682173095703125,-2.1368050575256348,-0.34208428859710693,-0.4202749729156494
1789033873347098000,6.69209814453125,-2.1025965213775635,-0.2809978127479553,-0.4263836145401001
1789033873357023500,6.7020234375,-1.9938626289367676,-0.40927940607070923,-0.32009315490722656
1789033873366948600,6.711948486328125,-1.839924693107605,-0.5192350745201111,-0.14660754799842834
1789033873376874000,6.7218740234375,-1.6713260412216187,-0.41783151030540466,-0.014660755172371864
1789033873386799400,6.73179931640625,-1.4282019138336182,-0.23212862014770508,0.09896009415388107
1789033873396724500,6.741724365234375,-1.156977891921997,-0.13072505593299866,0.2370155304670334
1789033873406649900,6.75164990234375,-0.9639446139335632,-0.04153880476951599,0.2993237376213074
1789033873416575000,6.761574951171875,-0.8014546036720276,0.08307760953903198,0.24434591829776764
1789033873426500400,6.771500244140625,-0.6462949514389038,0.053756099194288254,0.2260199636220932
1789033873436425500,6.781425537109375,-0.5009090900421143,-0.009773836471140385,0.2577849328517914
1789033873446350800,6.791350830078125,-0.36774060130119324,0.03787361457943916,0.318871408700943
1789033873456276000,6.80127587890625,-0.12461641430854797,0.18814635276794434,0.38850998878479004
1789033873466201300,6.811201416015625,0.1441640853881836,0.370184063911438,0.40927940607070923
1789033873476126500,6.82112646484375,0.3396408259868622,0.4459312856197357,0.35796675086021423
1789033873486051600,6.831051513671875,0.5595521330833435,0.4361574649810791,0.31520622968673706
1789033873495977000,6.84097705078125,0.8063415288925171,0.46547895669937134,0.27000224590301514
1789033873505902000,6.850902099609375,1.0323615074157715,0.5155698657035828,0.21502439677715302
1789033873515827200,6.8608271484375,1.2217295169830322,0.5131264328956604,0.2260199636220932
1789033873525752600,6.870752685546875,1.4233149290084839,0.5473348498344421,0.24801109731197357
1789033873535677700,6.880677734375,1.5650355815887451,0.5656607747077942,0.25900667905807495
1789033873545602800,6.890602783203125,1.6530001163482666,0.6536253094673157,0.26878049969673157
1789033873555528200,6.900528076171875,1.7140865325927734,0.7855721116065979,0.2626718580722809
1789033873565453300,6.910453369140625,1.7996076345443726,0.8906408548355103,0.25900667905807495
1789033873575378700,6.920378662109375,1.8912373781204224,0.9321796298027039,0.2614501118659973
1789033873585304000,6.930303955078125,1.9413282871246338,0.9456186890602112,0.2309068888425827
1789033873595229200,6.940229248046875,1.9437717199325562,0.8943060636520386,0.22235478460788727
1789033873605154600,6.950154541015625,1.9511021375656128,0.8283326625823975,0.2419024556875229
1789033873615079700,6.96007958984375,1.9559890031814575,0.7831286191940308,0.2663370370864868
1789033873625005000,6.970005126953125,1.9230023622512817,0.730594277381897,0.3078758418560028
1789033873634930200,6.97993017578125,1.8655810356140137,0.6731730103492737,0.33597561717033386
1789033873644855600,6.98985546875,1.8252639770507812,0.6866120100021362,0.3481929302215576
1789033873654780700,6.99978076171875,1.7653992176055908,0.7831286191940308,0.2932150959968567
1789033873664706000,7.0097060546875,1.6701042652130127,0.8649845123291016,0.22968515753746033
1789033873674631200,7.019631103515625,1.5931353569030762,0.9957095980644226,0.20402882993221283
1789033873684556300,7.029556396484375,1.5296053886413574,1.0787872076034546,0.15515965223312378
1789033873694481400,7.0394814453125,1.4868448972702026,0.9480621218681335,0.14538581669330597
1789033873704406500,7.049406494140625,1.4868448972702026,0.7086031436920166,0.1588248461484909
1789033873714331600,7.05933154296875,1.4758492708206177,0.5204567909240723,0.17715078592300415
1789033873724256800,7.0692568359375,1.3866630792617798,0.411722868680954,0.20769402384757996
1789033873734182000,7.079181884765625,1.2046253681182861,0.21380266547203064,0.17226386070251465
1789033873744107300,7.089107177734375,0.9896009564399719,-0.07819069176912308,0.17226386070251465
1789033873754032400,7.099032470703125,0.851545512676239,-0.24556763470172882,0.17348559200763702
1789033873763957500,7.10895751953125,0.7904590368270874,-0.40317076444625854,0.11362084746360779
1789033873773883000,7.1188828125,0.7244856357574463,-0.49968740344047546,0.06475166976451874
1789033873783808000,7.12880810546875,0.6194168925285339,-0.43004879355430603,0.056199558079242706
1789033873793733400,7.1387333984375,0.5192350745201111,-0.30054548382759094,0.06963858753442764
1789033873803658800,7.14865869140625,0.42882707715034485,-0.26511532068252563,0.08674279600381851
1789033873813584000,7.158583984375,0.3249800503253937,-0.35796675086021423,0.11239911615848541
1789033873823509200,7.16850927734375,0.1698204129934311,-0.5351175665855408,0.10995566099882126
1789033873833434400,7.178434326171875,-0.006108647678047419,-0.647516667842865,0.06597339361906052
1789033873843359700,7.18835986328125,-0.15149445831775665,-0.7574723362922668,-0.012217295356094837
1789033873853284900,7.198284912109375,-0.2675587832927704,-0.8381064534187317,-0.10995566099882126
1789033873863210200,7.208210205078125,-0.3555232882499695,-0.7513636946678162,-0.1795942485332489
1789033873873135400,7.21813525390625,-0.4263836145401001,-0.6169734001159668,-0.20769402384757996
1789033873883060500,7.228060546875,-0.5033525824546814,-0.4007273018360138,-0.20647229254245758
1789033873892985900,7.23798583984375,-0.5668824911117554,-0.1185077652335167,-0.16859868168830872
1789033873902911000,7.247910888671875,-0.685390293598175,0.1539379209280014,-0.11728604137897491
1789033873912836000,7.257836181640625,-0.813671886920929,0.22357651591300964,-0.1026252806186676
1789033873922761500,7.267761474609375,-0.8930842876434326,0.13072505593299866,-0.12950333952903748
1789033873932686600,7.2776865234375,-0.9260709881782532,0.04276053607463837,-0.13561198115348816
1789033873942611700,7.28761181640625,-0.9517273306846619,-0.08307760953903198,-0.13439024984836578
1789033873952537000,7.297537109375,-0.962722897529602,-0.2052505612373352,-0.14660754799842834
1789033873962462200,7.307462158203125,-1.000596523284912,-0.3481929302215576,-0.15638138353824615
1789033873972387300,7.31738720703125,-1.071456789970398,-0.3836230933666229,-0.16859868168830872
1789033873982312700,7.327312744140625,-1.138651967048645,-0.3139844834804535,-0.1649334877729416
1789033873992237800,7.33723779296875,-1.2253947257995605,-0.18203771114349365,-0.13927717506885529
1789033874002163000,7.347162841796875,-1.323133111000061,-0.09529490768909454,-0.13683371245861053
1789033874012088300,7.35708837890625,-1.3878847360610962,-0.14538581669330597,-0.19792018830776215
1789033874022013400,7.367013427734375,-1.4184280633926392,-0.30543237924575806,-0.32009315490722656
1789033874031938600,7.3769384765625,-1.4159845113754272,-0.3543015718460083,-0.4105011224746704
1789033874041864000,7.386864013671875,-1.4049890041351318,-0.29565855860710144,-0.38240134716033936
1789033874051789000,7.3967890625,-1.4563016891479492,-0.13683371245861053,-0.3433060050010681
1789033874061714400,7.40671435546875,-1.5760310888290405,-0.03298669680953026,-0.3897317349910736
1789033874071639600,7.4166396484375,-1.6627739667892456,-0.1185077652335167,-0.4520399272441864
1789033874081565000,7.42656494140625,-1.6982040405273438,-0.2712239623069763,-0.42394015192985535
1789033874091490000,7.436489990234375,-1.7458515167236328,-0.3237583339214325,-0.36651885509490967
1789033874101415400,7.44641552734375,-1.8069380521774292,-0.22724169492721558,-0.3640754222869873
1789033874111340500,7.456340576171875,-1.858250617980957,-0.059864748269319534,-0.4105011224746704
1789033874121266000,7.466265869140625,-1.896124243736267,0.013439024798572063,-0.3958403766155243
1789033874131191300,7.47619140625,-1.9107850790023804,-0.16859868168830872,-0.31642794609069824
1789033874141116400,7.486116455078125,-1.8924590349197388,-0.5400044918060303,-0.28466299176216125
1789033874151041800,7.496041748046875,-1.8704679012298584,-0.7623592615127563,-0.3078758418560028
1789033874160967000,7.505966796875,-1.8374812602996826,-0.6695078015327454,-0.3017672002315521
1789033874170892000,7.51589208984375,-1.8032728433609009,-0.3396408259868622,-0.21258094906806946
1789033874180817200,7.525817138671875,-1.6615521907806396,-0.05497783049941063,-0.059864748269319534
1789033874190742300,7.5357421875,-1.450192928314209,0.07330377399921417,0.11362084746360779
1789033874200667400,7.54566748046875,-1.2486076354980469,0.056199558079242706,0.25411975383758545
1789033874210592500,7.555592529296875,-1.0494656562805176,-0.043982263654470444,0.3249800503253937
1789033874220518000,7.565517822265625,-0.8772017955780029,-0.13927717506885529,0.32131487131118774
1789033874230443000,7.575443115234375,-0.7220421433448792,-0.13927717506885529,0.28466299176216125
1789033874240368000,7.5853681640625,-0.5595521330833435,-0.03543015569448471,0.29443681240081787
1789033874250293200,7.595293212890625,-0.3799578845500946,0.07086031138896942,0.3738492429256439
1789033874260218400,7.60521826171875,-0.16859868168830872,0.1649334877729416,0.39217519760131836
1789033874270143700,7.615143798828125,0.05497783049941063,0.24434591829776764,0.3298669755458832
1789033874280068900,7.62506884765625,0.277332603931427,0.31520622968673706,0.2516762912273407
1789033874289994000,7.634993896484375,0.5106829404830933,0.3652971386909485,0.20769402384757996
1789033874299919400,7.64491943359375,0.7562506198883057,0.3909534513950348,0.19914191961288452
1789033874309844500,7.654844482421875,0.9834923148155212,0.4789179861545563,0.17348559200763702
1789033874319769600,7.66476953125,1.1789690256118774,0.5998691916465759,0.12461641430854797
1789033874329695000,7.674695068359375,1.3561197519302368,0.7024945020675659,0.0818558782339096
1789033874339620000,7.6846201171875,1.5344923734664917,0.7819069027900696,0.036651886999607086
1789033874349545500,7.69454541015625,1.6627739667892456,0.7953459620475769,-0.007330377586185932
1789033874359470600,7.704470703125,1.7421863079071045,0.8075632452964783,0.001221729558892548
1789033874369395700,7.714395751953125,1.8191553354263306,0.8283326625823975,0.03543015569448471
1789033874379321000,7.724321044921875,1.887572169303894,0.8637627959251404,0.03543015569448471
1789033874389246200,7.73424609375,1.9413282871246338,0.8356630206108093,0.04153880476951599
1789033874399171300,7.74417138671875,1.9547673463821411,0.7318159937858582,0.05497783049941063
1789033874409096700,7.7540966796875,1.9804235696792603,0.6181951761245728,0.03298669680953026
1789033874419021800,7.764021728515625,2.023184061050415,0.516791582107544,0.009773836471140385
1789033874428947000,7.773947021484375,2.0439536571502686,0.4679224193096161,0.02932151034474373
1789033874438872300,7.783872314453125,2.0378448963165283,0.5033525824546814,0.05864302068948746
1789033874448797400,7.79379736328125,2.042731761932373,0.5607738494873047,0.06108647957444191
1789033874458722800,7.803722900390625,2.0476186275482178,0.5778780579566956,0.06963858753442764
1789033874468648000,7.81364794921875,2.042731761932373,0.6389645338058472,0.10140355676412582
1789033874478573300,7.8235732421875,1.9767584800720215,0.7195987105369568,0.11484257876873016
1789033874488498400,7.83349853515625,1.9193371534347534,0.7635809779167175,0.15027274191379547
1789033874498423800,7.843423828125,1.8668028116226196,0.6829468011856079,0.1893680840730667
1789033874508349000,7.853348876953125,1.7812817096710205,0.5619956254959106,0.19669845700263977
1789033874518274300,7.8632744140625,1.6701042652130127,0.5290089249610901,0.18692462146282196
1789033874528199400,7.873199462890625,1.5528182983398438,0.3555232882499695,0.16737695038318634
1789033874538124800,7.883124755859375,1.3988803625106812,0.07574722915887833,0.15515965223312378
1789033874548050000,7.8930498046875,1.2388337850570679,-0.05253437161445618,0.16004657745361328
1789033874557975300,7.902975341796875,1.091004490852356,0.0256563201546669,0.17348559200763702
1789033874567900700,7.912900634765625,0.9505056142807007,0.04764745384454727,0.18203771114349365
1789033874577825800,7.92282568359375,0.8148936033248901,0.017104214057326317,0.1795942485332489
1789033874587751200,7.932751220703125,0.6817250847816467,-0.10384701192378998,0.18081597983837128
1789033874597676300,7.94267626953125,0.554665207862854,-0.24312418699264526,0.20158538222312927
1789033874607601700,7.9526015625,0.4214966893196106,-0.36651885509490967,0.2101374864578247
1789033874617526800,7.96252685546875,0.2883281707763672,-0.516791582107544,0.2052505612373352
1789033874627452200,7.9724521484375,0.18570289015769958,-0.5839866995811462,0.19303326308727264
1789033874637377300,7.982377197265625,0.09896009415388107,-0.5815432667732239,0.17715078592300415
1789033874647302700,7.992302734375,-0.006108647678047419,-0.647516667842865,0.14660754799842834
1789033874657227800,8.002227783203125,-0.14660754799842834,-0.8026763200759888,0.08674279600381851
1789033874667153000,8.01215283203125,-0.3127627670764923,-0.9370665550231934,-0.003665188793092966
1789033874677078000,8.022078125,-0.4740310609340668,-0.924849271774292,-0.07452550530433655
1789033874687003100,8.032003173828125,-0.5925388336181641,-0.7257073521614075,-0.10506874322891235
1789033874696928500,8.041928466796875,-0.7098248600959778,-0.4373791813850403,-0.14172062277793884
1789033874706853600,8.051853515625,-0.8368847370147705,-0.08307760953903198,-0.16126830875873566
1789033874716778800,8.06177880859375,-0.924849271774292,0.11606431007385254,-0.14172062277793884
1789033874726703900,8.071703857421875,-0.9553925395011902,0.19792018830776215,-0.11972949653863907
1789033874736629000,8.08162890625,-0.9541707634925842,0.1954767256975174,-0.09651663154363632
1789033874746554000,8.09155419921875,-0.9676098227500916,0.08063415437936783,-0.08429934084415436
1789033874756479500,8.1014794921875,-0.9749401807785034,-0.12217295914888382,-0.1026252806186676
1789033874766404600,8.111404541015625,-0.9871574640274048,-0.3090975880622864,-0.1380554437637329
1789033874776330000,8.121330078125,-0.9871574640274048,-0.35185810923576355,-0.15760311484336853
1789033874786255000,8.131255126953125,-1.0225876569747925,-0.3799578845500946,-0.17348559200763702
1789033874796180200,8.14118017578125,-1.148425817489624,-0.3860665261745453,-0.21868959069252014
1789033874806105300,8.151105224609376,-1.3390156030654907,-0.3249800503253937,-0.277332603931427
1789033874816030700,8.16103076171875,-1.4746276140213013,-0.13561198115348816,-0.2712239623069763
1789033874825955800,8.170955810546875,-1.4917317628860474,0.14538581669330597,-0.21991132199764252
1789033874835881200,8.180881103515626,-1.4355322122573853,0.48502662777900696,-0.20280711352825165
1789033874845806300,8.190806396484374,-1.37078058719635,0.5314523577690125,-0.23823726177215576
1789033874855731500,8.2007314453125,-1.3817760944366455,0.08552107214927673,-0.2809978127479553
1789033874865656800,8.21065673828125,-1.4831796884536743,-0.33719736337661743,-0.318871408700943
1789033874875582000,8.22058203125,-1.588248372077942,-0.5131264328956604,-0.2883281707763672
1789033874885507000,8.230507080078125,-1.6982040405273438,-0.43371400237083435,-0.23212862014770508
1789033874895432400,8.240432373046875,-1.7983858585357666,-0.1490510106086731,-0.1905898153781891
1789033874905357600,8.250357666015624,-1.8289291858673096,0.23335035145282745,-0.17104214429855347
1789033874915282700,8.26028271484375,-1.7959424257278442,0.4043924808502197,-0.1637117564678192
1789033874925208000,8.2702080078125,-1.802051067352295,0.22968515753746033,-0.1490510106086731
1789033874935133200,8.28013330078125,-1.8264856338500977,-0.15149445831775665,-0.14294235408306122
1789033874945058300,8.290058349609374,-1.8228205442428589,-0.5424479246139526,-0.13439024984836578
1789033874954983700,8.299983642578125,-1.7702860832214355,-0.6585122346878052,-0.12095122784376144
1789033874964908800,8.30990869140625,-1.6896519660949707,-0.43982264399528503,-0.09040798991918564
1789033874974834000,8.319833984375,-1.616348147392273,-0.1649334877729416,-0.030543239787220955
1789033874984759300,8.32975927734375,-1.497840404510498,-0.04886918142437935,0.0720820426940918
1789033874994684400,8.339684326171875,-1.3390156030654907,-0.0513126403093338,0.1844811588525772
1789033875004609800,8.34960986328125,-1.176525592803955,-0.1588248461484909,0.27488914132118225
1789033875014535000,8.359534912109375,-1.0091485977172852,-0.25411975383758545,0.3249800503253937
1789033875024460000,8.3694599609375,-0.8637627959251404,-0.22235478460788727,0.277332603931427
1789033875034385400,8.379385498046876,-0.6646208763122559,-0.20891575515270233,0.26878049969673157
1789033875044310500,8.389310546875,-0.43982264399528503,-0.19669845700263977,0.3640754222869873
1789033875054235600,8.399235595703125,-0.24434591829776764,-0.09529490768909454,0.4068359434604645
1789033875064161000,8.4091611328125,-0.026878049597144127,0.15271618962287903,0.3445277214050293
1789033875074086100,8.419086181640624,0.21991132199764252,0.3433060050010681,0.27488914132118225
1789033875084011300,8.42901123046875,0.4728093445301056,0.411722868680954,0.21380266547203064
1789033875093936400,8.438936279296875,0.7171552777290344,0.35796675086021423,0.19914191961288452
1789033875103861800,8.44886181640625,0.9272927641868591,0.29077163338661194,0.20647229254245758
1789033875113787000,8.458786865234375,1.120326042175293,0.32009315490722656,0.17837251722812653
1789033875123712000,8.4687119140625,1.2705987691879272,0.35674503445625305,0.1588248461484909
1789033875133637400,8.478637451171876,1.4257583618164062,0.4862483739852905,0.1331685185432434
1789033875143562500,8.4885625,1.5906919240951538,0.6120865345001221,0.0977383628487587
1789033875153487600,8.498487548828125,1.7055344581604004,0.647516667842865,0.05497783049941063
1789033875163413000,8.5084130859375,1.7849469184875488,0.6340776681900024,0.023212861269712448
1789033875173338000,8.518338134765624,1.8802417516708374,0.6829468011856079,-0.007330377586185932
1789033875183263200,8.52826318359375,1.9755367040634155,0.758694052696228,-0.06719512492418289
1789033875193188600,8.538188720703126,2.0195188522338867,0.7770199775695801,-0.10873392969369888
1789033875203113700,8.54811376953125,2.0354013442993164,0.6792816519737244,-0.06963858753442764
1789033875213038800,8.558038818359375,2.0488405227661133,0.5815432667732239,0
1789033875222964200,8.567964111328125,2.0586142539978027,0.5632173418998718,0.050090912729501724
1789033875232889300,8.577889404296876,2.0463969707489014,0.6047561168670654,0.08674279600381851
1789033875242814500,8.587814453125,2.0244059562683105,0.6682860851287842,0.07941242307424545
1789033875252739800,8.59773974609375,2.003636360168457,0.6682860851287842,0.05253437161445618
1789033875262665000,8.6076650390625,1.9792019128799438,0.6218603253364563,0.06597339361906052
1789033875272590000,8.617590087890624,1.9596542119979858,0.6096430420875549,0.08307760953903198
1789033875282515500,8.627515380859375,1.9217805862426758,0.6499601006507874,0.09040798991918564
1789033875292440600,8.637440673828126,1.8716896772384644,0.6707295179367065,0.09651663154363632
1789033875302365700,8.64736572265625,1.831372618675232,0.6365211009979248,0.12705987691879272
1789033875312291000,8.657291015625,1.7727296352386475,0.5522217750549316,0.14294235408306122
1789033875322216200,8.66721630859375,1.635895848274231,0.3836230933666229,0.11606431007385254
1789033875332141600,8.6771416015625,1.470962405204773,0.12950333952903748,0.10506874322891235
1789033875342066700,8.687066650390625,1.3084723949432373,-0.030543239787220955,0.14538581669330597
1789033875351991800,8.69699169921875,1.1606431007385254,-0.05253437161445618,0.15515965223312378
1789033875361917000,8.7069169921875,0.9700532555580139,-0.04886918142437935,0.10018182545900345
1789033875371842000,8.716842041015624,0.7867938280105591,-0.07452550530433655,0.06230820715427399
1789033875381767400,8.726767333984375,0.667064368724823,-0.12217295914888382,0.05742128938436508
1789033875391692500,8.736692626953126,0.5668824911117554,-0.20280711352825165,0.07574722915887833
1789033875401618000,8.746617919921874,0.43982264399528503,-0.27000224590301514,0.06963858753442764
1789033875411543000,8.75654296875,0.2932150959968567,-0.39339691400527954,0.03787361457943916
1789033875421468200,8.76646826171875,0.15515965223312378,-0.5424479246139526,-0.013439024798572063
1789033875431393500,8.7763935546875,0.034208428114652634,-0.6731730103492737,-0.0818558782339096
1789033875441318700,8.786318603515625,-0.08429934084415436,-0.8674280047416687,-0.15515965223312378
1789033875451243800,8.796243896484375,-0.1954767256975174,-0.934623122215271,-0.21868959069252014
1789033875461169200,8.806169189453126,-0.2761108875274658,-0.7476984858512878,-0.25411975383758545
1789033875471094300,8.81609423828125,-0.31031930446624756,-0.5619956254959106,-0.24312418699264526
1789033875481019400,8.826019287109375,-0.3591884970664978,-0.4886918365955353,-0.22724169492721558
1789033875490944800,8.83594482421875,-0.41905322670936584,-0.3481929302215576,-0.21380266547203064
1789033875500870000,8.845869873046874,-0.481361448764801,-0.09162971377372742,-0.17837251722812653
1789033875510795000,8.855794921875,-0.5216785073280334,0.1282816082239151,-0.11484257876873016
1789033875520720100,8.86572021484375,-0.526565432548523,0.2516762912273407,-0.08063415437936783
1789033875530645500,8.8756455078125,-0.5387827157974243,0.21258094906806946,-0.11606431007385254
1789033875540570600,8.885570556640625,-0.5827649831771851,0.053756099194288254,-0.17348559200763702
1789033875550495700,8.895495849609375,-0.6365211009979248,-0.09529490768909454,-0.22968515753746033
1789033875560421000,8.905421142578126,-0.6682860851287842,-0.1698204129934311,-0.27855435013771057
1789033875570346200,8.91534619140625,-0.6719512343406677,-0.15271618962287903,-0.29443681240081787
1789033875580271400,8.925271240234375,-0.6719512343406677,-0.10751219838857651,-0.29443681240081787
1789033875590196700,8.93519677734375,-0.7171552777290344,-0.13072505593299866,-0.27977606654167175
1789033875600121900,8.945121826171874,-0.8112284541130066,-0.19181154668331146,-0.26878049969673157
1789033875610047000,8.955046875,-0.9407317638397217,-0.22968515753746033,-0.2626718580722809
1789033875619972400,8.964972412109375,-1.081230640411377,-0.1954767256975174,-0.25411975383758545
1789033875629897500,8.9748974609375,-1.1899645328521729,-0.11728604137897491,-0.22846342623233795
1789033875639822600,8.984822509765625,-1.2620465755462646,0.004886918235570192,-0.16859868168830872
1789033875649748000,8.994748046875,-1.25715970993042,0.13683371245861053,-0.07452550530433655
1789033875659673000,9.004673095703126,-1.1899645328521729,0.18325942754745483,-0.004886918235570192
1789033875669598200,9.01459814453125,-1.1313215494155884,0.09407317638397217,-0.020769402384757996
1789033875679523300,9.0245234375,-1.1056652069091797,-0.06352993845939636,-0.09285144507884979
1789033875689448700,9.03444873046875,-1.110552191734314,-0.3249800503253937,-0.15638138353824615
1789033875699373800,9.044373779296874,-1.12765634059906,-0.42271843552589417,-0.19669845700263977
1789033875709299000,9.054298828125,-1.1239912509918213,-0.27488914132118225,-0.22724169492721558
1789033875719224300,9.064224365234375,-1.1117738485336304,-0.18203771114349365,-0.3029889166355133
1789033875729149400,9.0741494140625,-1.1997383832931519,-0.2675587832927704,-0.3555232882499695
1789033875739074600,9.084074462890625,-1.3671153783798218,-0.28588470816612244,-0.3384190797805786
1789033875749000000,9.094,-1.4966187477111816,-0.11117739230394363,-0.27366742491722107
1789033875758925000,9.103925048828126,-1.5479313135147095,0.1905898153781891,-0.2052505612373352
1789033875768850200,9.11385009765625,-1.5430444478988647,0.3909534513950348,-0.16737695038318634
1789033875778775300,9.123775390625,-1.525940179824829,0.4202749729156494,-0.14660754799842834
1789033875788700700,9.13370068359375,-1.5149446725845337,0.2577849328517914,-0.13194678723812103
1789033875798625800,9.143625732421874,-1.4758492708206177,0.030543239787220955,-0.13439024984836578
1789033875808551000,9.153551025390625,-1.4306453466415405,-0.13927717506885529,-0.13927717506885529
1789033875818476300,9.163476318359375,-1.390328288078308,-0.22968515753746033,-0.15027274191379547
1789033875828401400,9.1734013671875,-1.4172062873840332,-0.28466299176216125,-0.16737695038318634
1789033875838326500,9.183326416015625,-1.4624103307724,-0.28588470816612244,-0.1490510106086731
1789033875848252000,9.193251953125,-1.4257583618164062,-0.2614501118659973,-0.09162971377372742
1789033875858177000,9.203177001953126,-1.3182462453842163,-0.2932150959968567,-0.010995565913617611
1789033875868102100,9.21310205078125,-1.2290599346160889,-0.3066541254520416,0.06352993845939636
1789033875878027300,9.22302734375,-1.147204041481018,-0.2370155304670334,0.06352993845939636
1789033875887952600,9.23295263671875,-1.0348049402236938,-0.15271618962287903,0.050090912729501724
1789033875897877800,9.242877685546874,-0.9004147052764893,-0.12095122784376144,0.09040798991918564
1789033875907803000,9.252802978515625,-0.7733548283576965,-0.1026252806186676,0.17837251722812653
1789033875917728300,9.262728271484375,-0.6023126840591431,-0.14660754799842834,0.2528980076313019
1789033875927653400,9.2726533203125,-0.44837474822998047,-0.09040798991918564,0.23457208275794983
1789033875937578800,9.282578857421875,-0.2981020212173462,0.06352993845939636,0.15271618962287903
1789033875947503900,9.29250390625,-0.12217295914888382,0.15271618962287903,0.1747073233127594
1789033875957429000,9.302428955078126,0.0720820426940918,0.2052505612373352,0.2565632164478302
1789033875967354000,9.31235400390625,0.23457208275794983,0.277332603931427,0.2467893660068512
1789033875977279200,9.322279296875,0.3750709891319275,0.36285367608070374,0.14782927930355072
1789033875987204600,9.33220458984375,0.5033525824546814,0.4324922561645508,0.028099779039621353
1789033875997129700,9.342129638671874,0.6304124593734741,0.4776962697505951,-0.0513126403093338
1789033876007055000,9.35205517578125,0.7623592615127563,0.5229002237319946,-0.07574722915887833
1789033876016980200,9.361980224609376,0.9040798544883728,0.49113526940345764,-0.07452550530433655
1789033876026905300,9.3719052734375,1.0286962985992432,0.4007273018360138,-0.06963858753442764
1789033876036830500,9.38183056640625,1.1459823846817017,0.3384190797805786,-0.0818558782339096
1789033876046755600,9.391755615234375,1.2253947257995605,0.3384190797805786,-0.11239911615848541
1789033876056681000,9.401680908203126,1.3011419773101807,0.3909534513950348,-0.1331685185432434
1789033876066606000,9.411606201171875,1.4074324369430542,0.5082395076751709,-0.14049890637397766
1789033876076531500,9.421531494140625,1.5051708221435547,0.6340776681900024,-0.16004657745361328
1789033876086456600,9.43145654296875,1.5919135808944702,0.6621774435043335,-0.1539379209280014
1789033876096381700,9.441381591796874,1.6420044898986816,0.6304124593734741,-0.12217295914888382
1789033876106307000,9.45130712890625,1.6493349075317383,0.5949822664260864,-0.11484257876873016
1789033876116232200,9.461232177734376,1.6615521907806396,0.544891357421875,-0.13927717506885529
1789033876126157300,9.4711572265625,1.6627739667892456,0.4874700903892517,-0.16126830875873566
1789033876136082400,9.48108251953125,1.6725478172302246,0.4935787320137024,-0.18325942754745483
1789033876146007800,9.4910078125,1.684765100479126,0.5253437161445618,-0.20158538222312927
1789033876155933000,9.500932861328126,1.6884303092956543,0.5314523577690125,-0.1954767256975174
1789033876165858000,9.510858154296875,1.6969823837280273,0.4923570156097412,-0.18325942754745483
1789033876175783400,9.520783447265625,1.693317174911499,0.45937031507492065,-0.17592905461788177
1789033876185708500,9.53070849609375,1.673769474029541,0.4312705397605896,-0.15271618962287903
1789033876195633700,9.540633544921874,1.6420044898986816,0.38240134716033936,-0.11117739230394363
1789033876205558800,9.550558837890625,1.5894701480865479,0.3335321843624115,-0.07330377399921417
1789033876215484200,9.560484130859376,1.5968005657196045,0.3347539007663727,-0.03298669680953026
1789033876225409300,9.5704091796875,1.6041308641433716,0.34086254239082336,-0.013439024798572063
1789033876235334400,9.58033447265625,1.5381574630737305,0.2528980076313019,-0.03176496922969818
1789033876245259800,9.590259765625,1.4538581371307373,0.19181154668331146,-0.06963858753442764
1789033876255185000,9.600184814453126,1.4037672281265259,0.21746785938739777,-0.06475166976451874
1789033876265110000,9.610110107421875,1.3585633039474487,0.24312418699264526,-0.026878049597144127
1789033876275035100,9.62003515625,1.2486076354980469,0.13683371245861053,0.004886918235570192
1789033876284960500,9.62996044921875,1.1533126831054688,0.07452550530433655,0.026878049597144127
1789033876294885600,9.6398857421875,1.0775654315948486,0.09651663154363632,0.030543239787220955
1789033876304810800,9.649810791015625,0.9566142559051514,0.03176496922969818,-0.001221729558892548
1789033876314736000,9.659736083984376,0.8454368710517883,-0.050090912729501724,-0.006108647678047419
1789033876324661200,9.6696611328125,0.7745765447616577,-0.15149445831775665,0.024434590712189674
1789033876334586400,9.67958642578125,0.6927206516265869,-0.2675587832927704,0.0513126403093338
1789033876344511500,9.689511474609375,0.5839866995811462,-0.33719736337661743,0.04764745384454727
1789033876354436900,9.699436767578124,0.4838049113750458,-0.35674503445625305,0.043982263654470444
1789033876364362000,9.709362060546875,0.37629270553588867,-0.3481929302215576,0.0513126403093338
1789033876374287000,9.719287109375,0.27855435013771057,-0.36163195967674255,0.05742128938436508
1789033876384212500,9.72921240234375,0.19303326308727264,-0.41905322670936584,0.05497783049941063
1789033876394137600,9.7391376953125,0.12217295914888382,-0.5192350745201111,0.043982263654470444
1789033876404062700,9.749062744140625,0.04764745384454727,-0.6524035930633545,0.014660755172371864
1789033876413987800,9.75898779296875,-0.0513126403093338,-0.8295543789863586,-0.05497783049941063
1789033876423913200,9.768913330078124,-0.16859868168830872,-0.8930842876434326,-0.1185077652335167
1789033876433838300,9.77883837890625,-0.27000224590301514,-0.7061597108840942,-0.12705987691879272
1789033876443763500,9.788763427734375,-0.3481929302215576,-0.401949018239975,-0.10384701192378998
1789033876453688600,9.7986884765625,-0.4202749729156494,-0.10384701192378998,-0.08918625861406326
1789033876463614000,9.808614013671875,-0.481361448764801,0.06719512492418289,-0.08796452730894089
1789033876473539000,9.8185390625,-0.5400044918060303,0.1588248461484909,-0.10018182545900345
1789033876483464200,9.828464111328126,-0.5717694163322449,0.1954767256975174,-0.1282816082239151
1789033876493389600,9.8383896484375,-0.5754346251487732,0.14294235408306122,-0.1747073233127594
1789033876503314700,9.848314697265625,-0.5778780579566956,-0.0513126403093338,-0.21135921776294708
1789033876513239800,9.85823974609375,-0.5839866995811462,-0.25900667905807495,-0.21258094906806946
1789033876523165000,9.8681650390625,-0.6023126840591431,-0.38728827238082886,-0.22235478460788727
1789033876533090300,9.87809033203125,-0.6291907429695129,-0.3995055556297302,-0.2467893660068512
1789033876543015400,9.888015380859375,-0.6695078015327454,-0.3750709891319275,-0.26022839546203613
1789033876552940500,9.8979404296875,-0.7073814272880554,-0.31642794609069824,-0.26389357447624207
1789033876562866000,9.907865966796875,-0.7391464114189148,-0.22235478460788727,-0.2577849328517914
1789033876572791000,9.917791015625,-0.7696896195411682,-0.16737695038318634,-0.23823726177215576
1789033876582716200,9.927716064453126,-0.8210022449493408,-0.24801109731197357,-0.21502439677715302
1789033876592641300,9.937641357421874,-0.9065233469009399,-0.3958403766155243,-0.20891575515270233
1789033876602566700,9.947566650390625,-0.9859357476234436,-0.5057960152626038,-0.235793799161911
1789033876612491800,9.95749169921875,-1.0739002227783203,-0.5864301919937134,-0.27366742491722107
1789033876622417000,9.9674169921875,-1.1777472496032715,-0.6304124593734741,-0.30543237924575806
1789033876632342000,9.977342041015625,-1.2828160524368286,-0.554665207862854,-0.33719736337661743
1789033876642267400,9.987267333984375,-1.3365721702575684,-0.3970620930194855,-0.360410213470459
1789033876652192500,9.997192626953124,-1.3206896781921387,-0.2003636509180069,-0.3481929302215576
1789033876662117600,10.00711767578125,-1.25715970993042,-0.053756099194288254,-0.3042106628417969
1789033876672042800,10.017042724609375,-1.1899645328521729,0.04153880476951599,-0.2834412455558777
1789033876681968000,10.026968017578126,-1.1728603839874268,-0.024434590712189674,-0.287106454372406
1789033876691893200,10.036893310546875,-1.2107340097427368,-0.18570289015769958,-0.24801109731197357
1789033876701818400,10.046818359375,-1.2449424266815186,-0.2712239623069763,-0.21868959069252014
1789033876711743700,10.05674365234375,-1.2889246940612793,-0.2577849328517914,-0.23212862014770508
1789033876721668900,10.0666689453125,-1.321911334991455,-0.18203771114349365,-0.2528980076313019
1789033876731594000,10.076593994140625,-1.3439024686813354,-0.05497783049941063,-0.2467893660068512
1789033876741519000,10.08651904296875,-1.380554437637329,0.03543015569448471,-0.23335035145282745
1789033876751444500,10.096444580078124,-1.4550799131393433,-0.04276053607463837,-0.2370155304670334
1789033876761369600,10.10636962890625,-1.527161955833435,-0.16859868168830872,-0.2370155304670334
1789033876771294700,10.116294677734375,-1.5063925981521606,-0.20402882993221283,-0.1844811588525772
1789033876781220000,10.12622021484375,-1.4379756450653076,-0.13561198115348816,-0.11362084746360779
1789033876791145200,10.136145263671875,-1.3793326616287231,-0.034208428114652634,-0.06719512492418289
1789033876801070300,10.1460703125,-1.3732240200042725,0,-0.05742128938436508
1789033876810995500,10.155995361328126,-1.4013237953186035,-0.08307760953903198,-0.06841685622930527
1789033876820920800,10.1659208984375,-1.3451242446899414,-0.2761108875274658,-0.06963858753442764
1789033876830846000,10.175845947265625,-1.2596031427383423,-0.48502662777900696,-0.03787361457943916
1789033876840771000,10.18577099609375,-1.1704169511795044,-0.5229002237319946,-0.010995565913617611
1789033876850696200,10.1956962890625,-1.0580178499221802,-0.3225366175174713,0.002443459117785096
1789033876860621300,10.205621337890625,-0.962722897529602,-0.06963858753442764,0.028099779039621353
1789033876870546700,10.215546630859375,-0.8625410795211792,0.13072505593299866,0.06719512492418289
1789033876880471800,10.225471923828126,-0.7049379348754883,0.1844811588525772,0.12705987691879272
1789033876890397000,10.23539697265625,-0.5632173418998718,0.13439024984836578,0.2052505612373352
1789033876900322000,10.245322021484375,-0.4202749729156494,0.09040798991918564,0.24801109731197357
1789033876910247400,10.255247314453126,-0.2626718580722809,0.09407317638397217,0.21746785938739777
1789033876920172500,10.265172607421874,-0.10873392969369888,0.13927717506885529,0.18081597983837128
1789033876930097700,10.27509765625,0.036651886999607086,0.2101374864578247,0.2101374864578247
1789033876940022800,10.285022705078125,0.1905898153781891,0.2883281707763672,0.22724169492721558
1789033876949948200,10.2949482421875,0.3396408259868622,0.3591884970664978,0.1954767256975174
1789033876959873300,10.304873291015625,0.4972439408302307,0.4007273018360138,0.15515965223312378
1789033876969798400,10.31479833984375,0.6450732350349426,0.3543015718460083,0.15515965223312378
1789033876979723500,10.3247236328125,0.748920202255249,0.2932150959968567,0.14294235408306122
1789033876989649000,10.33464892578125,0.8491020202636719,0.277332603931427,0.1233946830034256
1789033876999574000,10.344573974609375,0.9786053895950317,0.29077163338661194,0.10995566099882126
1789033877009499100,10.3544990234375,1.109330415725708,0.3139844834804535,0.09040798991918564
1789033877019424500,10.364424560546874,1.2192860841751099,0.3029889166355133,0.07574722915887833
1789033877029349600,10.374349609375,1.296255111694336,0.30054548382759094,0.046425722539424896
1789033877039274800,10.384274658203125,1.362228512763977,0.3860665261745453,-0.004886918235570192
1789033877049199900,10.394199951171874,1.461188554763794,0.5021308660507202,-0.018325943499803543
1789033877059125200,10.404125244140625,1.5711442232131958,0.554665207862854,0.012217295356094837
1789033877069050400,10.41405029296875,1.6505566835403442,0.5790998339653015,0.036651886999607086
1789033877078975500,10.4239755859375,1.666439175605774,0.5656607747077942,0.04764745384454727
1789033877088900600,10.433900634765624,1.6762129068374634,0.5766563415527344,0.04764745384454727
1789033877098826000,10.443825927734375,1.7006475925445557,0.6841685771942139,0.014660755172371864
1789033877108751000,10.453751220703126,1.7250821590423584,0.7953459620475769,0.002443459117785096
1789033877118676200,10.46367626953125,1.7299690246582031,0.7843503952026367,0.023212861269712448
1789033877128601300,10.473601318359375,1.692095398902893,0.5888736248016357,0.06719512492418289
1789033877138526700,10.483526611328125,1.6615521907806396,0.3689623177051544,0.0977383628487587
1789033877148451800,10.493451904296874,1.663995623588562,0.3090975880622864,0.06108647957444191
1789033877158377000,10.503376953125,1.6615521907806396,0.3848448097705841,0.017104214057326317
1789033877168302000,10.513302001953125,1.665217399597168,0.5583304166793823,0.003665188793092966
1789033877178227500,10.5232275390625,1.6591087579727173,0.6866120100021362,-0.017104214057326317
1789033877188152600,10.533152587890624,1.6236785650253296,0.5974257588386536,0.004886918235570192
1789033877198077700,10.54307763671875,1.5650355815887451,0.4276053309440613,0.034208428114652634
1789033877208003000,10.553003173828126,1.4782928228378296,0.33231043815612793,0.021991131827235222
1789033877217928200,10.56292822265625,1.4355322122573853,0.34086254239082336,0.030543239787220955
1789033877227853300,10.572853271484375,1.4404191970825195,0.411722868680954,0.030543239787220955
1789033877237778400,10.5827783203125,1.4233149290084839,0.4740310609340668,0.050090912729501724
1789033877247703600,10.59270361328125,1.37078058719635,0.3909534513950348,0.08307760953903198
1789033877257629000,10.60262890625,1.3084723949432373,0.23212862014770508,0.11362084746360779
1789033877267554000,10.612553955078125,1.2107340097427368,0.07086031138896942,0.1380554437637329
1789033877277479200,10.622479248046876,1.062904715538025,-0.020769402384757996,0.13683371245861053
1789033877287404300,10.632404296875,0.8759800791740417,-0.06352993845939636,0.10506874322891235
1789033877297329700,10.64232958984375,0.7464767694473267,-0.10018182545900345,0.09529490768909454
1789033877307254800,10.6522548828125,0.6524035930633545,-0.18570289015769958,0.10018182545900345
1789033877317180000,10.662179931640624,0.5424479246139526,-0.2809978127479553,0.10629047453403473
1789033877327105000,10.67210498046875,0.3799578845500946,-0.44837474822998047,0.11484257876873016
1789033877337030400,10.682030517578125,0.2370155304670334,-0.526565432548523,0.16737695038318634
1789033877346955500,10.69195556640625,0.15271618962287903,-0.49480047821998596,0.20158538222312927
1789033877356880600,10.701880615234375,0.09529490768909454,-0.471587598323822,0.2052505612373352
1789033877366805800,10.7118056640625,0.04276053607463837,-0.5070177912712097,0.1954767256975174
1789033877376731100,10.721731201171876,-0.023212861269712448,-0.6194168925285339,0.17348559200763702
1789033877386656300,10.73165625,-0.10384701192378998,-0.730594277381897,0.14782927930355072
1789033877396581400,10.741581298828125,-0.1844811588525772,-0.8356630206108093,0.10873392969369888
1789033877406506500,10.751506591796876,-0.26022839546203613,-0.9370665550231934,0.056199558079242706
1789033877416431900,10.761431884765624,-0.3335321843624115,-0.9101884961128235,0
1789033877426357000,10.77135693359375,-0.4202749729156494,-0.7244856357574463,-0.050090912729501724
1789033877436282000,10.7812822265625,-0.5229002237319946,-0.4728093445301056,-0.10140355676412582
1789033877446207200,10.791207275390626,-0.6511818766593933,-0.25411975383758545,-0.15149445831775665
1789033877456132600,10.801132568359375,-0.7965676784515381,0.002443459117785096,-0.1698204129934311
1789033877466057700,10.8110576171875,-0.8833104968070984,0.10384701192378998,-0.1282816082239151
1789033877475982800,10.82098291015625,-0.8955277800559998,0.0818558782339096,-0.09285144507884979
1789033877485908000,10.830907958984374,-0.8747583627700806,-0.021991131827235222,-0.07819069176912308
1789033877495833000,10.8408330078125,-0.8246674537658691,-0.09040798991918564,-0.036651886999607086
1789033877505758500,10.850758544921876,-0.7672461867332458,-0.19792018830776215,0.008552107028663158
1789033877515683600,10.86068359375,-0.7354812026023865,-0.3042106628417969,0.040317077189683914
1789033877525608700,10.870608642578125,-0.7464767694473267,-0.4630354940891266,0.04276053607463837
1789033877535533800,10.880533935546875,-0.8087849617004395,-0.5986474752426147,0.010995565913617611
1789033877545459200,10.890459228515626,-0.9016364216804504,-0.6646208763122559,-0.04276053607463837
1789033877555384300,10.90038427734375,-1.0482439994812012,-0.6438514590263367,-0.09529490768909454
1789033877565309400,10.910309326171875,-1.1435388326644897,-0.46425724029541016,-0.09040798991918564
1789033877575234600,10.920234619140626,-1.2644901275634766,-0.19425499439239502,-0.12095122784376144
1789033877585160000,10.930159912109374,-1.3536763191223145,-0.08552107214927673,-0.19425499439239502
1789033877595085000,10.9400849609375,-1.331685185432434,-0.16615521907806396,-0.21746785938739777
1789033877605010200,10.95001025390625,-1.2388337850570679,-0.29565855860710144,-0.1490510106086731
1789033877614935300,10.959935302734374,-1.1129956245422363,-0.45448338985443115,-0.053756099194288254
1789033877624860700,10.969860595703125,-0.9480621218681335,-0.5693259835243225,-0.05253437161445618
1789033877634785800,10.979785888671875,-0.8026763200759888,-0.47525280714035034,-0.08307760953903198
1789033877644711000,10.9897109375,-0.8124501705169678,-0.24923282861709595,-0.0720820426940918
1789033877654636000,10.999635986328125,-0.915075421333313,-0.05742128938436508,-0.09407317638397217
1789033877664561400,11.0095615234375,-0.9382883310317993,0.15271618962287903,-0.1282816082239151
1789033877674486500,11.019486572265626,-0.8967494964599609,0.3481929302215576,-0.2003636509180069
1789033877684411600,11.02941162109375,-0.8943060636520386,0.31031930446624756,-0.34574946761131287
1789033877694336800,11.039336669921875,-0.9676098227500916,-0.036651886999607086,-0.4166097939014435
1789033877704262000,11.049261962890625,-1.0677915811538696,-0.46425724029541016,-0.3530798554420471
1789033877714187300,11.059187255859374,-1.1081087589263916,-0.5803215503692627,-0.20769402384757996
1789033877724112400,11.0691123046875,-1.0848958492279053,-0.29077163338661194,-0.10140355676412582
1789033877734037500,11.07903759765625,-1.071456789970398,0.20402882993221283,-0.13439024984836578
1789033877743962600,11.088962646484376,-1.2302817106246948,0.5937605500221252,-0.23335035145282745
1789033877753888000,11.098887939453125,-1.3976585865020752,0.7476984858512878,-0.28954991698265076
1789033877763813000,11.108813232421875,-1.488066554069519,0.6096430420875549,-0.24923282861709595
1789033877773738200,11.11873828125,-1.4563016891479492,0.37751442193984985,-0.1649334877729416
1789033877783663400,11.128663330078124,-1.3695588111877441,0.07452550530433655,-0.10995566099882126
1789033877793588700,11.138588623046875,-1.2681553363800049,-0.14172062277793884,-0.08429934084415436
1789033877803513900,11.148513916015625,-1.1447606086730957,-0.22968515753746033,-0.03176496922969818
1789033877813439000,11.15843896484375,-1.0311397314071655,-0.25045454502105713,0.023212861269712448
1789033877823364000,11.168364013671875,-0.9358448386192322,-0.21258094906806946,0.06352993845939636
1789033877833289500,11.17828955078125,-0.8429933786392212,-0.13683371245861053,0.10995566099882126
1789033877843214600,11.188214599609376,-0.7269290685653687,0.007330377586185932,0.1954767256975174
1789033877853139700,11.1981396484375,-0.6023126840591431,0.18692462146282196,0.24434591829776764
1789033877863064800,11.20806494140625,-0.4923570156097412,0.3225366175174713,0.21868959069252014
1789033877872990000,11.217989990234376,-0.35674503445625305,0.3237583339214325,0.21380266547203064
1789033877882915000,11.2279150390625,-0.1954767256975174,0.21868959069252014,0.21991132199764252
1789033877892840400,11.23784033203125,-0.03787361457943916,0.12095122784376144,0.17715078592300415
1789033877902765600,11.247765625,0.10629047453403473,0.08552107214927673,0.13561198115348816
1789033877912690700,11.257690673828124,0.25045454502105713,0.07330377399921417,0.1441640853881836
1789033877922615800,11.26761572265625,0.3836230933666229,0.10018182545900345,0.18081597983837128
1789033877932541200,11.277541259765625,0.5253437161445618,0.16126830875873566,0.21868959069252014
1789033877942466300,11.28746630859375,0.6646208763122559,0.20280711352825165,0.235793799161911
1789033877952391400,11.297391357421875,0.7770199775695801,0.2052505612373352,0.21135921776294708
1789033877962316500,11.307316650390625,0.8662062287330627,0.18325942754745483,0.18692462146282196
1789033877972241700,11.31724169921875,0.9688315391540527,0.20769402384757996,0.17226386070251465
1789033877982167000,11.3271669921875,1.0763437747955322,0.2834412455558777,0.14660754799842834
1789033877992092200,11.337092041015625,1.1875211000442505,0.370184063911438,0.15149445831775665
1789033878002017300,11.347017333984375,1.2877029180526733,0.4630354940891266,0.1698204129934311
1789033878011942400,11.3569423828125,1.351232886314392,0.4935787320137024,0.1637117564678192
1789033878021867800,11.36686767578125,1.3793326616287231,0.3909534513950348,0.15515965223312378
1789033878031793000,11.37679296875,1.4049890041351318,0.3335321843624115,0.12461641430854797
1789033878041718000,11.386718017578126,1.4563016891479492,0.38240134716033936,0.08796452730894089
1789033878051643100,11.39664306640625,1.5063925981521606,0.4776962697505951,0.07452550530433655
1789033878061568300,11.406568359375,1.528383731842041,0.5180133581161499,0.05742128938436508
1789033878071493600,11.41649365234375,1.5503748655319214,0.5094612240791321,0.03176496922969818
1789033878081418800,11.426418701171874,1.5735876560211182,0.4373791813850403,0.03787361457943916
1789033878091344000,11.43634375,1.6249003410339355,0.3995055556297302,0.07086031138896942
1789033878101269000,11.44626904296875,1.654221773147583,0.4862483739852905,0.0818558782339096
1789033878111194400,11.4561943359375,1.655443549156189,0.6340776681900024,0.08307760953903198
1789033878121119500,11.466119384765625,1.6407828330993652,0.6829468011856079,0.050090912729501724
1789033878131044600,11.476044677734375,1.5955787897109985,0.6511818766593933,0.007330377586185932
1789033878140969700,11.4859697265625,1.546709656715393,0.6414080262184143,-0.06108647957444191
1789033878150894800,11.495894775390624,1.5100576877593994,0.6805033683776855,-0.12705987691879272
1789033878160820000,11.505820068359375,1.4819579124450684,0.6731730103492737,-0.14172062277793884
1789033878170745000,11.5157451171875,1.470962405204773,0.6365211009979248,-0.09285144507884979
1789033878180670500,11.52567041015625,1.4489712715148926,0.6585122346878052,-0.05497783049941063
1789033878190595600,11.535595703125,1.4440842866897583,0.7415898442268372,-0.036651886999607086
1789033878200520700,11.545520751953125,1.4355322122573853,0.7293725609779358,-0.06719512492418289
1789033878210445800,11.55544580078125,1.3695588111877441,0.5338957905769348,-0.08307760953903198
1789033878220371000,11.565370849609375,1.275485634803772,0.37629270553588867,-0.09407317638397217
1789033878230296000,11.575296142578125,1.1777472496032715,0.3689623177051544,-0.10995566099882126
1789033878240221200,11.58522119140625,1.1398736238479614,0.42271843552589417,-0.07452550530433655
1789033878250146600,11.595146484375,1.120326042175293,0.360410213470459,-0.036651886999607086
1789033878260071700,11.60507177734375,1.0506874322891235,0.16126830875873566,-0.04520399495959282
1789033878269996800,11.614996826171875,0.9089667797088623,-0.04153880476951599,-0.0818558782339096
1789033878279922000,11.624921875,0.7269290685653687,-0.10995566099882126,-0.08674279600381851
1789033878289847000,11.634846923828125,0.6181951761245728,-0.08918625861406326,-0.036651886999607086
1789033878299772200,11.644772216796875,0.5754346251487732,-0.10384701192378998,-0.002443459117785096
1789033878309697300,11.654697265625,0.5082395076751709,-0.2516762912273407,-0.004886918235570192
1789033878319622700,11.66462255859375,0.40317076444625854,-0.4459312856197357,-0.023212861269712448
1789033878329547800,11.6745478515625,0.2883281707763672,-0.46914416551589966,-0.018325943499803543
1789033878339473000,11.684472900390626,0.19914191961288452,-0.41783151030540466,0.018325943499803543
1789033878349398000,11.69439794921875,0.09407317638397217,-0.5241219997406006,0.026878049597144127
1789033878359323400,11.704323486328125,-0.040317077189683914,-0.720820426940918,-0.017104214057326317
1789033878369248500,11.71424853515625,-0.1747073233127594,-0.8686497211456299,-0.09285144507884979
1789033878379173600,11.724173583984374,-0.2822195291519165,-0.8344413042068481,-0.16249002516269684
1789033878389099000,11.73409912109375,-0.34574946761131287,-0.7428115606307983,-0.20647229254245758
1789033878399024000,11.744024169921875,-0.38240134716033936,-0.6316341757774353,-0.21746785938739777
1789033878408949200,11.75394921875,-0.43371400237083435,-0.5778780579566956,-0.21380266547203064
1789033878418874600,11.76387451171875,-0.5143481492996216,-0.5326740741729736,-0.20891575515270233
1789033878428799700,11.7737998046875,-0.6206386089324951,-0.49968740344047546,-0.16615521907806396
1789033878438724900,11.783724853515626,-0.7318159937858582,-0.3848448097705841,-0.06597339361906052
1789033878448650000,11.79364990234375,-0.7965676784515381,-0.2761108875274658,0.012217295356094837
1789033878458575400,11.803575439453125,-0.823445737361908,-0.2761108875274658,0.003665188793092966
1789033878468500500,11.81350048828125,-0.8271108865737915,-0.2712239623069763,-0.028099779039621353
1789033878478425600,11.823425537109374,-0.8307760953903198,-0.2467893660068512,-0.036651886999607086
1789033878488350700,11.833350830078125,-0.84177166223526,-0.24556763470172882,-0.0256563201546669
1789033878498275800,11.84327587890625,-0.8600975871086121,-0.3347539007663727,-0.024434590712189674
1789033878508201000,11.853200927734376,-0.8759800791740417,-0.40805765986442566,-0.03176496922969818
1789033878518126000,11.8631259765625,-0.9004147052764893,-0.4935787320137024,-0.06108647957444191
1789033878528051500,11.873051513671875,-0.9602794051170349,-0.6047561168670654,-0.11117739230394363
1789033878537976600,11.8829765625,-1.0421353578567505,-0.6328558921813965,-0.15149445831775665
1789033878547901700,11.892901611328124,-1.1239912509918213,-0.6560688018798828,-0.18203771114349365
1789033878557826800,11.902826904296875,-1.1875211000442505,-0.6157516837120056,-0.1954767256975174
1789033878567752000,11.912751953125,-1.2034035921096802,-0.5204567909240723,-0.19669845700263977
1789033878577677000,11.922677001953126,-1.1227694749832153,-0.411722868680954,-0.17348559200763702
1789033878587602200,11.932602294921875,-1.0225876569747925,-0.33108872175216675,-0.1331685185432434
1789033878597527600,11.942527587890625,-0.9224058389663696,-0.27366742491722107,-0.10751219838857651
1789033878607452700,11.95245263671875,-0.8710931539535522,-0.2309068888425827,-0.13072505593299866
1789033878617377800,11.962377685546874,-0.8307760953903198,-0.19669845700263977,-0.15515965223312378
1789033878627303000,11.972302978515625,-0.7965676784515381,-0.22968515753746033,-0.1441640853881836
1789033878637228000,11.98222802734375,-0.8014546036720276,-0.2211330533027649,-0.10873392969369888
1789033878647153200,11.992153076171874,-0.8527672290802002,-0.17715078592300415,-0.13927717506885529
1789033878657078300,12.002078369140625,-0.9407317638397217,-0.2419024556875229,-0.2626718580722809
1789033878667003600,12.012003662109375,-1.082452416419983,-0.38850998878479004,-0.35185810923576355
1789033878676928800,12.0219287109375,-1.2217295169830322,-0.40927940607070923,-0.33231043815612793
1789033878686854000,12.03185400390625,-1.331685185432434,-0.1954767256975174,-0.2919933497905731
1789033878696779000,12.041779052734375,-1.4233149290084839,0.15271618962287903,-0.26022839546203613
1789033878706704100,12.0517041015625,-1.480736255645752,0.5070177912712097,-0.2211330533027649
1789033878716629200,12.061629150390624,-1.4831796884536743,0.6462949514389038,-0.16249002516269684
1789033878726554400,12.071554443359375,-1.441640853881836,0.5082395076751709,-0.0769689604640007
1789033878736479700,12.081479736328125,-1.4147628545761108,0.18203771114349365,-0.028099779039621353
1789033878746404900,12.09140478515625,-1.4172062873840332,-0.12950333952903748,-0.026878049597144127
1789033878756330000,12.101330078125,-1.3915499448776245,-0.2577849328517914,-0.03543015569448471
1789033878766255400,12.11125537109375,-1.3194679021835327,-0.21258094906806946,-0.03909534588456154
1789033878776180500,12.121180419921876,-1.2192860841751099,-0.08796452730894089,0.009773836471140385
1789033878786105600,12.131105712890625,-1.1044435501098633,0.006108647678047419,0.08796452730894089
1789033878796031000,12.141031005859375,-0.9932661056518555,0.09651663154363632,0.1490510106086731
1789033878805956000,12.1509560546875,-0.8979712128639221,0.20158538222312927,0.2003636509180069
1789033878815881200,12.160881103515624,-0.8051197528839111,0.2675587832927704,0.28466299176216125
1789033878825806600,12.170806640625,-0.6927206516265869,0.27977606654167175,0.3738492429256439
1789033878835731700,12.180731689453125,-0.554665207862854,0.23945899307727814,0.41416633129119873
1789033878845656800,12.19065673828125,-0.4056142270565033,0.15515965223312378,0.45937031507492065
1789033878855582000,12.20058203125,-0.28954991698265076,0.06963858753442764,0.4740310609340668
1789033878865507000,12.210507080078125,-0.18081597983837128,0.006108647678047419,0.4251618981361389
1789033878875432400,12.220432373046876,-0.04276053607463837,0.003665188793092966,0.3970620930194855
1789033878885357600,12.230357666015625,0.10995566099882126,0.03909534588456154,0.38728827238082886
1789033878895282700,12.24028271484375,0.25411975383758545,0.08552107214927673,0.34574946761131287
1789033878905207800,12.250207763671876,0.38240134716033936,0.11728604137897491,0.28588470816612244
1789033878915133000,12.2601328125,0.5290089249610901,0.2309068888425827,0.22846342623233795
1789033878925058000,12.27005810546875,0.6780598759651184,0.370184063911438,0.18692462146282196
1789033878934983200,12.279983154296875,0.7953459620475769,0.38240134716033936,0.16004657745361328
1789033878944908500,12.289908447265624,0.8820887207984924,0.3029889166355133,0.13194678723812103
1789033878954833700,12.299833740234375,0.9712749719619751,0.25411975383758545,0.11728604137897491
1789033878964758800,12.3097587890625,1.08978271484375,0.27977606654167175,0.11606431007385254
1789033878974684000,12.319683837890626,1.1985167264938354,0.35674503445625305,0.11484257876873016
1789033878984609000,12.329609130859374,1.276707410812378,0.4410443603992462,0.08307760953903198
1789033878994534100,12.3395341796875,1.351232886314392,0.4862483739852905,0.03176496922969818
1789033879004459300,12.349459228515625,1.4062107801437378,0.4422661066055298,0
1789033879014384600,12.359384521484374,1.4831796884536743,0.401949018239975,-0.02932151034474373
1789033879024309800,12.369309814453125,1.5601485967636108,0.44837474822998047,-0.053756099194288254
1789033879034235000,12.37923486328125,1.6126830577850342,0.5632173418998718,-0.05864302068948746
1789033879044160000,12.389159912109376,1.6615521907806396,0.6988292932510376,-0.03543015569448471
1789033879054085000,12.399085205078125,1.694538950920105,0.7574723362922668,-0.010995565913617611
1789033879064010200,12.40901025390625,1.6786564588546753,0.6927206516265869,-0.006108647678047419
1789033879073935400,12.418935302734376,1.6310089826583862,0.5864301919937134,-0.034208428114652634
1789033879083860500,12.428860595703124,1.6004657745361328,0.5473348498344421,-0.07941242307424545
1789033879093785900,12.438785888671875,1.6102395057678223,0.6010909676551819,-0.0977383628487587
