time,seconds_elapsed,z,y,x
1789402384616628000,0.1126279296875,9.305686950683594,2.423929452896118,-0.11485548317432404
1789402384626554400,0.122554443359375,9.482755661010742,2.383251428604126,-0.10049854964017868
1789402384636480800,0.132480712890625,9.66939640045166,2.258824586868286,-0.12681959569454193
1789402384646407000,0.142406982421875,9.609575271606445,2.0578274726867676,-0.04546362906694412
1789402384656333300,0.152333251953125,9.41336441040039,1.8831514120101929,-0.062213387340307236
1789402384666259700,0.162259765625,9.176474571228027,1.8041882514953613,-0.13639089465141296
1789402384676185900,0.172185791015625,8.908478736877441,1.7180466651916504,-0.2560320198535919
1789402384686112300,0.1821123046875,8.752944946289062,1.5960127115249634,-0.3613162338733673
1789402384696038700,0.19203857421875,8.776873588562012,1.5074782371520996,-0.4977070987224579
1789402384705965000,0.201965087890625,9.013762474060059,1.423729419708252,-0.6867401003837585
1789402384715891500,0.211891357421875,9.298508644104004,1.2705888748168945,-0.7800601720809937
1789402384725817900,0.22181787109375,9.650253295898438,1.100698471069336,-0.8709874153137207
1789402384735744000,0.231743896484375,9.970891952514648,0.97148597240448,-0.9451649188995361
1789402384745670400,0.24167041015625,10.394421577453613,0.916451096534729,-1.1054840087890625
1789402384755596800,0.2515966796875,10.717453002929688,0.9308080077171326,-1.25144624710083
1789402384765523000,0.26152294921875,10.947163581848145,0.9284151792526245,-1.3663017749786377
1789402384775449300,0.271449462890625,11.016555786132812,0.9236295223236084,-1.428515076637268
1789402384785375700,0.281375732421875,10.805987358093262,0.9786644577980042,-1.4380863904953003
1789402384795302100,0.29130224609375,10.423135757446289,1.062413215637207,-1.3758729696273804
1789402384805228300,0.301228271484375,10.097711563110352,1.129412293434143,-1.3351950645446777
1789402384815154700,0.31115478515625,9.765109062194824,1.2610175609588623,-1.2418749332427979
1789402384825081000,0.3210810546875,9.743574142456055,1.3423734903335571,-1.191625714302063
1789402384835007500,0.331007568359375,10.073782920837402,1.373480200767517,-1.1222338676452637
1789402384844934000,0.340933837890625,10.504491806030273,1.404586911201477,-1.0432707071304321
1789402384854860000,0.350860107421875,10.75813102722168,1.430907964706421,-0.9236295223236084
1789402384864786400,0.360786376953125,10.901700019836426,1.4931213855743408,-0.8781659007072449
1789402384874712800,0.370712890625,10.832307815551758,1.4883357286453247,-0.9020941257476807
1789402384884639200,0.38063916015625,10.389636039733887,1.6103696823120117,-0.9188438653945923
1789402384894565400,0.3905654296875,9.817750930786133,1.8711873292922974,-0.9619147181510925
1789402384904491800,0.40049169921875,9.159725189208984,2.1200408935546875,-1.007378339767456
1789402384914418200,0.410418212890625,8.585447311401367,2.3617160320281982,-1.0815558433532715
1789402384924344300,0.42034423828125,8.202595710754395,2.56510591506958,-1.1198409795761108
1789402384934270700,0.430270751953125,7.9728851318359375,2.699103832244873,-1.1150553226470947
1789402384944197000,0.440197021484375,7.917850017547607,2.6871397495269775,-1.00259268283844
1789402384954123500,0.45012353515625,8.070990562438965,2.6081767082214355,-0.9308080077171326
1789402384964050000,0.4600498046875,8.489734649658203,2.5196423530578613,-0.794417142868042
1789402384973976000,0.46997607421875,9.006584167480469,2.3880369663238525,-0.607776939868927
1789402384983902500,0.47990234375,9.595218658447266,2.3162522315979004,-0.33738797903060913
1789402384993828900,0.489828857421875,10.1216402053833,2.2540390491485596,-0.05742774158716202
1789402385003755300,0.49975537109375,10.454241752624512,2.194218397140503,0.15074782073497772
1789402385013681400,0.509681396484375,10.877771377563477,2.1894326210021973,0.21774685382843018
1789402385023607800,0.51960791015625,11.088339805603027,2.1583259105682373,0.27756741642951965
1789402385033534200,0.5295341796875,11.102697372436523,2.0721843242645264,0.2847459018230438
1789402385043460400,0.53946044921875,10.731809616088867,2.029113531112671,0.23688943684101105
1789402385053386800,0.54938671875,10.076175689697266,2.0578274726867676,0.11724831163883209
1789402385063313200,0.559313232421875,9.379864692687988,2.132004976272583,-0.031106693670153618
1789402385073239600,0.569239501953125,8.805587768554688,2.2683959007263184,-0.17946170270442963
1789402385083165700,0.579165771484375,8.539983749389648,2.3497519493103027,-0.2991028428077698
1789402385093092400,0.58909228515625,8.484949111938477,2.3808584213256836,-0.2991028428077698
1789402385103018500,0.5990185546875,8.556734085083008,2.400001049041748,-0.17946170270442963
1789402385112945000,0.60894482421875,8.63330364227295,2.416750907897949,0.05742774158716202
1789402385122871300,0.618871337890625,8.566305160522461,2.550748825073242,0.34217363595962524
1789402385132797400,0.62879736328125,8.305487632751465,2.6847469806671143,0.5838487148284912
1789402385142723800,0.638723876953125,8.11406135559082,2.754138946533203,0.7561319470405579
1789402385152650200,0.648650146484375,7.927421569824219,2.7661030292510986,0.7968099117279053
1789402385162576400,0.658576416015625,7.860422611236572,2.830709218978882,0.8327022790908813
1789402385172502800,0.668502685546875,8.111668586730957,2.8043880462646484,0.8111668825149536
1789402385182429200,0.67842919921875,8.702695846557617,2.5842485427856445,0.672383189201355
1789402385192355600,0.68835546875,9.580862045288086,2.2636101245880127,0.5168496966362
1789402385202282000,0.698281982421875,10.470992088317871,2.0315065383911133,0.41874396800994873
1789402385212208400,0.70820849609375,11.143375396728516,1.8687944412231445,0.3278166949748993
1789402385222134500,0.718134521484375,11.531012535095215,1.7371892929077148,0.30628129839897156
1789402385232061000,0.72806103515625,11.504691123962402,1.7994025945663452,0.34217363595962524
1789402385241987300,0.7379873046875,11.088339805603027,1.9405791759490967,0.3517449200153351
1789402385251913500,0.74791357421875,10.466206550598145,2.1678972244262695,0.2871387302875519
1789402385261840000,0.75783984375,9.772287368774414,2.407179594039917,0.17706887423992157
1789402385271766300,0.767766357421875,9.212367057800293,2.6081767082214355,0.14356936514377594
1789402385281692700,0.777692626953125,9.028120040893555,2.6392834186553955,0.08853443711996078
1789402385291618800,0.787618896484375,9.190832138061523,2.610569477081299,0.08135596662759781
1789402385301545200,0.797545166015625,9.56650447845459,2.579462766647339,0.15553347766399384
1789402385311471600,0.8074716796875,10.15753173828125,2.5603201389312744,0.2225325107574463
1789402385321398000,0.81739794921875,10.853843688964844,2.4765713214874268,0.3445664644241333
1789402385331324400,0.827324462890625,11.428120613098145,2.3401806354522705,0.4666004180908203
1789402385341250600,0.83725048828125,11.674581527709961,2.2444677352905273,0.638883650302887
1789402385351177000,0.847177001953125,11.43529987335205,2.306680917739868,0.8015955686569214
1789402385361103400,0.857103271484375,10.980663299560547,2.416750907897949,0.9188438653945923
1789402385371029500,0.867029541015625,10.41356372833252,2.63449764251709,1.0360921621322632
1789402385380956000,0.876955810546875,9.93260669708252,2.7828526496887207,1.062413215637207
1789402385390882300,0.88688232421875,9.729216575622559,2.854637384414673,0.973878800868988
1789402385400808700,0.89680859375,9.987641334533691,2.7637102603912354,0.7824530005455017
1789402385410735000,0.906735107421875,10.518848419189453,2.5196423530578613,0.5072783827781677
1789402385420661200,0.9166611328125,11.040483474731445,2.2947168350219727,0.2584248483181
1789402385430587600,0.926587646484375,11.413763999938965,2.1272194385528564,0.08853443711996078
1789402385440514000,0.93651416015625,11.420942306518555,2.0650060176849365,-0.15314064919948578
1789402385450440400,0.9464404296875,10.825129508972168,1.9070796966552734,-0.20338992774486542
1789402385460366600,0.95636669921875,10.102497100830078,1.8616160154342651,-0.2727817893028259
1789402385470293000,0.96629296875,9.643074989318848,2.139183521270752,-0.5048855543136597
1789402385480219400,0.976219482421875,9.059226989746094,2.2995026111602783,-0.4450650215148926
1789402385490145800,0.986145751953125,8.831908226013184,2.495713949203491,-0.21296121180057526
1789402385500072000,0.996072021484375,9.145368576049805,2.63449764251709,-0.09571290761232376
1789402385509998300,1.005998291015625,9.853643417358398,2.50289249420166,0.007178467698395252
1789402385519924700,1.0159248046875,10.760523796081543,2.2923240661621094,0.4139583110809326
1789402385529851000,1.025850830078125,11.337193489074707,2.1367905139923096,1.0719845294952393
1789402385539777500,1.035777587890625,11.787044525146484,2.084148406982422,1.852044701576233
1789402385549703700,1.04570361328125,12.1866455078125,2.5674986839294434,2.2947168350219727
1789402385559630000,1.055630126953125,11.72004508972168,2.586641311645508,1.734796404838562
1789402385569556500,1.065556396484375,11.289337158203125,1.3854442834854126,1.1581261157989502
1789402385579482600,1.075482666015625,11.700902938842773,0.5455635786056519,0.42831525206565857
1789402385589409000,1.085408935546875,10.925628662109375,1.4524433612823486,0.5240281820297241
1789402385599335400,1.09533544921875,9.30329418182373,1.9573289155960083,0.5838487148284912
1789402385609261800,1.10526171875,8.078168869018555,3.3068809509277344,0.3206382393836975
1789402385619188200,1.115188232421875,7.269395351409912,3.6538400650024414,-0.26560330390930176
1789402385629114600,1.125114501953125,7.027719974517822,2.981456995010376,-0.7345965504646301
1789402385639040800,1.135040771484375,7.345965385437012,2.431107759475708,-0.8422735929489136
1789402385648967200,1.14496728515625,7.70249605178833,2.227717876434326,-0.6460621356964111
1789402385658893600,1.1548935546875,7.719245910644531,2.376072883605957,-0.39481574296951294
1789402385668819700,1.16481982421875,7.506284713745117,2.6632115840911865,-0.18424734473228455
1789402385678746000,1.17474609375,7.214360237121582,2.8689942359924316,-0.12681959569454193
1789402385688672500,1.184672607421875,7.109076023101807,2.9072794914245605,-0.13160525262355804
1789402385698599000,1.194598876953125,7.214360237121582,2.837887763977051,-0.2153540402650833
1789402385708525300,1.204525390625,7.599604606628418,2.730210542678833,-0.2632105052471161
1789402385718451700,1.21445166015625,8.116454124450684,2.6727828979492188,-0.2560320198535919
1789402385728377900,1.2243779296875,8.788837432861328,2.581855535507202,-0.2919243574142456
1789402385738304300,1.23430419921875,9.580862045288086,2.4574289321899414,-0.31345975399017334
1789402385748230700,1.244230712890625,10.389636039733887,2.234896421432495,-0.2560320198535919
1789402385758156800,1.25415673828125,11.038090705871582,2.043470621109009,-0.16749759018421173
1789402385768083200,1.264083251953125,11.241480827331543,2.0195422172546387,-0.02392822690308094
1789402385778009600,1.274009521484375,10.762916564941406,2.1607189178466797,0.16271193325519562
1789402385787936000,1.28393603515625,9.913464546203613,2.438286304473877,0.33738797903060913
1789402385797862400,1.2938623046875,8.784051895141602,2.7038896083831787,0.3684946894645691
1789402385807788800,1.303788818359375,7.700103282928467,2.9288148880004883,0.28235307335853577
1789402385817715000,1.31371484375,7.0923261642456055,3.0173492431640625,0.26560330390930176
1789402385827641300,1.323641357421875,7.070790767669678,3.146561861038208,0.2847459018230438
1789402385837567700,1.333567626953125,7.566105365753174,3.373879909515381,0.4211367964744568
1789402385847494000,1.343493896484375,8.532805442810059,3.4911282062530518,0.6819544434547424
1789402385857420300,1.353420166015625,7.994420528411865,3.6849467754364014,0.7417750358581543
1789402385867346700,1.3633466796875,8.384450912475586,3.768695592880249,0.3397808074951172
1789402385877273000,1.373273193359375,8.109275817871094,3.7423746585845947,0.09571290761232376
1789402385887199500,1.383199462890625,7.9489569664001465,3.706482172012329,-0.1339980661869049
1789402385897125600,1.393125732421875,7.910671710968018,3.603590965270996,-0.4546363055706024
1789402385907052000,1.403052001953125,7.9250288009643555,3.5294134616851807,-0.6675975322723389
1789402385916978400,1.412978515625,8.164310455322266,3.680161237716675,-0.6891329288482666
1789402385926904800,1.42290478515625,8.499305725097656,3.871587038040161,-0.5383850932121277
1789402385936831200,1.432831298828125,8.874979019165039,3.988835334777832,-0.47617170214653015
1789402385946757400,1.44275732421875,9.367900848388672,3.988835334777832,-0.5647061467170715
1789402385956683800,1.452683837890625,10.030712127685547,3.7710886001586914,-0.7920243144035339
1789402385966610200,1.462610107421875,11.059626579284668,3.38105845451355,-1.0791629552841187
1789402385976536600,1.47253662109375,12.284751892089844,3.1441688537597656,-0.8901300430297852
1789402385986463000,1.482462890625,12.985848426818848,2.981456995010376,-0.5623133182525635
1789402385996389000,1.49238916015625,13.414163589477539,3.005385160446167,-0.22013968229293823
1789402386006315500,1.5023154296875,13.584053993225098,3.0556344985961914,0.064606212079525
1789402386016242000,1.512241943359375,13.167702674865723,3.0173492431640625,0.20578274130821228
1789402386026168300,1.522168212890625,12.445070266723633,3.0484559535980225,0.3158525824546814
1789402386036094700,1.5320947265625,11.46401309967041,3.208775281906128,0.36610186100006104
1789402386046020900,1.542020751953125,10.293923377990723,3.328416347503662,0.3086741268634796
1789402386055947300,1.551947265625,9.370293617248535,3.460021495819092,0.24646073579788208
1789402386065873700,1.561873779296875,8.839086532592773,3.610769271850586,0.24885354936122894
1789402386075800000,1.571800048828125,8.58066177368164,3.656233072280884,0.1052841991186142
1789402386085726500,1.5817265625,8.523234367370605,3.665804386138916,-0.20338992774486542
1789402386095652900,1.59165283203125,8.915657043457031,3.5437703132629395,-0.43549370765686035
1789402386105579000,1.6015791015625,9.516255378723145,3.321237802505493,-0.39960137009620667
1789402386115505400,1.61150537109375,9.805787086486816,3.239881753921509,-0.10767702013254166
1789402386125431800,1.621431884765625,10.066604614257812,3.326023578643799,0.22971096634864807
1789402386135358200,1.631358154296875,10.547562599182129,3.3858439922332764,0.5407779216766357
1789402386145284600,1.64128466796875,10.762916564941406,3.2231321334838867,0.8015955686569214
1789402386155210800,1.651210693359375,10.590633392333984,3.0723843574523926,0.8877372145652771
1789402386165137200,1.66113720703125,10.365707397460938,2.957528829574585,0.849452018737793
1789402386175063600,1.6710634765625,10.05703353881836,2.7900311946868896,0.8255237936973572
1789402386184990000,1.680989990234375,9.812965393066406,2.7014968395233154,0.7968099117279053
1789402386194916400,1.690916259765625,9.621540069580078,2.682354211807251,0.7752745151519775
1789402386204842800,1.7008427734375,9.564111709594727,2.847458839416504,0.8398807644844055
1789402386214769000,1.710768798828125,9.884750366210938,2.8761727809906006,0.8422735929489136
1789402386224695300,1.7206953125,10.241280555725098,2.7421748638153076,0.8925228714942932
1789402386234621700,1.73062158203125,10.344172477722168,2.5148565769195557,1.0193424224853516
1789402386244548000,1.740548095703125,10.12881851196289,2.3712873458862305,1.0193424224853516
1789402386254474500,1.750474609375,9.475577354431152,2.311466693878174,0.8709874153137207
1789402386264401000,1.76040087890625,8.62612533569336,2.242074728012085,0.6604190468788147
1789402386274327000,1.7703271484375,7.877171993255615,2.210968017578125,0.4211367964744568
1789402386284253400,1.78025341796875,7.324429988861084,2.2157537937164307,0.41874396800994873
1789402386294179800,1.790179931640625,7.240681171417236,2.2755744457244873,0.6269195079803467
1789402386304106200,1.800106201171875,7.850851058959961,2.242074728012085,0.8327022790908813
1789402386314032600,1.81003271484375,8.96112060546875,2.1296122074127197,1.00259268283844
1789402386323958800,1.819958740234375,10.341779708862305,2.0171494483947754,1.210768222808838
1789402386333885200,1.82988525390625,11.49512004852295,1.8352949619293213,1.3232308626174927
1789402386343811600,1.8398115234375,12.1866455078125,1.7754744291305542,1.4165509939193726
1789402386353738000,1.849738037109375,12.332608222961426,1.770688772201538,1.5098711252212524
1789402386363664400,1.859664306640625,11.84447193145752,1.794616937637329,1.5864413976669312
1789402386373590800,1.8695908203125,11.081161499023438,1.923829436302185,1.6342978477478027
1789402386383517000,1.879516845703125,10.454241752624512,2.084148406982422,1.5864413976669312
1789402386393443300,1.889443359375,10.179067611694336,2.306680917739868,1.672582983970642
1789402386403369700,1.89936962890625,10.248459815979004,2.5674986839294434,1.911865234375
1789402386413296000,1.909296142578125,10.171889305114746,2.715853691101074,2.1128623485565186
1789402386423222500,1.919222412109375,9.590433120727539,2.715853691101074,2.1415762901306152
1789402386433148700,1.929148681640625,8.681160926818848,2.761317253112793,2.203789710998535
1789402386443075000,1.939074951171875,7.503891944885254,2.7110681533813477,2.0721843242645264
1789402386453001500,1.94900146484375,6.144768714904785,2.5363919734954834,1.7587246894836426
1789402386462928000,1.958927978515625,5.32403039932251,2.447857618331909,1.3543375730514526
1789402386472854300,1.968854248046875,5.6590256690979,2.641676187515259,1.2059825658798218
1789402386482780700,1.97878076171875,7.044469833374023,2.950350284576416,1.4165509939193726
1789402386492706800,1.988706787109375,8.941978454589844,3.1920254230499268,1.679761528968811
1789402386502633500,1.998633544921875,11.772686958312988,3.208775281906128,1.9621145725250244
1789402386512559600,2.0085595703125,15.452848434448242,2.6488547325134277,1.9692929983139038
1789402386522486000,2.018486083984375,18.2045955657959,1.8855443000793457,1.9980069398880005
1789402386532412400,2.028412353515625,18.659231185913086,1.5433706045150757,1.9357935190200806
1789402386542338800,2.0383388671875,17.00339698791504,1.6869399547576904,1.679761528968811
1789402386552265200,2.04826513671875,14.555540084838867,1.9046868085861206,1.466800332069397
1789402386562191600,2.058191650390625,12.294322967529297,2.053041934967041,1.2873386144638062
1789402386572117800,2.06811767578125,10.686346054077148,2.1296122074127197,1.069591760635376
1789402386582044200,2.078044189453125,9.714859962463379,2.1343977451324463,0.9643075466156006
1789402386591970600,2.087970458984375,9.312865257263184,2.352144718170166,1.1054840087890625
1789402386601897000,2.09789697265625,8.97787094116211,2.799602508544922,1.5696916580200195
1789402386611823400,2.1078232421875,8.630910873413086,3.1417760848999023,2.1200408935546875
1789402386621749500,2.11774951171875,8.484949111938477,3.34995174407959,2.715853691101074
1789402386631676200,2.12767626953125,8.147561073303223,3.5341989994049072,3.3236305713653564
1789402386641602600,2.1376025390625,7.8556365966796875,3.871587038040161,3.7782669067382812
1789402386651528700,2.14752880859375,7.302894592285156,3.830909013748169,3.830909013748169
1789402386661455000,2.157455078125,5.948556900024414,3.414557933807373,3.476771354675293
1789402386671381500,2.167381591796875,4.393222332000732,2.768495798110962,3.0317063331604004
1789402386681308000,2.177307861328125,3.249453067779541,2.4287149906158447,2.486142635345459
1789402386691234300,2.187234375,3.290131092071533,2.4885356426239014,2.344966173171997
1789402386701160400,2.197160400390625,4.756931304931641,2.7493531703948975,2.012363910675049
1789402386711086800,2.2070869140625,7.546962738037109,2.7876384258270264,1.7874385118484497
1789402386721013200,2.21701318359375,11.002198219299316,2.526820659637451,1.4189438819885254
1789402386730939600,2.226939697265625,13.607982635498047,2.234896421432495,1.0097711086273193
1789402386740866000,2.236865966796875,14.670395851135254,2.3258235454559326,0.885344386100769
1789402386750792400,2.24679248046875,14.67518138885498,2.5938198566436768,1.337587833404541
1789402386760718800,2.25671875,13.730016708374023,3.146561861038208,1.6701902151107788
1789402386770645200,2.266645263671875,12.095718383789062,3.4887354373931885,2.069791555404663
1789402386780571400,2.2765712890625,10.72702407836914,3.6873397827148438,2.493321180343628
1789402386790497800,2.286497802734375,9.93978500366211,3.9074792861938477,2.8139593601226807
1789402386800424200,2.296424072265625,9.255437850952148,3.565305709838867,2.7254250049591064
1789402386810350600,2.3063505859375,8.568697929382324,3.263810157775879,2.8187451362609863
1789402386820277000,2.316277099609375,7.893921852111816,3.16331148147583,2.9527430534362793
1789402386830203400,2.326203369140625,7.348358154296875,3.1752755641937256,3.280559778213501
1789402386840129800,2.3361298828125,6.503692150115967,2.974278450012207,3.4025938510894775
1789402386850056200,2.34605615234375,5.20678186416626,2.53399920463562,3.2518460750579834
1789402386859982300,2.355982421875,3.675375461578369,2.124826431274414,2.7397818565368652
1789402386869908700,2.36590869140625,2.2205393314361572,1.2083754539489746,2.579462766647339
1789402386879835100,2.375835205078125,1.703689694404602,0.23210379481315613,1.184447169303894
1789402386889761500,2.385761474609375,2.234896421432495,-0.5383850932121277,1.6654045581817627
1789402386899688000,2.39568798828125,2.1272194385528564,-0.6364908218383789,2.9383862018585205
1789402386909614300,2.4056142578125,0.22013968229293823,-2.581855535507202,-1.5242279767990112
1789402386919540700,2.415540771484375,-1.1461620330810547,-3.4719855785369873,-1.301695466041565
1789402386929467100,2.425467041015625,-2.060220241546631,-4.177868366241455,-0.5934200286865234
1789402386939393300,2.435393310546875,-2.66560435295105,-3.656233072280884,0.9403793215751648
1789402386949319700,2.445319580078125,-5.266602516174316,-3.840480327606201,2.414358139038086
1789402386959246000,2.45524609375,-0.5694918036460876,-1.8759729862213135,4.405186653137207
1789402386969172500,2.46517236328125,2.754138946533203,-1.466800332069397,6.771687984466553
1789402386979099000,2.475098876953125,3.9936211109161377,-2.9718856811523438,6.369693756103516
1789402386989025300,2.485025390625,6.245266914367676,-3.8524444103240967,5.718846321105957
1789402386998951700,2.49495166015625,8.157132148742676,-5.125426292419434,5.096712112426758
1789402387008878000,2.504878173828125,7.726424217224121,-5.706881999969482,4.871787071228027
1789402387018804200,2.51480419921875,6.7621169090271,-4.922036170959473,5.749952793121338
1789402387028730600,2.524730712890625,5.6590256690979,-3.955335855484009,7.04925537109375
1789402387038657000,2.534656982421875,4.177868366241455,-3.9146578311920166,8.535198211669922
1789402387048583400,2.54458349609375,4.086941242218018,-3.783052682876587,9.90149974822998
1789402387058509800,2.554509765625,4.907679080963135,-3.4193434715270996,11.440085411071777
1789402387068436200,2.564436279296875,5.6207404136657715,-2.562713146209717,13.87358570098877
1789402387078362600,2.574362548828125,5.958128452301025,-1.5122638940811157,15.603596687316895
1789402387088288800,2.584288818359375,6.398407936096191,-1.6175481081008911,16.04387664794922
1789402387098215200,2.594215087890625,6.374479293823242,-1.6175481081008911,15.960126876831055
1789402387108141600,2.6041416015625,5.737988471984863,-1.3088740110397339,16.211374282836914
1789402387118068000,2.61406787109375,5.0464630126953125,-1.5840486288070679,16.053447723388672
1789402387127994400,2.623994384765625,4.168296813964844,-1.521835207939148,16.019947052001953
1789402387137920800,2.633920654296875,3.4887354373931885,-0.45224347710609436,17.58724594116211
1789402387147847200,2.64384716796875,3.1992039680480957,0.7537391185760498,19.64507484436035
1789402387157773600,2.653773681640625,3.4743785858154297,0.7082754969596863,20.24567222595215
1789402387167699700,2.66369970703125,2.1846470832824707,0.7848458290100098,19.51586151123047
1789402387177626000,2.673626220703125,1.191625714302063,1.0600204467773438,18.223737716674805
1789402387187552800,2.683552734375,0.6675975322723389,0.7920243144035339,17.419748306274414
1789402387197479000,2.69347900390625,0.9523434042930603,0.7010970115661621,17.548961639404297
1789402387207405300,2.7034052734375,0.8422735929489136,1.2251251935958862,17.74517250061035
1789402387217331700,2.713331787109375,0.7968099117279053,2.950350284576416,18.597017288208008
1789402387227258000,2.723258056640625,0.03349951654672623,5.7547383308410645,20.0087833404541
1789402387237184500,2.7331845703125,-0.8662018179893494,4.704289436340332,19.32204246520996
1789402387247110700,2.743110595703125,-2.761317253112793,5.592026710510254,18.12563133239746
1789402387257037300,2.753037353515625,-4.742574691772461,5.257031440734863,17.405391693115234
1789402387266963500,2.76296337890625,-5.8097734451293945,4.599005222320557,16.4315128326416
1789402387276889900,2.772889892578125,-5.994020938873291,4.704289436340332,15.438491821289062
1789402387286816300,2.782816162109375,-6.125626087188721,3.6610186100006104,14.086546897888184
1789402387296742700,2.79274267578125,-5.1565327644348145,3.4337005615234375,12.902099609375
1789402387306669000,2.8026689453125,-3.4337005615234375,2.342573404312134,11.298908233642578
1789402387316595500,2.812595458984375,-0.9810572862625122,1.6103696823120117,10.619346618652344
1789402387326521900,2.82252197265625,0.7920243144035339,0.885344386100769,10.49970531463623
1789402387336448300,2.8324482421875,1.7754744291305542,0.22971096634864807,10.200602531433105
1789402387346374400,2.84237451171875,2.3497519493103027,-0.8733802437782288,9.32004451751709
1789402387356300800,2.85230078125,2.3234307765960693,-1.6534404754638672,8.599804878234863
1789402387366227200,2.862227294921875,2.4023938179016113,-3.4337005615234375,7.35314416885376
1789402387376153600,2.872153564453125,2.076970100402832,-4.350151538848877,5.907878875732422
1789402387386080000,2.882080078125,3.1896326541900635,-5.584847927093506,5.685346603393555
1789402387396006400,2.89200634765625,4.271188259124756,-6.080162525177002,5.91505765914917
1789402387405932800,2.901932861328125,3.7806596755981445,-6.5419769287109375,6.618547439575195
1789402387415859200,2.911859130859375,3.290131092071533,-6.903293132781982,7.322037220001221
1789402387425785300,2.921785400390625,2.7637102603912354,-6.970292568206787,7.3914289474487305
1789402387435711700,2.931711669921875,1.8807586431503296,-7.0995049476623535,7.539783954620361
1789402387445638100,2.94163818359375,0.9427721500396729,-6.836294174194336,7.956135272979736
1789402387455564500,2.951564453125,-0.23688943684101105,-6.321837425231934,8.439485549926758
1789402387465490000,2.961489990234375,-1.1102696657180786,-5.757131099700928,9.183652877807617
1789402387484148700,2.980148681640625,-1.5122638940811157,-4.2209391593933105,11.940184593200684
1789402387494075000,2.990074951171875,-2.062613010406494,-3.689732551574707,12.696316719055176
1789402387504001300,3.000001220703125,-2.919243574142456,-2.675175666809082,13.428520202636719
1789402387513927700,3.009927734375,-3.8524444103240967,-2.091326951980591,14.242080688476562
1789402387523853800,3.019853759765625,-4.493721008300781,-1.6845471858978271,14.548361778259277
1789402387533780200,3.0297802734375,-5.154139995574951,-1.2251251935958862,14.610574722290039
1789402387543706600,3.03970654296875,-5.886343479156494,-2.258824586868286,13.797015190124512
1789402387553633000,3.049633056640625,-4.07258415222168,-2.5076780319213867,12.059825897216797
1789402387563559400,3.059559326171875,-3.1106693744659424,-2.7086751461029053,11.940184593200684
1789402387573485800,3.06948583984375,-2.3545374870300293,-2.9001009464263916,11.126625061035156
1789402387583412200,3.079412109375,-1.435693621635437,-2.9479575157165527,9.772287368774414
1789402387593338600,3.089338623046875,-0.46420758962631226,-3.359523057937622,8.93958568572998
1789402387603264800,3.0992646484375,0.02392822690308094,-3.90987229347229,8.193024635314941
1789402387613191200,3.109191162109375,0.19621145725250244,-4.3070807456970215,7.336394309997559
1789402387623117600,3.11911767578125,0.2105683982372284,-4.666004180908203,6.685546398162842
1789402387633044000,3.1290439453125,0.2679961323738098,-4.957928657531738,6.26440954208374
1789402387642970400,3.138970458984375,0.43549370765686035,-5.077569484710693,6.235695838928223
1789402387652896800,3.148896728515625,0.5120640397071838,-5.144568920135498,6.192625045776367
1789402387662823200,3.1588232421875,0.43549370765686035,-5.307280540466309,5.910272121429443
1789402387672749600,3.16874951171875,0.22013968229293823,-5.608776092529297,5.584847927093506
1789402387682675700,3.17867578125,0.08614161610603333,-5.690132141113281,5.575276851654053
1789402387692602000,3.18860205078125,-0.14835500717163086,-5.522634506225586,5.85284423828125
1789402387702528500,3.198528564453125,-0.5407779216766357,-5.2977094650268555,6.10169792175293
1789402387712455000,3.208454833984375,-0.9906286001205444,-5.292923450469971,6.302694797515869
1789402387722381300,3.21838134765625,-1.6271194219589233,-5.326423168182373,6.781259536743164
1789402387732307700,3.2283076171875,-2.5746772289276123,-5.173282623291016,7.010970115661621
1789402387742234000,3.238234130859375,-2.785245656967163,-4.800002098083496,7.781459331512451
1789402387752160300,3.24816015625,-2.4358935356140137,-4.326223373413086,8.858229637145996
1789402387762086700,3.258086669921875,-2.124826431274414,-3.617947816848755,9.724431037902832
1789402387772013000,3.268012939453125,-2.0721843242645264,-3.211168050765991,10.470992088317871
1789402387781939500,3.277939453125,-2.2683959007263184,-3.005385160446167,10.916056632995605
1789402387791865900,3.287865966796875,-1.832902193069458,-3.249453067779541,10.542776107788086
1789402387801792300,3.297792236328125,-2.1822543144226074,-3.0628130435943604,10.1216402053833
1789402387811718700,3.30771875,-2.1056840419769287,-3.3164522647857666,9.982855796813965
1789402387821645000,3.31764501953125,-1.828116536140442,-3.311666488647461,9.982855796813965
1789402387831571500,3.327571533203125,-1.34476637840271,-2.9958138465881348,10.1216402053833
1789402387841497600,3.33749755859375,-0.9284151792526245,-2.7900311946868896,10.303494453430176
1789402387851424000,3.347424072265625,-0.9523434042930603,-2.579462766647339,10.437492370605469
1789402387861350400,3.357350341796875,-1.0097711086273193,-2.4598217010498047,10.423135757446289
1789402387871276800,3.36727685546875,-1.0815558433532715,-2.3736801147460938,10.332208633422852
1789402387881203200,3.377203125,-1.062413215637207,-2.359323024749756,10.246066093444824
1789402387891129300,3.38712939453125,-1.124626636505127,-2.273181438446045,10.289137840270996
1789402387901055700,3.3970556640625,-1.306481122970581,-2.306680917739868,10.068997383117676
1789402387910982100,3.406982177734375,-1.6223337650299072,-2.555534601211548,9.504291534423828
1789402387920908500,3.416908447265625,-1.8424733877182007,-2.9383862018585205,9.06401252746582
1789402387930835000,3.4268349609375,-2.0003998279571533,-3.3164522647857666,9.035298347473145
1789402387940761300,3.43676123046875,-1.770688772201538,-3.4265220165252686,9.437292098999023
1789402387950687500,3.4466875,-1.3543375730514526,-3.407379388809204,9.92542839050293
1789402387960614000,3.45661376953125,-1.2681959867477417,-3.5030922889709473,9.829715728759766
1789402387970540300,3.466540283203125,-1.6223337650299072,-3.9625144004821777,9.18843936920166
1789402387980466700,3.476466796875,-2.115255117416382,-4.508078098297119,8.513663291931152
1789402387990393000,3.48639306640625,-2.4598217010498047,-4.852644443511963,7.83410120010376
1789402388000319500,3.496319580078125,-2.675175666809082,-5.077569484710693,7.164111137390137
1789402388010246000,3.506245849609375,-2.8043880462646484,-5.245067119598389,7.010970115661621
1789402388020172300,3.51617236328125,-2.7326035499572754,-5.599205017089844,7.130611419677734
1789402388030098400,3.526098388671875,-2.4741785526275635,-5.891129493713379,7.546962738037109
1789402388040024800,3.53602490234375,-2.100898265838623,-6.149554252624512,8.346165657043457
1789402388049951200,3.545951171875,-1.6701902151107788,-6.403193473815918,9.274580955505371
1789402388059877600,3.555877685546875,-1.2203395366668701,-6.561119556427002,10.308279991149902
1789402388069804000,3.565803955078125,-1.0911271572113037,-6.441478729248047,11.217552185058594
1789402388079730400,3.57573046875,-1.3256237506866455,-6.230910301208496,12.418749809265137
1789402388089656800,3.58565673828125,-1.4787644147872925,-6.192625045776367,13.179667472839355
1789402388099583200,3.595583251953125,-1.368694543838501,-6.010770320892334,13.308879852294922
1789402388109509400,3.60550927734375,-2.3497519493103027,-5.240281581878662,13.390235900878906
1789402388119435800,3.615435791015625,-2.9001009464263916,-5.216353416442871,13.01216983795166
1789402388129362200,3.625362060546875,-3.5748770236968994,-4.876572608947754,12.380464553833008
1789402388139288600,3.63528857421875,-3.90987229347229,-5.00578498840332,11.404192924499512
1789402388149215000,3.645215087890625,-4.125226020812988,-5.216353416442871,9.714859962463379
1789402388159141000,3.65514111328125,-3.4887354373931885,-5.283352375030518,10.265209197998047
1789402388169067500,3.665067626953125,-3.445664644241333,-4.359723091125488,10.073782920837402
1789402388178994000,3.674993896484375,-0.9762716293334961,-6.589833736419678,9.20279598236084
1789402388188920300,3.68492041015625,-2.785245656967163,-5.97727108001709,8.532805442810059
1789402388198846700,3.6948466796875,3.4408788681030273,-6.096911907196045,11.217552185058594
1789402388208773000,3.704773193359375,4.42193603515625,-6.628118515014648,10.317851066589355
1789402388218699300,3.71469921875,-3.8333017826080322,-6.235695838928223,9.590433120727539
1789402388228625700,3.724625732421875,-6.565905570983887,-5.072783946990967,8.685946464538574
1789402388238552000,3.734552001953125,1.8807586431503296,-4.752145767211914,11.112268447875977
1789402388248478500,3.744478515625,0.7417750358581543,-4.876572608947754,9.580862045288086
1789402388258404900,3.75440478515625,2.8426733016967773,-4.6372904777526855,10.327422142028809
1789402388268331300,3.764331298828125,0.8997012972831726,-4.474578380584717,8.82951545715332
1789402388278257700,3.774257568359375,-9.183652877807617,-2.7661030292510986,7.164111137390137
1789402388288184000,3.78418408203125,-12.016755104064941,-0.06699903309345245,7.537391185760498
1789402388298110200,3.794110107421875,-3.019742250442505,-1.0959128141403198,9.757930755615234
1789402388308036600,3.80403662109375,-3.1920254230499268,-1.8711873292922974,6.580262184143066
1789402388317963000,3.813962890625,-5.97727108001709,-1.6031911373138428,5.60399055480957
1789402388327889400,3.823889404296875,-5.125426292419434,-0.8805587291717529,5.465207099914551
1789402388337815800,3.83381591796875,1.3256237506866455,-1.5170495510101318,6.455835342407227
1789402388347742000,3.843741943359375,8.571090698242188,-0.8614161610603333,7.207181930541992
1789402388357668400,3.85366845703125,-4.962714195251465,0.7896314859390259,6.766902446746826
1789402388367594800,3.8635947265625,-2.431107759475708,1.153340458869934,6.570691108703613
1789402388377521200,3.873521240234375,7.724031448364258,1.6223337650299072,10.667202949523926
1789402388387447600,3.883447509765625,11.327622413635254,0.8709874153137207,8.173882484436035
1789402388397374000,3.8933740234375,6.967899322509766,0,1.1437692642211914
1789402388407300400,3.90330029296875,-13.533804893493652,0.7513462901115417,-5.670989513397217
1789402388417226500,3.9132265625,-7.168896675109863,4.268795490264893,-3.177668571472168
1789402388427153000,3.92315283203125,-6.881757736206055,4.445864677429199,2.00518536567688
1789402388437079300,3.933079345703125,-9.279366493225098,7.082755088806152,6.905686378479004
1789402388447005700,3.943005615234375,-3.28773832321167,6.695117950439453,6.920042991638184
1789402388456932000,3.95293212890625,-3.507878065109253,3.326023578643799,6.996613502502441
1789402388466858500,3.9628583984375,-4.110869407653809,0.12442677468061447,6.120840549468994
1789402388476785000,3.972784912109375,-5.158925533294678,-2.4837498664855957,5.565705299377441
1789402388486711000,3.9827109375,-4.694717884063721,-4.914857864379883,10.41356372833252
1789402388496637400,3.992637451171875,-1.8089739084243774,-2.196611166000366,13.39980697631836
1789402388506563800,4.002563720703125,0.6652047038078308,-6.025127410888672,14.423934936523438
1789402388516490200,4.012490234375,1.4835500717163086,-5.752345561981201,15.481562614440918
1789402388526416600,4.022416748046875,-7.953742504119873,-2.0721843242645264,10.317851066589355
1789402388536342800,4.0323427734375,-8.10688304901123,-2.3641088008880615,9.839286804199219
1789402388546269200,4.042269287109375,-0.7513462901115417,-8.279166221618652,6.4701924324035645
1789402388556195600,4.052195556640625,2.6847469806671143,-7.963313579559326,1.7994025945663452
1789402388566122000,4.0621220703125,6.8004021644592285,-13.11266803741455,4.144368648529053
1789402388576048400,4.07204833984375,6.833901405334473,-11.351551055908203,7.427321434020996
1789402388585974800,4.081974853515625,-0.33020952343940735,-11.997612953186035,10.289137840270996
1789402388595901200,4.091901123046875,-0.97148597240448,-10.75813102722168,11.978469848632812
1789402388605827600,4.10182763671875,-2.56510591506958,-12.117254257202148,11.23190975189209
1789402388615753700,4.111753662109375,-4.589433670043945,-12.217752456665039,10.092926025390625
1789402388625680100,4.12168017578125,-5.9198431968688965,-11.380264282226562,9.963713645935059
1789402388635606500,4.1316064453125,-5.527420520782471,-10.557133674621582,10.068997383117676
1789402388645533000,4.141532958984375,-4.455435752868652,-9.796216011047363,9.805787086486816
1789402388655459300,4.151459228515625,-3.531806230545044,-10.408778190612793,6.795616149902344
1789402388665385700,4.1613857421875,-3.5844483375549316,-9.418149948120117,7.953742504119873
1789402388675311900,4.171311767578125,-3.211168050765991,-8.886942863464355,7.475177764892578
1789402388685238300,4.18123828125,-5.781059741973877,-7.5708909034729,9.21715259552002
1789402388695164700,4.19116455078125,-4.3549370765686035,-5.522634506225586,11.988041877746582
1789402388705091000,4.201091064453125,-3.22552490234375,-3.1202406883239746,15.572489738464355
1789402388715017500,4.211017578125,-1.923829436302185,-0.27756741642951965,18.501304626464844
1789402388724943600,4.220943603515625,0.5407779216766357,0.02392822690308094,17.453248977661133
1789402388734870000,4.2308701171875,3.9433717727661133,-0.41156548261642456,15.998412132263184
1789402388744796400,4.24079638671875,4.800002098083496,-0.6556333899497986,15.936199188232422
1789402388754722800,4.250722900390625,5.144568920135498,0.09571290761232376,14.80678653717041
1789402388764649200,4.260649169921875,4.627718925476074,-0.1866401731967926,15.720845222473145
1789402388774575600,4.27057568359375,0.8901300430297852,-0.550349235534668,17.54417610168457
1789402388784501800,4.280501708984375,-2.1774685382843018,-2.7517459392547607,14.988640785217285
1789402388794428200,4.29042822265625,-3.2303106784820557,-4.48414945602417,11.562119483947754
1789402388804354600,4.3003544921875,-1.9908283948898315,-6.953542709350586,10.159924507141113
1789402388814281000,4.310281005859375,-0.37806597352027893,-9.724431037902832,11.164910316467285
1789402388824207400,4.320207275390625,-3.2781670093536377,-10.346565246582031,9.245866775512695
1789402388834133800,4.3301337890625,-5.4556355476379395,-11.519047737121582,7.436892986297607
1789402388844060000,4.340059814453125,-6.412764549255371,-10.198209762573242,7.915457248687744
1789402388853986300,4.349986328125,-6.57547664642334,-7.623532772064209,8.039883613586426
1789402388863912700,4.35991259765625,-9.600004196166992,-5.838487148284912,8.614161491394043
1789402388873839000,4.369839111328125,-4.340580463409424,-8.394021987915039,8.331808090209961
1789402388883765500,4.379765625,12.863814353942871,-15.984055519104004,24.70828628540039
1789402388893692000,4.38969189453125,1.8951154947280884,3.90987229347229,19.305294036865234
1789402388903618300,4.399618408203125,-4.867001056671143,0.7896314859390259,13.830514907836914
1789402388913544400,4.40954443359375,-11.078768730163574,-4.412364959716797,7.791030406951904
1789402388923470800,4.419470947265625,-5.848058700561523,-0.4498506486415863,3.019742250442505
1789402388933397200,4.429397216796875,1.9908283948898315,-1.5792629718780518,1.2921242713928223
1789402388943323600,4.43932373046875,9.762716293334961,-5.335994720458984,1.7515461444854736
1789402388953250000,4.44925,12.595818519592285,-5.824130535125732,3.6849467754364014
1789402388963176400,4.459176513671875,12.342179298400879,-5.201996326446533,7.389036178588867
1789402388973102600,4.4691025390625,7.216753005981445,-3.3882367610931396,11.777473449707031
1789402388983029000,4.479029052734375,-2.1056840419769287,-1.9860427379608154,13.557733535766602
1789402388992955400,4.488955322265625,-12.002398490905762,-4.115654945373535,8.585447311401367
1789402389002881800,4.4988818359375,-14.280365943908691,-1.9334007501602173,4.244867324829102
1789402389012808200,4.50880810546875,-17.855241775512695,-0.2584248483181,3.34995174407959
1789402389022734600,4.518734619140625,-18.821943283081055,-1.789831280708313,3.4983067512512207
1789402389032660700,4.52866064453125,-14.065011024475098,-2.1296122074127197,2.258824586868286
1789402389042587100,4.538587158203125,-11.23190975189209,-2.8522446155548096,-1.5792629718780518
1789402389052513500,4.548513427734375,-12.495320320129395,-2.651247501373291,-5.163711071014404
1789402389062440000,4.55843994140625,-15.026926040649414,-1.856830358505249,-8.767302513122559
1789402389072366300,4.568366455078125,-16.92682647705078,-0.349352091550827,-11.298908233642578
1789402389082292500,4.57829248046875,-18.597017288208008,0.7417750358581543,-11.763115882873535
1789402389092219000,4.588218994140625,-16.395620346069336,0.3158525824546814,-8.011170387268066
1789402389102145300,4.598145263671875,-12.346964836120605,-1.124626636505127,-1.7467604875564575
1789402389112071700,4.60807177734375,-10.112068176269531,-2.201396942138672,5.924628734588623
1789402389121998000,4.617998046875,-8.60459041595459,-3.579662561416626,14.021940231323242
1789402389131924500,4.627924560546875,-3.9864425659179688,-6.666403770446777,20.573488235473633
1789402389141851000,4.637850830078125,6.374479293823242,-8.489734649658203,27.096323013305664
1789402389151777300,4.64777734375,14.983855247497559,-9.834501266479492,27.780670166015625
1789402389161703400,4.657703369140625,22.05225372314453,-9.006584167480469,25.871198654174805
1789402389171629800,4.6676298828125,27.302106857299805,-4.517649173736572,24.416362762451172
1789402389181556200,4.67755615234375,31.240692138671875,-2.9527430534362793,23.23430824279785
1789402389191482600,4.687482666015625,32.92045211791992,-3.019742250442505,23.095523834228516
1789402389201409000,4.697408935546875,33.68136978149414,-4.3549370765686035,23.636302947998047
1789402389211335400,4.70733544921875,28.934011459350586,-7.4225358963012695,20.391633987426758
1789402389221261600,4.717261474609375,21.391834259033203,-11.47119140625,15.54377555847168
1789402389231188000,4.72718798828125,14.036297798156738,-15.538990020751953,10.705488204956055
1789402389241114400,4.7371142578125,9.686145782470703,-18.664016723632812,7.412964344024658
1789402389251040800,4.747040771484375,4.666004180908203,-20.578275680541992,4.7234320640563965
1789402389260967200,4.75696728515625,-1.4261223077774048,-20.52084732055664,5.326423168182373
1789402389270893300,4.766893310546875,-5.929414749145508,-20.013568878173828,8.738588333129883
1789402389280819700,4.77681982421875,-22.894527435302734,-18.09930992126465,9.389435768127441
1789402389290746000,4.78674609375,-79.8484878540039,-13.95972728729248,3.5461630821228027
1789402389300672500,4.796672607421875,-33.41337585449219,-11.686545372009277,9.073583602905273
1789402389310599000,4.806598876953125,-5.015356063842773,-14.58186149597168,11.868400573730469
1789402389320525300,4.816525390625,9.81535816192627,-13.141382217407227,10.84427261352539
1789402389330451500,4.826451416015625,1.7228323221206665,-13.284951210021973,13.892727851867676
1789402389340377900,4.8363779296875,-7.17368221282959,-12.246466636657715,12.614960670471191
1789402389350304300,4.84630419921875,-5.781059741973877,-10.265209197998047,11.69133186340332
1789402389360230700,4.856230712890625,-3.8045880794525146,-8.078168869018555,10.667202949523926
1789402389370157000,4.866156982421875,-2.3880369663238525,-6.867401123046875,10.461421012878418
1789402389380083200,4.876083251953125,-2.2683959007263184,-5.31685209274292,11.56690502166748
1789402389390009600,4.886009521484375,-3.3786656856536865,-6.781259536743164,15.074782371520996
1789402389399936000,4.89593603515625,-6.474977970123291,0.5886343717575073,10.50927734375
1789402389409862400,4.9058623046875,-6.226124286651611,-2.6081767082214355,1.8137595653533936
1789402389419788800,4.915788818359375,7.503891944885254,-3.115455150604248,8.417949676513672
1789402389429715200,4.925715087890625,-8.63330364227295,4.039084434509277,3.603590965270996
1789402389439641600,4.9356416015625,2.6943182945251465,-0.3684946894645691,8.504091262817383
1789402389449568000,4.945568115234375,1.588834285736084,0.4977070987224579,11.882757186889648
1789402389459494100,4.955494140625,-0.8805587291717529,3.5126636028289795,1.2442678213119507
1789402389469420500,4.965420654296875,-6.283552169799805,1.2299108505249023,-1.6606189012527466
1789402389479347000,4.975346923828125,-4.264009952545166,3.7232320308685303,5.201996326446533
1789402389489273300,4.9852734375,-3.1106693744659424,3.7663028240203857,4.7712883949279785
1789402389499199700,4.99519970703125,-3.7232320308685303,3.7184464931488037,1.8664016723632812
1789402389509126100,5.005126220703125,-3.5270206928253174,3.4169507026672363,2.823530673980713
1789402389519052300,5.01505224609375,-3.0963125228881836,4.661218643188477,5.058426856994629
1789402389528978700,5.024978759765625,-3.5844483375549316,5.60399055480957,5.096712112426758
1789402389538905000,5.034905029296875,-4.73300313949585,7.283751964569092,4.043870449066162
1789402389548831500,5.04483154296875,-2.1774685382843018,5.747560024261475,6.474977970123291
1789402389558758000,5.0547578125,-0.760917603969574,5.613562107086182,4.9435715675354
1789402389568684000,5.06468408203125,-1.0241280794143677,5.527420520782471,8.781659126281738
1789402389578610400,5.0746103515625,1.3304094076156616,4.627718925476074,10.53799057006836
1789402389588536800,5.084536865234375,3.469592809677124,5.37906551361084,11.069197654724121
1789402389598463200,5.094463134765625,-0.8422735929489136,0.0526420995593071,9.93978500366211
1789402389608389600,5.1043896484375,-10.829915046691895,-0.2967100143432617,11.351551055908203
1789402389618316000,5.11431591796875,-7.752745151519775,-2.3497519493103027,6.331408500671387
1789402389628242200,5.1242421875,-9.073583602905273,-8.585447311401367,7.977670669555664
1789402389638168600,5.13416845703125,-7.762316703796387,-11.461620330810547,3.570091485977173
1789402389648095000,5.144094970703125,-2.297109842300415,-14.620146751403809,5.31685209274292
1789402389658021400,5.154021484375,7.628318786621094,-19.185651779174805,9.332008361816406
1789402389667947800,5.16394775390625,12.370893478393555,-20.98505401611328,20.822341918945312
1789402389677874200,5.173874267578125,-4.445864677429199,-17.89352798461914,16.1850528717041
1789402389687800300,5.18380029296875,-6.857829570770264,-18.28594970703125,9.848857879638672
1789402389697726700,5.193726806640625,-4.9292144775390625,-16.151552200317383,9.968499183654785
1789402389707653000,5.203653076171875,-5.278566837310791,-15.18006706237793,7.527820110321045
1789402389717579500,5.21357958984375,-5.66620397567749,-14.605789184570312,4.575077056884766
1789402389727506000,5.223505859375,-4.249652862548828,-14.725430488586426,2.7661030292510986
1789402389737432000,5.23343212890625,-3.10109806060791,-16.22812271118164,-0.9044869542121887
1789402389747358500,5.2433583984375,-2.4646072387695312,-17.3814640045166,-2.8139593601226807
1789402389757284900,5.253284912109375,-0.698704183101654,-16.673187255859375,-3.6370904445648193
1789402389767211300,5.263211181640625,3.105883836746216,-17.663816452026367,-7.259823799133301
1789402389777137700,5.2731376953125,2.833101987838745,-14.66800308227539,1.6941183805465698
1789402389787064000,5.28306396484375,4.900500774383545,-10.327422142028809,6.738188743591309
1789402389796990200,5.292990234375,-0.7848458290100098,-8.489734649658203,17.67338752746582
1789402389806916600,5.30291650390625,-2.9862427711486816,1.3256237506866455,29.824140548706055
1789402389816843000,5.312843017578125,-13.418949127197266,4.914857864379883,28.809585571289062
1789402389826769400,5.322769287109375,-10.41356372833252,2.967100143432617,19.03251075744629
1789402389836695800,5.33269580078125,-7.848458290100098,4.579862594604492,17.39582061767578
1789402389846622000,5.3426220703125,-6.38883638381958,5.063212871551514,15.414563179016113
1789402389856548400,5.35254833984375,-7.389036178588867,7.63310432434082,13.131811141967773
1789402389866474800,5.362474853515625,-7.5804619789123535,8.279166221618652,10.327422142028809
1789402389876401200,5.372401123046875,-6.9104719161987305,7.77188777923584,9.839286804199219
1789402389886327600,5.38232763671875,-4.962714195251465,7.23589563369751,10.13599681854248
1789402389896254000,5.39225390625,-4.153940200805664,6.948757171630859,9.513862609863281
1789402389906180000,5.40218017578125,-6.953542709350586,5.551348686218262,10.1216402053833
1789402389916106500,5.4121064453125,-4.843072891235352,4.666004180908203,11.236695289611816
1789402389926033000,5.422032958984375,-8.489734649658203,5.623133182525635,13.299307823181152
1789402389935959300,5.431959228515625,-12.265608787536621,-0.8422735929489136,11.504691123962402
1789402389945885700,5.4418857421875,-2.713460922241211,-8.542376518249512,5.498706340789795
1789402389955812000,5.45181201171875,-0.44027936458587646,-7.307680130004883,5.010570526123047
1789402389965738200,5.46173828125,-2.076970100402832,-1.545763373374939,12.16511058807373
1789402389975664600,5.47166455078125,-18.510875701904297,-15.964912414550781,5.221138954162598
1789402389985591000,5.481591064453125,7.475177764892578,-29.57050132751465,-6.752545356750488
1789402389995517400,5.491517333984375,4.833501815795898,-30.814769744873047,-6.580262184143066
1789402390005443800,5.50144384765625,-1.4931213855743408,-20.238494873046875,2.445464849472046
1789402390015370000,5.511369873046875,-2.5076780319213867,-17.29532241821289,6.585047721862793
1789402390025296400,5.52129638671875,-2.282752752304077,-18.367305755615234,7.020541667938232
1789402390035222800,5.531222900390625,-3.728017568588257,-16.725830078125,6.3601226806640625
1789402390045149200,5.541149169921875,-4.584648132324219,-16.677974700927734,5.426921844482422
1789402390055075600,5.55107568359375,-5.690132141113281,-12.935599327087402,6.652047157287598
1789402390065002000,5.561001953125,-6.652047157287598,-11.514262199401855,7.915457248687744
1789402390074928000,5.57092822265625,-6.766902446746826,-2.909672260284424,-2.5220351219177246
1789402390084854500,5.5808544921875,-3.345165967941284,-4.230510234832764,4.852644443511963
1789402390094781000,5.590781005859375,-3.84765887260437,-4.340580463409424,7.077969551086426
1789402390104707300,5.600707275390625,-4.163511276245117,-6.173482418060303,8.819944381713867
1789402390114633700,5.6106337890625,-2.799602508544922,-9.614361763000488,9.55214786529541
1789402390124560000,5.620559814453125,-6.752545356750488,-8.149953842163086,7.125825881958008
1789402390134486300,5.630486328125,-7.341179847717285,-10.097711563110352,4.077369689941406
1789402390144412700,5.64041259765625,-6.8243303298950195,-12.868599891662598,2.4885356426239014
1789402390154339000,5.650339111328125,-4.9052863121032715,-11.648261070251465,3.689732551574707
1789402390164265200,5.66026513671875,-0.2967100143432617,-2.4358935356140137,6.69990348815918
1789402390174191600,5.670191650390625,-3.0388846397399902,1.7084753513336182,6.872186660766602
1789402390184118000,5.680117919921875,-6.254838466644287,4.603790760040283,6.8865437507629395
1789402390194044400,5.69004443359375,-5.522634506225586,11.279766082763672,4.321437835693359
1789402390203970800,5.699970703125,-0.48813581466674805,13.466805458068848,3.1202406883239746
1789402390213897000,5.70989697265625,-11.892328262329102,12.978670120239258,5.723631858825684
1789402390223823400,5.7198232421875,-13.505090713500977,6.805187702178955,8.087740898132324
1789402390233749800,5.729749755859375,-7.3986077308654785,20.358135223388672,2.861815929412842
1789402390243676200,5.73967626953125,-13.007384300231934,19.759929656982422,4.374079704284668
1789402390253602600,5.7496025390625,-18.82672882080078,17.127824783325195,-3.2685956954956055
1789402390263529000,5.759529052734375,13.840085983276367,-24.717857360839844,8.901300430297852
1789402390273455000,5.769455078125,7.36032247543335,-15.510276794433594,10.949556350708008
1789402390283381500,5.779381591796875,-12.31825065612793,-36.701114654541016,8.8438720703125
1789402390293308000,5.789307861328125,-18.061025619506836,-29.403003692626953,21.042482376098633
1789402390303234300,5.799234375,2.053041934967041,-37.323246002197266,11.155339241027832
1789402390313160700,5.80916064453125,-4.914857864379883,-21.836898803710938,7.762316703796387
1789402390323086800,5.8190869140625,-9.418149948120117,-15.55334758758545,4.460221290588379
1789402390333013200,5.82901318359375,-9.384650230407715,-11.96889877319336,1.1054840087890625
1789402390342939600,5.838939697265625,-7.5086774826049805,-10.360921859741211,-7.020541667938232
1789402390352866000,5.848865966796875,-11.184053421020508,-11.45683479309082,-5.359922885894775
1789402390362792200,5.858792236328125,-8.02074146270752,-13.825729370117188,6.3601226806640625
1789402390372718600,5.868718505859375,-3.704089403152466,-10.360921859741211,9.111868858337402
1789402390382644700,5.878644775390625,-2.0961127281188965,-7.3746795654296875,7.025327205657959
1789402390392571100,5.888571044921875,-2.2540390491485596,-6.465406894683838,5.077569484710693
1789402390402497500,5.89849755859375,-4.206582069396973,-6.781259536743164,3.594019651412964
1789402390412423700,5.908423583984375,-5.752345561981201,-7.221538543701172,3.4743785858154297
1789402390422350000,5.91835009765625,-6.613761901855469,-6.417550563812256,3.1441688537597656
1789402390432276200,5.928276123046875,-5.867201328277588,-5.4795637130737305,2.3401806354522705
1789402390442202600,5.93820263671875,-5.335994720458984,-3.1728827953338623,1.1581261157989502
1789402390452129000,5.94812890625,-4.039084434509277,-1.2251251935958862,1.0959128141403198
1789402390462055400,5.958055419921875,-2.172683000564575,-1.2873386144638062,0.6891329288482666
1789402390471981800,5.96798193359375,-0.8422735929489136,-0.8709874153137207,3.3068809509277344
1789402390481908200,5.977908203125,-1.7324036359786987,-2.0817556381225586,8.882157325744629
1789402390491834400,5.98783447265625,-4.948357105255127,-3.460021495819092,10.26042366027832
1789402390501760800,5.9977607421875,-6.585047721862793,-4.120440483093262,7.992027759552002
1789402390511687200,6.007687255859375,-4.756931304931641,-6.838686943054199,7.843672752380371
1789402390521613600,6.017613525390625,-5.283352375030518,-5.4556355476379395,9.28893756866455
1789402390531540000,6.0275400390625,-8.915657043457031,-6.738188743591309,11.117053985595703
1789402390541466000,6.037466064453125,-9.006584167480469,-7.025327205657959,11.47119140625
1789402390551392500,6.047392578125,-10.657631874084473,-6.819544315338135,11.547761917114258
1789402390561319000,6.05731884765625,-8.116454124450684,-6.4510498046875,10.978270530700684
1789402390571245300,6.067245361328125,-4.790431022644043,-7.3746795654296875,10.786844253540039
1789402390581171700,6.077171630859375,-5.804987907409668,-7.5086774826049805,12.05504035949707
1789402390591098000,6.08709814453125,-6.321837425231934,-6.57547664642334,11.825329780578613
1789402390601024300,6.097024169921875,-7.9250288009643555,-5.7858452796936035,10.916056632995605
1789402390610950700,6.10695068359375,-8.93958568572998,-5.570491313934326,11.538190841674805
1789402390620877000,6.116876953125,-7.465606689453125,-7.451249599456787,11.35633659362793
1789402390630803500,6.126803466796875,-5.814558982849121,-9.77707290649414,12.208181381225586
1789402390640729900,6.136729736328125,-6.4510498046875,-11.743973731994629,12.31825065612793
1789402390650656300,6.14665625,-7.75753116607666,-10.566704750061035,12.07896900177002
1789402390660582400,6.15658251953125,-5.97727108001709,-9.480362892150879,10.571490287780762
1789402390670508800,6.1665087890625,-5.149354457855225,-6.063412666320801,6.709474563598633
1789402390680435200,6.176435302734375,1.5984054803848267,-1.28255295753479,3.201596736907959
1789402390690361600,6.186361572265625,3.7423746585845947,3.335594654083252,0.5407779216766357
1789402390700288000,6.1962880859375,3.263810157775879,6.709474563598633,-2.526820659637451
1789402390710214100,6.206214111328125,1.3304094076156616,9.135796546936035,-4.838287353515625
1789402390720140500,6.216140625,-1.1724830865859985,6.652047157287598,-6.661618232727051
1789402390730067000,6.22606689453125,-3.7471601963043213,3.3308091163635254,-4.852644443511963
1789402390739993300,6.235993408203125,-5.804987907409668,1.2586246728897095,0.30149564146995544
1789402390749919700,6.245919677734375,-6.235695838928223,-0.30628129839897156,4.728217601776123
1789402390759846100,6.25584619140625,-4.359723091125488,-1.4500504732131958,6.1399827003479
1789402390769772300,6.265772216796875,-3.3547372817993164,-2.2923240661621094,5.824130535125732
1789402390779698700,6.27569873046875,-5.024927616119385,-2.5220351219177246,5.355136871337891
1789402390789625000,6.285625,-6.417550563812256,-3.077169895172119,4.986642360687256
1789402390799551500,6.295551513671875,-8.23130989074707,-2.493321180343628,5.513063430786133
1789402390809478000,6.305477783203125,-8.963513374328613,-2.2301106452941895,6.714260101318359
1789402390819404000,6.315404052734375,-6.766902446746826,-2.431107759475708,7.623532772064209
1789402390829330400,6.325330322265625,-5.8719868659973145,-1.7850457429885864,8.2695951461792
1789402390839256800,6.3352568359375,-6.183053493499756,-1.459621787071228,8.757730484008789
1789402390849183200,6.345183349609375,-6.3361945152282715,-1.5170495510101318,9.370293617248535
1789402390859109400,6.355109375,-7.451249599456787,-2.172683000564575,9.542576789855957
1789402390869035800,6.365035888671875,-9.044869422912598,-2.723032236099243,9.719645500183105
1789402390878962000,6.3749619140625,-8.920442581176758,-3.483949661254883,9.710074424743652
1789402390888888300,6.384888427734375,-7.441678524017334,-3.972085475921631,8.781659126281738
1789402390898814700,6.394814697265625,-7.09711217880249,-4.067798614501953,7.982456207275391
1789402390908740900,6.404740966796875,-6.790830612182617,-3.8428730964660645,7.010970115661621
1789402390918667300,6.414667236328125,-6.273981094360352,-3.211168050765991,6.498906135559082
1789402390928593400,6.424593505859375,-5.771488189697266,-2.455035924911499,6.154339790344238
1789402390938519800,6.434519775390625,-4.622933387756348,-1.9764715433120728,5.60399055480957
1789402390948446200,6.4444462890625,-4.177868366241455,-1.526620864868164,5.048855781555176
1789402390958372600,6.45437255859375,-4.273581027984619,-1.0671988725662231,4.642076015472412
1789402390968299000,6.464299072265625,-3.799802303314209,-1.0145567655563354,4.603790760040283
1789402390978225400,6.474225341796875,-4.139583110809326,-1.3399807214736938,4.661218643188477
1789402390988151600,6.484151611328125,-4.780859470367432,-1.7371892929077148,5.139782905578613
1789402390998078000,6.494077880859375,-4.627718925476074,-2.1296122074127197,5.900700569152832
1789402391008004400,6.50400439453125,-4.656432628631592,-2.344966173171997,6.441478729248047
1789402391017930800,6.5139306640625,-5.20678186416626,-2.5363919734954834,7.23589563369751
1789402391027857200,6.523857177734375,-4.680361270904541,-2.8809585571289062,7.83410120010376
1789402391037783600,6.533783447265625,-4.07258415222168,-3.603590965270996,8.159524917602539
1789402391047709700,6.543709716796875,-5.163711071014404,-4.019941806793213,8.011170387268066
1789402391057636000,6.553635986328125,-5.910272121429443,-4.34536600112915,8.327022552490234
1789402391067562500,6.5635625,-5.97727108001709,-4.627718925476074,8.700303077697754
1789402391077489000,6.573489013671875,-6.149554252624512,-4.867001056671143,8.657232284545898
1789402391087415300,6.583415283203125,-5.144568920135498,-4.919643402099609,8.652446746826172
1789402391097341400,6.593341552734375,-4.48414945602417,-5.201996326446533,7.83410120010376
1789402391107267800,6.603267822265625,-4.622933387756348,-5.101497650146484,7.020541667938232
1789402391117194200,6.6131943359375,-3.761517286300659,-5.010570526123047,6.063412666320801
1789402391127120600,6.62312060546875,-3.78544545173645,-5.216353416442871,5.182853698730469
1789402391137047000,6.633047119140625,-4.646861553192139,-5.771488189697266,4.713860511779785
1789402391146973200,6.64297314453125,-3.8189449310302734,-6.321837425231934,4.7234320640563965
1789402391156899600,6.652899658203125,-5.54177713394165,-6.9822564125061035,5.465207099914551
1789402391166825700,6.66282568359375,-5.312066078186035,-7.09711217880249,6.8243303298950195
1789402391176752000,6.672752197265625,-6.2500529289245605,-6.5419769287109375,8.752944946289062
1789402391186678500,6.682678466796875,-5.804987907409668,-6.159125328063965,9.255437850952148
1789402391196604700,6.692604736328125,-5.326423168182373,-5.584847927093506,9.332008361816406
1789402391206531000,6.702531005859375,-4.642076015472412,-5.216353416442871,8.767302513122559
1789402391216457200,6.712457275390625,-5.938985824584961,-4.7473602294921875,8.662017822265625
1789402391226383600,6.722383544921875,-6.393621921539307,-4.780859470367432,8.886942863464355
1789402391236310000,6.73231005859375,-6.4319071769714355,-5.2354960441589355,9.4660062789917
1789402391246236400,6.742236328125,-6.498906135559082,-6.082555294036865,9.604789733886719
1789402391256162800,6.752162841796875,-6.4941205978393555,-6.671189308166504,9.489934921264648
1789402391266089000,6.7620888671875,-6.283552169799805,-7.0683979988098145,9.28893756866455
1789402391276015400,6.772015380859375,-5.580062389373779,-7.154539585113525,9.260223388671875
1789402391285941800,6.781941650390625,-4.565505504608154,-7.523034572601318,8.60459041595459
1789402391295868200,6.7918681640625,-4.493721008300781,-7.77188777923584,7.350750923156738
1789402391305794600,6.801794677734375,-5.465207099914551,-7.652246952056885,7.211967468261719
1789402391315720700,6.811720703125,-5.934200286865234,-7.968099594116211,6.719046115875244
1789402391325647000,6.821647216796875,-6.460621356964111,-8.068597793579102,6.26440954208374
1789402391335573500,6.831573486328125,-6.427121639251709,-7.776673793792725,6.527620315551758
1789402391345500000,6.8415,-6.422336101531982,-7.494320392608643,6.92482852935791
1789402391355426000,6.851426025390625,-5.704489231109619,-6.953542709350586,6.556334018707275
1789402391365352400,6.8613525390625,-4.316651821136475,-5.575276851654053,8.422736167907715
1789402391375278600,6.871278564453125,-2.076970100402832,-5.5034918785095215,8.719446182250977
1789402391385205000,6.881205078125,-2.0243279933929443,-5.532206058502197,8.72901725769043
1789402391395131400,6.89113134765625,-2.3497519493103027,-6.005984783172607,7.513463020324707
1789402391405057500,6.9010576171875,-3.3547372817993164,-6.029912948608398,6.321837425231934
1789402391414984000,6.91098388671875,-4.292723655700684,-6.087340831756592,5.891129493713379
1789402391424910000,6.92091015625,-5.412564754486084,-5.7858452796936035,6.608976364135742
1789402391434836500,6.93083642578125,-6.594619274139404,-5.374279499053955,7.910671710968018
1789402391444763000,6.940762939453125,-6.527620315551758,-5.039284706115723,8.6907320022583
1789402391454689300,6.950689208984375,-5.958128452301025,-4.823930263519287,8.891729354858398
1789402391464615700,6.96061572265625,-5.446064472198486,-4.7234320640563965,8.628518104553223
1789402391474542000,6.9705419921875,-5.230710506439209,-4.780859470367432,8.63330364227295
1789402391484468200,6.98046826171875,-4.9292144775390625,-5.063212871551514,8.384450912475586
1789402391494394600,6.99039453125,-5.3694939613342285,-5.594419479370117,7.901100158691406
1789402391504321000,7.000321044921875,-6.446264266967773,-5.924628734588623,7.125825881958008
1789402391514247400,7.010247314453125,-6.537191390991211,-5.737988471984863,6.216553211212158
1789402391524173800,7.020173828125,-5.857629776000977,-5.149354457855225,5.216353416442871
1789402391534100000,7.030099853515625,-6.738188743591309,-4.632504463195801,5.556134223937988
1789402391544026400,7.0400263671875,-6.03948450088501,-4.024727821350098,6.283552169799805
1789402391553952800,7.049952880859375,-5.422136306762695,-3.641875982284546,7.29810905456543
1789402391563879000,7.05987890625,-5.422136306762695,-3.3930225372314453,8.685946464538574
1789402391573805300,7.069805419921875,-5.91505765914917,-3.5030922889709473,9.80100154876709
1789402391583731500,7.0797314453125,-6.652047157287598,-3.8285162448883057,10.341779708862305
1789402391593657900,7.089657958984375,-6.814758777618408,-4.201796531677246,10.13599681854248
1789402391603584300,7.099584228515625,-6.106483459472656,-4.512863636016846,9.394221305847168
1789402391613510400,7.109510498046875,-4.876572608947754,-4.503292083740234,8.934800148010254
1789402391623436800,7.119436767578125,-5.048855781555176,-4.364508628845215,9.116654396057129
1789402391633363200,7.12936328125,-6.2500529289245605,-4.541577339172363,8.997013092041016
1789402391643289300,7.139289306640625,-7.637889862060547,-4.823930263519287,8.283951759338379
1789402391653215700,7.1492158203125,-7.920242786407471,-5.125426292419434,7.4464640617370605
1789402391663142100,7.15914208984375,-7.599604606628418,-5.125426292419434,7.0923261642456055
1789402391673068500,7.169068603515625,-7.0923261642456055,-5.034498691558838,7.207181930541992
1789402391682995000,7.178994873046875,-6.508477687835693,-4.919643402099609,7.475177764892578
1789402391692921300,7.18892138671875,-5.7858452796936035,-5.197210788726807,7.106683254241943
1789402391702847500,7.198847412109375,-5.201996326446533,-5.412564754486084,6.2500529289245605
1789402391712774000,7.20877392578125,-4.666004180908203,-5.31685209274292,5.2354960441589355
1789402391722700300,7.2187001953125,-3.5605201721191406,-4.847858905792236,4.3310089111328125
1789402391732626700,7.228626708984375,-2.761317253112793,-4.043870449066162,3.4983067512512207
1789402391742552800,7.238552734375,-2.163111686706543,-2.933600664138794,2.66560435295105
1789402391752479200,7.248479248046875,-2.6081767082214355,-2.172683000564575,1.8999011516571045
1789402391762405600,7.258405517578125,-3.029313564300537,-1.7611174583435059,1.196411371231079
1789402391772331800,7.268331787109375,-2.8905298709869385,-1.5936198234558105,0.2105683982372284
1789402391782258200,7.278258056640625,-2.1535403728485107,-1.1676974296569824,0.397208571434021
1789402391792184300,7.288184326171875,-1.8137595653533936,-0.9044869542121887,0.5886343717575073
1789402391802110700,7.29811083984375,-2.589034080505371,-0.8470591902732849,0.7322037220001221
1789402391812037000,7.308037109375,-3.7806596755981445,-1.3304094076156616,0.46899324655532837
1789402391821963300,7.31796337890625,-4.273581027984619,-1.679761528968811,0.607776939868927
1789402391831889700,7.3278896484375,-4.622933387756348,-1.2059825658798218,1.765903115272522
1789402391841815800,7.33781591796875,-4.589433670043945,-0.49292147159576416,3.2350962162017822
1789402391851742200,7.3477421875,-4.709074974060059,-0.3732803463935852,4.139583110809326
1789402391861668600,7.357668701171875,-5.446064472198486,-0.8422735929489136,4.651647090911865
1789402391871594800,7.3675947265625,-7.015756130218506,-1.1581261157989502,6.063412666320801
1789402391881521200,7.377521240234375,-7.202396392822266,-1.8616160154342651,7.326822757720947
1789402391891447600,7.387447509765625,-7.125825881958008,-2.5842485427856445,8.461020469665527
1789402391901373700,7.397373779296875,-6.728617191314697,-3.6323046684265137,8.628518104553223
1789402391911300000,7.407300048828125,-7.058826923370361,-4.091726779937744,8.37009334564209
1789402391921226200,7.417226318359375,-7.494320392608643,-4.4650068283081055,7.8388872146606445
1789402391931152600,7.427152587890625,-8.642875671386719,-4.560719966888428,7.460821151733398
1789402391941079000,7.4370791015625,-9.56650447845459,-4.642076015472412,7.341179847717285
1789402391951005400,7.44700537109375,-8.547162055969238,-4.776073932647705,7.676175117492676
1789402391960931800,7.456931884765625,-8.087740898132324,-4.910071849822998,7.8628153800964355
1789402391970858200,7.466858154296875,-7.9250288009643555,-5.034498691558838,7.781459331512451
1789402391980784400,7.476784423828125,-7.901100158691406,-4.752145767211914,7.992027759552002
1789402391990710800,7.486710693359375,-8.551948547363281,-4.177868366241455,8.542376518249512
1789402392000637200,7.49663720703125,-7.269395351409912,-3.8189449310302734,8.86780071258545
1789402392010563600,7.5065634765625,-6.98704195022583,-3.5509488582611084,8.614161491394043
1789402392020490000,7.516489990234375,-6.221338748931885,-3.249453067779541,8.23130989074707
1789402392030416100,7.526416015625,-6.197410583496094,-3.0005996227264404,8.073383331298828
1789402392040342500,7.536342529296875,-6.570691108703613,-2.9048867225646973,8.173882484436035
1789402392050268700,7.5462685546875,-4.934000492095947,-3.3547372817993164,7.661818027496338
1789402392060195000,7.556195068359375,-4.383651256561279,-3.8668015003204346,7.11146879196167
1789402392070121500,7.56612158203125,-5.340780258178711,-4.493721008300781,6.183053493499756
1789402392080047600,7.576047607421875,-5.694917678833008,-5.407779216766357,6.082555294036865
1789402392089974000,7.58597412109375,-6.709474563598633,-5.938985824584961,7.250252723693848
1789402392099900400,7.595900390625,-6.436692714691162,-6.144768714904785,8.910871505737305
1789402392109826600,7.60582666015625,-5.034498691558838,-6.379265308380127,9.633503913879395
1789402392119753000,7.6157529296875,-5.465207099914551,-6.867401123046875,9.221938133239746
1789402392129679000,7.62567919921875,-5.412564754486084,-6.900900363922119,8.906085968017578
1789402392139605500,7.63560546875,-3.88594388961792,-6.216553211212158,8.676374435424805
1789402392149532000,7.645531982421875,-3.201596736907959,-5.426921844482422,8.427521705627441
1789402392159458000,7.6554580078125,-2.8809585571289062,-5.197210788726807,7.69531774520874
1789402392169384400,7.665384521484375,-3.359523057937622,-5.283352375030518,6.915257453918457
1789402392179310600,7.675310546875,-4.340580463409424,-5.733202934265137,6.5180487632751465
1789402392189237000,7.685237060546875,-5.484349727630615,-6.838686943054199,6.5180487632751465
1789402392199163400,7.695163330078125,-5.3455657958984375,-7.83410120010376,6.106483459472656
1789402392209089500,7.705089599609375,-5.685346603393555,-8.202595710754395,5.522634506225586
1789402392219016000,7.715015869140625,-5.651846885681152,-8.12123966217041,5.9437713623046875
1789402392228942300,7.7249423828125,-4.488935470581055,-7.752745151519775,5.804987907409668
1789402392238868500,7.734868408203125,-4.488935470581055,-6.996613502502441,5.134997367858887
1789402392248795000,7.744794921875,-4.086941242218018,-5.737988471984863,4.838287353515625
1789402392258721000,7.754720947265625,-4.4410786628723145,-4.575077056884766,4.981856822967529
1789402392268647400,7.7646474609375,-4.326223373413086,-3.82373046875,5.364708423614502
1789402392278573800,7.77457373046875,-4.34536600112915,-3.641875982284546,5.527420520782471
1789402392288500000,7.7845,-4.895715236663818,-3.809373617172241,5.766702651977539
1789402392298426400,7.79442626953125,-4.374079704284668,-4.450650215148926,5.9676995277404785
1789402392308352800,7.804352783203125,-4.910071849822998,-5.024927616119385,6.9104719161987305
1789402392318279000,7.81427880859375,-4.642076015472412,-5.254638671875,7.781459331512451
1789402392328205300,7.824205322265625,-4.297509670257568,-5.85284423828125,7.70967435836792
1789402392338131500,7.83413134765625,-5.197210788726807,-6.704689025878906,6.838686943054199
1789402392348057900,7.844057861328125,-6.034698486328125,-7.11146879196167,6.144768714904785
1789402392357984300,7.853984375,-5.690132141113281,-6.939185619354248,5.747560024261475
1789402392367910400,7.863910400390625,-4.790431022644043,-6.350551128387451,5.824130535125732
1789402392377836800,7.8738369140625,-3.4887354373931885,-5.685346603393555,5.85284423828125
1789402392387763000,7.883762939453125,-2.526820659637451,-5.163711071014404,5.699703693389893
1789402392397689300,7.893689453125,-2.311466693878174,-4.862215518951416,5.85284423828125
1789402392407615700,7.90361572265625,-2.201396942138672,-4.785645484924316,5.8719868659973145
1789402392417542000,7.9135419921875,-2.785245656967163,-4.828716278076172,6.26440954208374
1789402392427468300,7.92346826171875,-3.713660717010498,-5.249852657318115,7.09711217880249
1789402392437394700,7.933394775390625,-5.149354457855225,-6.001199245452881,8.48016357421875
1789402392447320800,7.94332080078125,-6.9104719161987305,-7.494320392608643,9.241081237792969
1789402392457247200,7.953247314453125,-9.805787086486816,-8.992227554321289,9.556933403015137
1789402392467173400,7.96317333984375,-12.160325050354004,-10.102497100830078,9.968499183654785
1789402392477099800,7.973099853515625,-10.370492935180664,-10.99741268157959,10.145567893981934
1789402392487026200,7.983026123046875,-7.661818027496338,-11.212766647338867,10.097711563110352
1789402392496952300,7.992952392578125,-6.63769006729126,-10.403992652893066,9.93978500366211
1789402392506878700,8.002878662109374,-5.575276851654053,-9.265008926391602,9.06401252746582
1789402392516804900,8.012804931640625,-4.402793884277344,-7.853243827819824,8.207381248474121
1789402392526731300,8.022731201171876,-4.383651256561279,-6.187839508056641,7.551748275756836
1789402392536657700,8.03265771484375,-5.900700569152832,-5.292923450469971,7.460821151733398
1789402392546584000,8.042583984375,-7.264609336853027,-4.934000492095947,7.9968132972717285
1789402392556510500,8.052510498046875,-6.814758777618408,-5.2737812995910645,8.609375953674316
1789402392566436900,8.062436767578125,-7.0061845779418945,-4.910071849822998,9.987641334533691
1789402392576363000,8.072363037109374,-7.6043901443481445,-5.197210788726807,10.52363395690918
1789402392586289400,8.082289306640625,-7.6474609375,-5.627918720245361,10.6624174118042
1789402392596215800,8.0922158203125,-8.461020469665527,-6.168696880340576,9.93978500366211
1789402392606142200,8.10214208984375,-6.5180487632751465,-6.235695838928223,8.389236450195312
1789402392616068600,8.112068603515626,-4.120440483093262,-5.575276851654053,7.23589563369751
1789402392625994800,8.121994873046875,-2.981456995010376,-4.890929698944092,6.685546398162842
1789402392635921000,8.1319208984375,-2.6368906497955322,-4.718646049499512,5.737988471984863
1789402392645847000,8.141846923828124,-2.737389087677002,-4.287938117980957,5.426921844482422
1789402392655773400,8.1517734375,-2.589034080505371,-3.8572301864624023,4.804787635803223
1789402392665699600,8.161699462890626,-3.689732551574707,-3.5748770236968994,5.79063081741333
1789402392675625700,8.171625732421875,-5.249852657318115,-3.9146578311920166,6.628118515014648
1789402392685551900,8.1815517578125,-7.269395351409912,-4.53200626373291,6.374479293823242
1789402392695478000,8.19147802734375,-7.6666035652160645,-5.091926574707031,4.991427898406982
1789402392705404400,8.201404296875,-5.111069202423096,-5.087141036987305,3.814159393310547
1789402392715330600,8.21133056640625,-2.8283164501190186,-4.450650215148926,3.8045880794525146
1789402392725256700,8.221256591796875,-2.4598217010498047,-3.1585259437561035,4.3788652420043945
1789402392735183000,8.23118310546875,-3.0723843574523926,-2.196611166000366,4.924428939819336
1789402392745109500,8.241109619140625,-5.06799840927124,-2.043470621109009,5.26899528503418
1789402392755035600,8.25103564453125,-6.015556335449219,-2.3976082801818848,5.048855781555176
1789402392764962000,8.260962158203125,-4.938786029815674,-2.6703901290893555,4.4650068283081055
1789402392774888400,8.270888427734375,-3.665804386138916,-2.5363919734954834,4.240081787109375
1789402392784814600,8.280814697265624,-3.297309637069702,-1.8951154947280884,3.3930225372314453
1789402392794741000,8.290740966796875,-2.933600664138794,-1.3591232299804688,2.3401806354522705
1789402392804667100,8.300667236328126,-2.775674343109131,-0.7130611538887024,2.297109842300415
1789402392814593500,8.310593505859375,-2.837887763977051,-0.6173482537269592,2.1822543144226074
1789402392824520000,8.32052001953125,-3.3882367610931396,-0.397208571434021,1.8616160154342651
1789402392834446000,8.330446044921874,-3.0580272674560547,-0.363709032535553,1.7371892929077148
1789402392844372500,8.34037255859375,-3.933800458908081,-0.5551348328590393,2.3641088008880615
1789402392854298600,8.350298583984374,-4.780859470367432,-1.0959128141403198,3.5222349166870117
1789402392864225000,8.36022509765625,-5.063212871551514,-1.8711873292922974,4.34536600112915
1789402392874151400,8.3701513671875,-7.5708909034729,-2.3545374870300293,6.044270038604736
1789402392884077600,8.38007763671875,-9.796216011047363,-2.761317253112793,8.915657043457031
1789402392894004000,8.39000390625,-10.351350784301758,-2.723032236099243,11.24626636505127
1789402392903930400,8.399930419921875,-8.193024635314941,-3.029313564300537,10.954341888427734
1789402392913856500,8.4098564453125,-7.69531774520874,-3.421736478805542,8.86780071258545
1789402392923783000,8.419782958984374,-8.193024635314941,-3.397808074951172,7.503891944885254
1789402392933709000,8.429708984375,-6.302694797515869,-3.775874137878418,5.737988471984863
1789402392943635200,8.43963525390625,-5.85284423828125,-3.5461630821228027,4.833501815795898
1789402392953561600,8.4495615234375,-6.216553211212158,-2.919243574142456,4.599005222320557
1789402392963487700,8.45948779296875,-4.1730828285217285,-2.8283164501190186,3.871587038040161
1789402392973414100,8.4694140625,-3.2542388439178467,-2.2779672145843506,3.2685956954956055
1789402392983340300,8.47934033203125,-4.029513359069824,-1.526620864868164,3.2542388439178467
1789402392993266400,8.489266357421876,-4.709074974060059,-1.2442678213119507,3.5030922889709473
1789402393003192800,8.49919287109375,-4.996213912963867,-1.2394821643829346,3.8285162448883057
1789402393013119000,8.509118896484376,-4.766502857208252,-1.301695466041565,4.235296249389648
1789402393023045400,8.51904541015625,-4.302295207977295,-1.8903298377990723,4.53200626373291
1789402393032971800,8.5289716796875,-4.862215518951416,-2.579462766647339,5.335994720458984
1789402393042898200,8.538898193359374,-6.187839508056641,-2.9144580364227295,6.747759819030762
1789402393052824600,8.548824462890625,-5.489135265350342,-3.675375461578369,7.853243827819824
1789402393062750700,8.558750732421874,-3.680161237716675,-4.153940200805664,8.810373306274414
1789402393072677000,8.568677001953125,-7.322037220001221,-3.9672999382019043,9.69093132019043
1789402393082603500,8.578603515625,-9.399007797241211,-5.053641319274902,8.537590980529785
1789402393092530000,8.588530029296875,-10.963912963867188,-5.374279499053955,10.882556915283203
1789402393102456300,8.598456298828125,-7.623532772064209,-6.049055576324463,13.935798645019531
1789402393112382700,8.6083828125,-4.201796531677246,-8.202595710754395,13.356736183166504
1789402393122308900,8.618308837890625,-8.298309326171875,-7.81974458694458,13.208380699157715
1789402393132235000,8.628235107421874,-3.129812002182007,-7.700103282928467,10.700702667236328
1789402393142161200,8.6381611328125,-2.9288148880004883,-7.4847493171691895,6.819544315338135
1789402393152087300,8.64808740234375,-8.74337387084961,-5.828916072845459,5.158925533294678
1789402393162013700,8.658013671875,-5.661418437957764,-4.522434711456299,4.3070807456970215
1789402393171939800,8.66793994140625,-2.4263222217559814,-3.814159393310547,3.713660717010498
1789402393181866000,8.677865966796874,-3.397808074951172,-3.751945972442627,3.7232320308685303
1789402393191792000,8.687792236328125,-2.579462766647339,-4.680361270904541,3.201596736907959
1789402393201718300,8.69771826171875,-5.288137912750244,-5.3312087059021,4.445864677429199
1789402393211644700,8.707644775390625,-6.666403770446777,-6.321837425231934,6.178267955780029
1789402393221570800,8.71757080078125,-4.244867324829102,-7.829315662384033,7.0683979988098145
1789402393231497200,8.727497314453124,-4.867001056671143,-8.551948547363281,8.14516830444336
1789402393241423600,8.737423583984375,-6.4079790115356445,-8.34138011932373,8.93958568572998
1789402393251349800,8.747349853515624,-7.168896675109863,-7.527820110321045,10.461421012878418
1789402393261276200,8.757276123046875,-7.724031448364258,-6.675975322723389,11.519047737121582
1789402393271202600,8.76720263671875,-4.48414945602417,-6.833901405334473,10.29870891571045
1789402393281128700,8.777128662109375,-3.5461630821228027,-6.738188743591309,8.183453559875488
1789402393291055000,8.78705517578125,-4.589433670043945,-5.938985824584961,6.412764549255371
1789402393300981200,8.796981201171874,-5.551348686218262,-4.685146808624268,5.881557941436768
1789402393310907600,8.80690771484375,-6.9104719161987305,-3.7232320308685303,7.23589563369751
1789402393320834000,8.816833984375,-6.498906135559082,-3.4504501819610596,9.044869422912598
1789402393330760200,8.82676025390625,-4.436293125152588,-4.886143684387207,8.551948547363281
1789402393340686300,8.836686279296876,-3.3068809509277344,-5.8097734451293945,7.719245910644531
1789402393350612700,8.84661279296875,-3.22552490234375,-5.924628734588623,6.814758777618408
1789402393360539000,8.856538818359375,-3.321237802505493,-6.656832695007324,4.431507587432861
1789402393370465300,8.86646533203125,-3.4504501819610596,-7.599604606628418,1.674975872039795
1789402393380391400,8.876391357421875,-5.804987907409668,-6.977470874786377,3.2446675300598145
1789402393390317800,8.88631787109375,-8.202595710754395,-6.26440954208374,5.584847927093506
1789402393400244000,8.896243896484375,-7.369893550872803,-6.7621169090271,5.374279499053955
1789402393410170000,8.906170166015626,-3.751945972442627,-8.800801277160645,4.680361270904541
1789402393420096500,8.916096435546875,-2.9766714572906494,-8.48016357421875,6.369693756103516
1789402393430022700,8.926022705078125,-5.565705299377441,-6.608976364135742,9.097511291503906
1789402393439949000,8.935948974609374,-8.140382766723633,-5.536991596221924,12.835101127624512
1789402393449875500,8.94587548828125,-5.848058700561523,-6.2500529289245605,13.615160942077637
1789402393459801600,8.955801513671876,-3.3643085956573486,-7.293323516845703,11.45683479309082
1789402393469728000,8.96572802734375,-2.775674343109131,-7.216753005981445,9.10229778289795
1789402393479654100,8.975654052734376,-3.4791641235351562,-6.9344000816345215,7.29810905456543
1789402393489580500,8.98558056640625,-6.723831653594971,-6.795616149902344,7.322037220001221
1789402393499507000,8.9955068359375,-7.877171993255615,-6.9822564125061035,7.714460372924805
1789402393509433000,9.00543310546875,-6.853044033050537,-7.680960655212402,7.810173034667969
1789402393519359500,9.015359375,-5.718846321105957,-7.791030406951904,7.680960655212402
1789402393529286000,9.025285888671876,-5.704489231109619,-6.747759819030762,8.451449394226074
1789402393539212300,9.03521240234375,-5.685346603393555,-5.20678186416626,9.533005714416504
1789402393549138400,9.045138427734376,-5.355136871337891,-4.273581027984619,9.80100154876709
1789402393559064800,9.05506494140625,-4.130012035369873,-4.101297855377197,9.107083320617676
1789402393568991200,9.0649912109375,-3.22552490234375,-4.07258415222168,8.451449394226074
1789402393578917600,9.074917724609374,-5.374279499053955,-4.077369689941406,8.24566650390625
1789402393588844000,9.084843994140625,-7.9968132972717285,-4.364508628845215,8.015955924987793
1789402393598770200,9.094770263671874,-9.485149383544922,-4.895715236663818,7.829315662384033
1789402393608696600,9.104696533203125,-7.307680130004883,-5.072783946990967,8.623732566833496
1789402393618623000,9.114623046875,-3.2590243816375732,-4.847858905792236,9.762716293334961
1789402393628549000,9.124549072265625,-2.5986053943634033,-4.67078971862793,9.844072341918945
1789402393638475300,9.134475341796875,-3.7710886001586914,-5.245067119598389,8.518448829650879
1789402393648401400,9.1444013671875,-6.939185619354248,-5.508277893066406,7.4464640617370605
1789402393658327600,9.15432763671875,-9.28893756866455,-5.694917678833008,5.5034918785095215
1789402393668253700,9.164253662109376,-6.527620315551758,-5.862415313720703,3.713660717010498
1789402393678179800,9.174179931640625,-2.359323024749756,-5.020142078399658,3.2685956954956055
1789402393688106000,9.18410595703125,-1.5792629718780518,-2.9862427711486816,5.063212871551514
1789402393698032000,9.1940322265625,-4.086941242218018,-1.5122638940811157,6.20219612121582
1789402393707958300,9.203958251953125,-5.7858452796936035,-1.7563318014144897,5.982056617736816
1789402393717884400,9.213884521484376,-6.345765590667725,-2.3976082801818848,5.312066078186035
1789402393727810800,9.223810791015625,-5.31685209274292,-3.2446675300598145,4.460221290588379
1789402393737737000,9.233737060546876,-3.383451223373413,-3.3882367610931396,4.852644443511963
1789402393747663000,9.2436630859375,-4.077369689941406,-2.550748825073242,5.747560024261475
1789402393757589500,9.253589599609375,-5.125426292419434,-2.00518536567688,5.627918720245361
1789402393767515600,9.263515625,-3.297309637069702,-1.9046868085861206,4.4410786628723145
1789402393777442000,9.273442138671875,-3.043670415878296,-0.9188438653945923,3.6466617584228516
1789402393787368200,9.2833681640625,-5.3455657958984375,-0.20099709928035736,3.3068809509277344
1789402393797294600,9.293294677734375,-5.158925533294678,-0.6795616149902344,2.7804598808288574
1789402393807220700,9.303220703125,-3.3643085956573486,-1.3208380937576294,1.9956140518188477
1789402393817147000,9.31314697265625,-2.1535403728485107,-1.8233308792114258,1.100698471069336
1789402393827073300,9.3230732421875,-2.3401806354522705,-1.153340458869934,0.349352091550827
1789402393836999400,9.33299951171875,-5.13021183013916,1.4644074440002441,2.7182464599609375
1789402393846925800,9.34292578125,-5.747560024261475,1.4500504732131958,4.058227062225342
1789402393856852000,9.35285205078125,-3.4169507026672363,-0.22013968229293823,4.42193603515625
1789402393866778000,9.362778076171875,-2.871387243270874,-1.5553346872329712,4.67078971862793
1789402393876704500,9.37270458984375,-5.178068161010742,-2.8283164501190186,4.847858905792236
1789402393886630700,9.382630615234374,-9.580862045288086,-3.105883836746216,6.9583282470703125
1789402393896557000,9.39255712890625,-10.231709480285645,-3.0580272674560547,8.46580696105957
1789402393906483200,9.402483154296876,-8.528019905090332,-3.1250264644622803,9.006584167480469
1789402393916409300,9.412409423828125,-4.948357105255127,-3.2590243816375732,8.260024070739746
1789402393926335700,9.422335693359376,-5.527420520782471,-2.9958138465881348,7.63310432434082
1789402393936262000,9.432261962890625,-8.178668022155762,-3.4743785858154297,6.747759819030762
1789402393946188300,9.442188232421875,-7.89631462097168,-4.292723655700684,6.3840508460998535
1789402393956114400,9.452114501953124,-6.656832695007324,-4.551148891448975,6.781259536743164
1789402393966040800,9.462040771484375,-6.623332977294922,-4.316651821136475,7.355536937713623
1789402393975967000,9.471967041015626,-5.4556355476379395,-4.249652862548828,6.671189308166504
1789402393985893000,9.48189306640625,-6.317051887512207,-3.7950167655944824,6.03948450088501
1789402393995819500,9.491819580078126,-7.848458290100098,-3.460021495819092,6.278766632080078
1789402394005745700,9.50174560546875,-6.211767673492432,-3.6945180892944336,6.709474563598633
1789402394015672000,9.511672119140625,-5.149354457855225,-4.1491546630859375,6.690331935882568
1789402394025598200,9.52159814453125,-5.2737812995910645,-4.4410786628723145,7.661818027496338
1789402394035524600,9.531524658203125,-6.211767673492432,-5.2115678787231445,5.9198431968688965
1789402394045451000,9.541450927734376,-5.044070243835449,-5.723631858825684,5.575276851654053
1789402394055377400,9.55137744140625,-6.704689025878906,-6.144768714904785,5.2977094650268555
1789402394065303800,9.5613037109375,-5.426921844482422,-6.034698486328125,5.709274768829346
1789402394075230200,9.571230224609375,-4.981856822967529,-6.044270038604736,5.699703693389893
1789402394085156400,9.58115625,-5.781059741973877,-6.168696880340576,5.867201328277588
1789402394095082800,9.591082763671874,-5.7619171142578125,-5.5034918785095215,7.70967435836792
1789402394105009200,9.601009033203125,-5.522634506225586,-4.871787071228027,9.882357597351074
1789402394114935600,9.610935546875,-4.1347975730896,-5.3934221267700195,10.001998901367188
1789402394124861700,9.62086181640625,-3.091526746749878,-5.766702651977539,9.461220741271973
1789402394134787800,9.630787841796876,-2.6368906497955322,-5.637490272521973,8.719446182250977
1789402394144714000,9.6407138671875,-2.6703901290893555,-5.422136306762695,7.676175117492676
1789402394154640100,9.65064013671875,-4.579862594604492,-5.3694939613342285,6.020341873168945
1789402394164566300,9.660566162109374,-5.9916276931762695,-5.111069202423096,4.890929698944092
1789402394174492400,9.670492431640625,-3.0484559535980225,-5.134997367858887,3.9290146827697754
1789402394184418600,9.68041845703125,-2.919243574142456,-5.37906551361084,4.398007869720459
1789402394194344700,9.6903447265625,-7.302894592285156,-5.120640277862549,6.551548480987549
1789402394204270800,9.700270751953125,-6.374479293823242,-5.474778175354004,7.369893550872803
1789402394214197000,9.710197021484374,-4.503292083740234,-5.556134223937988,7.747959613800049
1789402394224123100,9.720123046875,-3.105883836746216,-6.446264266967773,6.786045074462891
1789402394234049500,9.730049560546876,-5.804987907409668,-6.642475605010986,6.680760860443115
1789402394243975700,9.7399755859375,-7.441678524017334,-5.938985824584961,8.054241180419922
1789402394253902000,9.749902099609375,-7.365108013153076,-5.053641319274902,9.533005714416504
1789402394263828200,9.759828125,-7.503891944885254,-4.335794448852539,12.011969566345215
1789402394273754400,9.76975439453125,-6.044270038604736,-4.996213912963867,13.337593078613281
1789402394283680800,9.7796806640625,-4.1970109939575195,-7.259823799133301,11.624332427978516
1789402394293607000,9.78960693359375,-5.508277893066406,-8.059026718139648,9.480362892150879
1789402394303533300,9.799533203125,-7.685746192932129,-6.733402729034424,8.695517539978027
1789402394313459500,9.80945947265625,-6.867401123046875,-5.757131099700928,9.164510726928711
1789402394323385600,9.819385498046875,-4.230510234832764,-6.087340831756592,9.10229778289795
1789402394333311700,9.829311767578124,-2.3880369663238525,-7.369893550872803,6.38883638381958
1789402394343238100,9.839238037109375,-3.1106693744659424,-8.23130989074707,4.254438877105713
1789402394353164300,9.849164306640626,-6.508477687835693,-8.025527000427246,5.72841739654541
1789402394363090400,9.85909033203125,-8.082955360412598,-7.719245910644531,8.154739379882812
1789402394373016600,9.8690166015625,-6.546762943267822,-8.776873588562012,8.030312538146973
1789402394382943000,9.87894287109375,-5.618347644805908,-9.633503913879395,7.920242786407471
1789402394392869000,9.888869140625,-7.29810905456543,-10.1216402053833,7.130611419677734
1789402394402795300,9.898795166015624,-8.432307243347168,-9.810572624206543,6.881757736206055
1789402394412721400,9.908721435546875,-6.695117950439453,-8.74337387084961,7.944170951843262
1789402394422647800,9.918647705078126,-4.216153621673584,-8.556734085083008,8.49452018737793
1789402394432574000,9.928573974609375,-3.713660717010498,-8.422736167907715,8.236095428466797
1789402394442500000,9.9385,-4.570291042327881,-7.470392227172852,7.824530124664307
1789402394452426500,9.948426513671874,-4.843072891235352,-6.69990348815918,7.403393268585205
1789402394462352600,9.9583525390625,-5.575276851654053,-5.3312087059021,7.858029365539551
1789402394472279000,9.968279052734376,-5.948556900024414,-4.106083869934082,8.642875671386719
1789402394482205200,9.978205078125,-4.9292144775390625,-3.4743785858154297,9.422935485839844
1789402394492131300,9.98813134765625,-3.761517286300659,-3.8907296657562256,9.513862609863281
1789402394502057700,9.9980576171875,-4.230510234832764,-4.091726779937744,9.422935485839844
1789402394511983900,10.00798388671875,-5.757131099700928,-4.273581027984619,9.628718376159668
1789402394521910300,10.01791015625,-8.389236450195312,-4.852644443511963,9.504291534423828
1789402394531836700,10.027836669921875,-7.652246952056885,-5.934200286865234,7.901100158691406
1789402394541762800,10.0377626953125,-4.656432628631592,-6.087340831756592,6.427121639251709
1789402394551689200,10.047689208984375,-4.053441524505615,-5.800201892852783,5.613562107086182
1789402394561615400,10.057615478515626,-4.579862594604492,-5.197210788726807,5.149354457855225
1789402394571541800,10.067541748046875,-3.9864425659179688,-4.6372904777526855,4.996213912963867
1789402394581468200,10.07746826171875,-3.211168050765991,-4.675575256347656,4.847858905792236
1789402394591394300,10.087394287109374,-3.2685956954956055,-4.522434711456299,5.3934221267700195
1789402394601320700,10.09732080078125,-4.292723655700684,-4.627718925476074,6.278766632080078
1789402394611246800,10.107246826171876,-5.292923450469971,-4.785645484924316,6.259624004364014
1789402394621173200,10.11717333984375,-6.551548480987549,-4.311866283416748,6.173482418060303
1789402394631099400,10.127099365234375,-5.565705299377441,-4.053441524505615,5.670989513397217
1789402394641025500,10.137025634765624,-4.823930263519287,-3.507878065109253,6.03948450088501
1789402394650951700,10.14695166015625,-5.5034918785095215,-2.871387243270874,6.738188743591309
1789402394660877800,10.1568779296875,-5.532206058502197,-3.005385160446167,6.393621921539307
1789402394670804000,10.166803955078125,-5.225924491882324,-2.785245656967163,5.699703693389893
1789402394680730000,10.176730224609376,-3.493520975112915,-3.28773832321167,4.412364959716797
1789402394690656300,10.18665625,-0.5647061467170715,-3.9625144004821777,2.8426733016967773
1789402394700582400,10.19658251953125,-4.417150497436523,-1.4787644147872925,4.694717884063721
1789402394710508500,10.206508544921874,-7.6666035652160645,0.11006984114646912,6.221338748931885
1789402394720434700,10.2164345703125,-6.3840508460998535,-0.8662018179893494,5.278566837310791
1789402394730360800,10.22636083984375,-2.50289249420166,-1.301695466041565,4.1347975730896
1789402394740287200,10.236287353515625,0.37806597352027893,-1.8041882514953613,2.531606435775757
1789402394750213400,10.24621337890625,-2.4598217010498047,-1.6223337650299072,2.5603201389312744
1789402394760139500,10.256139404296874,-6.551548480987549,-1.3926228284835815,3.311666488647461
1789402394770065700,10.266065673828125,-5.7619171142578125,-1.2969099283218384,3.6705899238586426
1789402394779991800,10.27599169921875,-3.7328033447265625,-1.373480200767517,2.9288148880004883
1789402394789918200,10.285918212890625,-4.704289436340332,-0.9044869542121887,4.034298896789551
1789402394799844400,10.29584423828125,-5.024927616119385,-1.4452649354934692,5.292923450469971
1789402394809770500,10.3057705078125,-5.953342914581299,-1.7994025945663452,5.953342914581299
1789402394819696600,10.315696533203125,-5.460421085357666,-2.737389087677002,4.689932346343994
1789402394829623000,10.325623046875,-4.785645484924316,-3.6227335929870605,4.388436794281006
1789402394839549200,10.335549072265625,-4.130012035369873,-4.9052863121032715,4.039084434509277
1789402394849475600,10.3454755859375,-8.561519622802734,-4.886143684387207,6.130411624908447
1789402394859401700,10.355401611328125,-11.265409469604492,-4.675575256347656,8.532805442810059
1789402394869328000,10.365327880859375,-8.504091262817383,-4.082155227661133,8.039883613586426
1789402394879254300,10.375254150390624,-7.824530124664307,-2.7086751461029053,7.69531774520874
1789402394889180400,10.385180419921875,-7.575676441192627,-1.8999011516571045,8.188239097595215
1789402394899106800,10.39510693359375,-6.16391134262085,-2.2205393314361572,8.274380683898926
1789402394909033000,10.405032958984375,-7.058826923370361,-3.8428730964660645,7.403393268585205
1789402394918959000,10.414958984375,-2.746960401535034,-5.26899528503418,4.3788652420043945
1789402394928885500,10.424885498046875,-2.526820659637451,-4.350151538848877,2.6799614429473877
1789402394938811600,10.434811767578125,-5.627918720245361,-3.1489546298980713,2.421536445617676
1789402394948737800,10.44473779296875,-6.8243303298950195,-1.9046868085861206,3.0340991020202637
1789402394958664000,10.454663818359375,-5.398207664489746,-0.9236295223236084,3.9529430866241455
1789402394968590000,10.464590087890626,-2.857030153274536,-1.0767701864242554,4.168296813964844
1789402394978516500,10.4745166015625,-2.306680917739868,-2.043470621109009,4.7712883949279785
1789402394988442600,10.484442626953125,-4.474578380584717,-3.105883836746216,5.556134223937988
1789402394998368800,10.49436865234375,-5.714060306549072,-4.058227062225342,6.618547439575195
1789402395008295000,10.504294921875,-5.962913990020752,-4.599005222320557,7.5326056480407715
1789402395018221300,10.51422119140625,-5.2115678787231445,-5.3694939613342285,8.164310455322266
1789402395028147500,10.5241474609375,-4.460221290588379,-6.484549522399902,8.054241180419922
1789402395038073900,10.534073974609376,-5.929414749145508,-7.3986077308654785,8.346165657043457
1789402395048000000,10.544,-9.422935485839844,-6.876972198486328,11.131410598754883
1789402395057926400,10.553926513671875,-10.700702667236328,-5.714060306549072,15.098711013793945
1789402395067852800,10.563852783203124,-6.4701924324035645,-7.149754047393799,16.587045669555664
1789402395077779000,10.573779052734375,-4.871787071228027,-9.18843936920166,16.094125747680664
1789402395087705300,10.583705322265626,-4.077369689941406,-11.078768730163574,13.74915885925293
1789402395097631500,10.593631591796875,-6.948757171630859,-11.686545372009277,10.738987922668457
1789402395107558000,10.603557861328126,-10.432706832885742,-9.954142570495605,9.265008926391602
1789402395117484300,10.613484375,-4.9531426429748535,-7.858029365539551,7.140182971954346
1789402395127410400,10.623410400390625,-1.8711873292922974,-6.206982135772705,4.847858905792236
1789402395137336800,10.6333369140625,-2.273181438446045,-5.197210788726807,2.794816732406616
1789402395147263200,10.64326318359375,-3.0628130435943604,-4.431507587432861,1.6701902151107788
1789402395157189400,10.653189453125,-5.589633464813232,-3.019742250442505,3.88594388961792
1789402395167115800,10.66311572265625,-4.752145767211914,-2.909672260284424,5.2737812995910645
1789402395177042000,10.6730419921875,-3.1585259437561035,-3.507878065109253,5.771488189697266
1789402395186968300,10.68296826171875,-3.9290146827697754,-3.972085475921631,6.216553211212158
1789402395196894000,10.69289404296875,-2.526820659637451,-5.139782905578613,5.024927616119385
1789402395206819300,10.7028193359375,-5.465207099914551,-6.092126369476318,6.135197162628174
1789402395216745700,10.712745849609375,-6.096911907196045,-6.872186660766602,7.987242221832275
1789402395226671900,10.722671875,-6.2500529289245605,-7.302894592285156,9.738788604736328
1789402395236598000,10.732597900390624,-5.115854740142822,-7.690532207489014,9.489934921264648
1789402395246524200,10.742524169921875,-3.297309637069702,-7.824530124664307,7.077969551086426
1789402395256450600,10.752450439453124,-2.9001009464263916,-8.451449394226074,3.88594388961792
1789402395266376700,10.762376708984375,-7.130611419677734,-7.8628153800964355,6.4319071769714355
1789402395276302800,10.772302734375,-8.719446182250977,-7.345965385437012,9.442078590393066
1789402395286229000,10.78222900390625,-11.571690559387207,-6.561119556427002,13.509876251220703
1789402395296155400,10.7921552734375,-9.485149383544922,-7.140182971954346,14.644074440002441
1789402395306081500,10.80208154296875,-4.512863636016846,-8.011170387268066,12.361321449279785
1789402395316007700,10.812007568359375,-1.4117653369903564,-8.523234367370605,9.073583602905273
1789402395325933800,10.821933837890626,-1.4261223077774048,-8.891729354858398,4.7952165603637695
1789402395335860200,10.831860107421875,-5.350351333618164,-7.140182971954346,5.383851051330566
1789402395345786400,10.841786376953126,-5.493920803070068,-5.60399055480957,6.652047157287598
1789402395355712500,10.85171240234375,-3.6849467754364014,-5.958128452301025,4.632504463195801
1789402395365638700,10.861638671875,-2.8187451362609863,-7.188039302825928,2.3880369663238525
1789402395375565000,10.87156494140625,-2.5842485427856445,-7.054041385650635,2.833101987838745
1789402395385491200,10.8814912109375,-3.9290146827697754,-6.747759819030762,4.3310089111328125
1789402395395417300,10.891417236328126,-6.10169792175293,-5.934200286865234,6.254838466644287
1789402395405343500,10.901343505859375,-6.8243303298950195,-5.771488189697266,7.345965385437012
1789402395415270000,10.911269775390625,-6.843472957611084,-5.986842155456543,7.613961696624756
1789402395425196000,10.921196044921874,-6.948757171630859,-5.422136306762695,8.925228118896484
1789402395435122200,10.9311220703125,-6.111268997192383,-5.441278457641602,10.097711563110352
1789402395445048300,10.94104833984375,-5.575276851654053,-5.144568920135498,11.629117965698242
1789402395454974700,10.950974609375,-4.73300313949585,-5.010570526123047,12.394821166992188
1789402395464900900,10.96090087890625,-3.761517286300659,-5.307280540466309,11.528619766235352
1789402395474827000,10.970826904296874,-3.8524444103240967,-4.838287353515625,10.418350219726562
1789402395484753200,10.980753173828125,-6.211767673492432,-4.445864677429199,8.298309326171875
1789402395494679300,10.99067919921875,-6.881757736206055,-4.321437835693359,5.465207099914551
1789402395504605700,11.000605712890625,-5.948556900024414,-3.900300979614258,4.048655986785889
1789402395514531800,11.01053173828125,-2.823530673980713,-3.5030922889709473,4.53200626373291
1789402395524458000,11.0204580078125,-2.675175666809082,-3.4791641235351562,6.522834300994873
1789402395534384000,11.030384033203125,-5.580062389373779,-3.665804386138916,8.800801277160645
1789402395544310500,11.040310546875,-7.637889862060547,-5.115854740142822,9.322437286376953
1789402395554236700,11.050236572265625,-7.594819068908691,-6.398407936096191,7.719245910644531
1789402395564162800,11.060162841796876,-5.000999450683594,-6.642475605010986,6.26440954208374
1789402395574089000,11.0700888671875,-2.9001009464263916,-6.197410583496094,5.670989513397217
1789402395584015000,11.08001513671875,-3.6705899238586426,-3.9864425659179688,7.221538543701172
1789402395593941500,11.08994140625,-4.790431022644043,-2.526820659637451,8.226524353027344
1789402395603867600,11.09986767578125,-6.092126369476318,-2.038684844970703,8.652446746826172
1789402395613793800,11.109793701171874,-7.336394309997559,-3.0723843574523926,8.48016357421875
1789402395623720000,11.119719970703125,-8.044670104980469,-4.4410786628723145,7.499105930328369
1789402395633646000,11.12964599609375,-6.948757171630859,-5.029713153839111,6.154339790344238
1789402395643572500,11.139572509765625,-3.7806596755981445,-4.646861553192139,4.823930263519287
1789402395653498600,11.14949853515625,-1.3399807214736938,-3.0340991020202637,4.450650215148926
1789402395663424800,11.1594248046875,-1.679761528968811,-1.5074782371520996,4.536791801452637
1789402395673351200,11.16935107421875,-2.612962245941162,-1.5792629718780518,3.460021495819092
1789402395683277300,11.17927734375,-2.6464617252349854,-2.014756679534912,1.4979069232940674
1789402395693203500,11.189203369140625,-2.3401806354522705,-1.9716858863830566,-0.14356936514377594
1789402395703129600,11.199129638671875,-2.4741785526275635,0.5120640397071838,0.7561319470405579
1789402395713056000,11.209055908203124,-3.507878065109253,1.1341979503631592,1.9381862878799438
1789402395722982100,11.218982177734375,-4.766502857208252,-0.4546363055706024,2.9718856811523438
1789402395732908300,11.228908203125,-4.685146808624268,-1.6031911373138428,4.297509670257568
1789402395742834400,11.23883447265625,-3.0963125228881836,-2.5746772289276123,3.9529430866241455
1789402395752760600,11.248760498046876,-2.3497519493103027,-2.407179594039917,3.651447296142578
1789402395762687000,11.25868701171875,-3.713660717010498,-1.4117653369903564,3.7184464931488037
1789402395772613000,11.268613037109375,-6.072983741760254,-1.8855443000793457,3.0963125228881836
1789402395782539300,11.278539306640624,-7.724031448364258,-2.8666014671325684,3.531806230545044
1789402395792465400,11.28846533203125,-8.049455642700195,-3.297309637069702,6.508477687835693
1789402395802391600,11.2983916015625,-6.57547664642334,-3.862015724182129,8.944371223449707
1789402395812318000,11.30831787109375,-5.905486106872559,-3.5605201721191406,9.322437286376953
1789402395822244000,11.318244140625,-6.340980052947998,-3.436093330383301,8.283951759338379
1789402395832170200,11.328170166015624,-6.245266914367676,-3.9864425659179688,6.130411624908447
1789402395842096400,11.338096435546875,-6.795616149902344,-3.680161237716675,5.154139995574951
1789402395852022500,11.3480224609375,-6.604190349578857,-3.326023578643799,4.48414945602417
1789402395861949000,11.357948974609375,-4.661218643188477,-3.1680972576141357,3.8428730964660645
1789402395871875000,11.367875,-4.914857864379883,-2.531606435775757,4.512863636016846
1789402395881801200,11.37780126953125,-4.938786029815674,-2.043470621109009,6.3361945152282715
1789402395891727400,11.387727294921875,-4.809573650360107,-2.139183521270752,7.523034572601318
1789402395901653800,11.39765380859375,-6.063412666320801,-2.713460922241211,7.685746192932129
1789402395911580000,11.407579833984375,-6.001199245452881,-3.9672999382019043,7.0683979988098145
1789402395921506000,11.417506103515626,-6.9344000816345215,-4.589433670043945,7.101897716522217
1789402395931432200,11.42743212890625,-7.527820110321045,-4.938786029815674,7.9250288009643555
1789402395941358300,11.4373583984375,-3.7950167655944824,-6.364908218383789,7.245467185974121
1789402395951284500,11.447284423828124,-4.704289436340332,-6.020341873168945,7.073183536529541
1789402395961210600,11.457210693359375,-5.048855781555176,-6.221338748931885,6.221338748931885
1789402395971137000,11.467136962890624,-5.292923450469971,-6.412764549255371,5.642275810241699
1789402395981063200,11.477063232421875,-7.350750923156738,-5.570491313934326,7.135396957397461
1789402395990989300,11.4869892578125,-7.738388538360596,-4.800002098083496,9.384650230407715
1789402396000915500,11.49691552734375,-4.680361270904541,-5.934200286865234,10.289137840270996
1789402396010841600,11.506841552734375,-3.211168050765991,-7.460821151733398,10.327422142028809
1789402396020768000,11.51676806640625,-3.2829527854919434,-8.4562349319458,10.092926025390625
1789402396030694100,11.526694091796875,-5.891129493713379,-8.757730484008789,9.561718940734863
1789402396040620300,11.536620361328126,-8.733802795410156,-7.848458290100098,10.030712127685547
1789402396050546400,11.54654638671875,-3.641875982284546,-7.240681171417236,8.044670104980469
1789402396060472600,11.55647265625,-0.9954141974449158,-7.135396957397461,4.981856822967529
1789402396070399000,11.56639892578125,-3.3882367610931396,-6.891329288482666,2.7086751461029053
1789402396080325000,11.5763251953125,-8.48016357421875,-5.474778175354004,5.000999450683594
1789402396090251300,11.586251220703126,-8.748159408569336,-4.297509670257568,8.805587768554688
1789402396100177400,11.596177490234375,-4.986642360687256,-4.646861553192139,11.0835542678833
1789402396110103600,11.606103515625,-2.3545374870300293,-6.489335060119629,9.997213363647461
1789402396120029700,11.61602978515625,-3.4121651649475098,-7.140182971954346,8.24566650390625
1789402396129956000,11.6259560546875,-5.962913990020752,-6.704689025878906,7.700103282928467
1789402396139882200,11.63588232421875,-7.245467185974121,-5.556134223937988,8.566305160522461
1789402396149808400,11.645808349609375,-5.134997367858887,-5.168497085571289,8.652446746826172
1789402396159734800,11.65573486328125,-2.9383862018585205,-5.891129493713379,6.680760860443115
1789402396169661000,11.665660888671875,-4.40757942199707,-6.259624004364014,5.680561065673828
1789402396179587000,11.675587158203125,-6.106483459472656,-5.718846321105957,6.331408500671387
1789402396189513200,11.68551318359375,-5.551348686218262,-5.407779216766357,7.015756130218506
1789402396199439400,11.695439453125,-4.575077056884766,-5.694917678833008,7.168896675109863
1789402396209365500,11.705365478515626,-4.182653903961182,-6.192625045776367,7.211967468261719
1789402396219291600,11.715291748046875,-3.8428730964660645,-6.867401123046875,6.532405853271484
1789402396229218000,11.725218017578126,-4.761716842651367,-7.312466144561768,6.254838466644287
1789402396239144200,11.735144287109375,-6.891329288482666,-7.130611419677734,7.6474609375
1789402396249070300,11.7450703125,-6.963113784790039,-7.144968509674072,8.81515884399414
1789402396258996500,11.75499658203125,-8.236095428466797,-7.384250640869141,10.265209197998047
1789402396268922600,11.764922607421875,-6.460621356964111,-8.193024635314941,9.81535816192627
1789402396278849000,11.77484912109375,-2.9766714572906494,-9.164510726928711,7.982456207275391
1789402396288775200,11.784775146484375,-2.124826431274414,-9.533005714416504,7.0061845779418945
1789402396298701300,11.794701416015625,-4.34536600112915,-8.714659690856934,7.494320392608643
1789402396308627500,11.80462744140625,-5.259424209594727,-7.901100158691406,7.805387496948242
1789402396318553600,11.8145537109375,-5.441278457641602,-7.4225358963012695,7.499105930328369
1789402396328479700,11.824479736328126,-5.517848968505859,-6.809973239898682,7.575676441192627
1789402396338406100,11.83440625,-4.890929698944092,-6.661618232727051,7.968099594116211
1789402396348332300,11.844332275390625,-5.13021183013916,-6.652047157287598,8.518448829650879
1789402396358258400,11.854258544921874,-7.518248558044434,-5.934200286865234,9.609575271606445
1789402396368184600,11.8641845703125,-7.934599876403809,-5.857629776000977,9.245866775512695
1789402396378110700,11.87411083984375,-7.063612461090088,-5.709274768829346,8.81515884399414
1789402396388037000,11.884037109375,-6.111268997192383,-5.168497085571289,8.863015174865723
1789402396397963300,11.89396337890625,-4.460221290588379,-5.2354960441589355,8.819944381713867
1789402396407889400,11.903889404296875,-3.0340991020202637,-5.412564754486084,8.154739379882812
1789402396417815600,11.913815673828125,-3.249453067779541,-5.3934221267700195,7.149754047393799
1789402396427741700,11.92374169921875,-5.264209747314453,-4.560719966888428,7.719245910644531
1789402396437667800,11.933667724609375,-7.5804619789123535,-3.7567315101623535,9.719645500183105
1789402396447594000,11.943593994140626,-8.274380683898926,-4.42193603515625,10.695917129516602
1789402396457520400,11.953520263671875,-6.532405853271484,-5.900700569152832,9.57607650756836
1789402396467446500,11.963446533203125,-4.986642360687256,-6.747759819030762,8.21695327758789
1789402396477372700,11.97337255859375,-4.058227062225342,-6.5419769287109375,6.015556335449219
1789402396487298800,11.983298828125,-2.9623143672943115,-4.919643402099609,5.053641319274902
1789402396497225000,11.993224853515626,-2.5363919734954834,-3.3930225372314453,5.647061347961426
1789402396507151000,12.003151123046875,-3.311666488647461,-3.005385160446167,6.029912948608398
1789402396517077500,12.013077392578126,-5.383851051330566,-3.483949661254883,6.125626087188721
1789402396527003600,12.023003662109375,-6.063412666320801,-4.168296813964844,5.436492919921875
1789402396536929800,12.0329296875,-4.445864677429199,-4.115654945373535,5.245067119598389
1789402396546856000,12.04285595703125,-4.450650215148926,-2.66560435295105,6.86261510848999
1789402396556782000,12.052781982421875,-4.555934429168701,-2.933600664138794,7.106683254241943
1789402396566708200,12.062708251953126,-3.84765887260437,-3.1441688537597656,5.4173502922058105
1789402396576634400,12.07263427734375,-1.8855443000793457,-2.967100143432617,3.2925238609313965
1789402396586560800,12.082560791015625,1.277767300605774,-2.6943182945251465,1.3639088869094849
1789402396596487000,12.09248681640625,0.4259224236011505,-0.7369893789291382,1.9669002294540405
1789402396606413000,12.1024130859375,-4.436293125152588,0.5120640397071838,2.5746772289276123
1789402396616339200,12.112339111328126,-8.470592498779297,0.0526420995593071,2.8043880462646484
1789402396626265300,12.122265380859375,-7.585247993469238,-0.6221339106559753,4.689932346343994
1789402396636191700,12.132191650390626,-3.297309637069702,-2.062613010406494,6.187839508056641
1789402396646118000,12.142117919921875,-2.282752752304077,-3.153740167617798,5.8959150314331055
1789402396656044000,12.1520439453125,-3.555734395980835,-3.3068809509277344,3.0580272674560547
1789402396665970200,12.16197021484375,-5.426921844482422,-2.2157537937164307,1.6510475873947144
1789402396675896300,12.171896240234375,-5.517848968505859,-1.794616937637329,2.3162522315979004
1789402396685822500,12.181822509765626,-4.713860511779785,-2.038684844970703,3.7471601963043213
1789402396695748900,12.191748779296875,-4.431507587432861,-2.478964328765869,4.718646049499512
1789402396705675000,12.201675048828125,-4.335794448852539,-1.7419748306274414,4.871787071228027
1789402396715601200,12.21160107421875,-5.029713153839111,-1.3304094076156616,5.120640277862549
1789402396725527300,12.22152734375,-6.4510498046875,-1.1581261157989502,5.876772403717041
1789402396735453400,12.231453369140626,-3.924229145050049,-2.4119651317596436,4.493721008300781
1789402396745379600,12.241379638671875,-1.7994025945663452,-4.536791801452637,2.431107759475708
1789402396755305700,12.2513056640625,-3.972085475921631,-5.699703693389893,2.5363919734954834
1789402396765231900,12.26123193359375,-9.241081237792969,-4.780859470367432,5.556134223937988
1789402396775158000,12.271157958984375,-9.958928108215332,-4.311866283416748,7.527820110321045
1789402396785084400,12.28108447265625,-8.499305725097656,-4.211368083953857,8.159524917602539
1789402396795010600,12.291010498046875,-6.532405853271484,-4.264009952545166,8.21695327758789
1789402396804936700,12.300936767578126,-5.407779216766357,-4.034298896789551,8.920442581176758
1789402396814862800,12.31086279296875,-6.369693756103516,-4.139583110809326,9.05444049835205
1789402396824789000,12.3207890625,-6.9344000816345215,-4.316651821136475,8.709874153137207
1789402396834715100,12.330715087890624,-6.254838466644287,-4.661218643188477,8.35573673248291
1789402396844641300,12.340641357421875,-3.82373046875,-5.355136871337891,7.001399040222168
1789402396854567700,12.350567626953126,-2.9240293502807617,-5.2737812995910645,5.938985824584961
1789402396864493800,12.360493896484375,-4.646861553192139,-4.599005222320557,5.221138954162598
1789402396874420000,12.370419921875,-5.709274768829346,-3.862015724182129,4.919643402099609
1789402396884346000,12.38034619140625,-5.517848968505859,-3.249453067779541,4.752145767211914
1789402396894272300,12.390272216796875,-4.996213912963867,-3.153740167617798,5.565705299377441
1789402396904198400,12.400198486328126,-5.053641319274902,-3.751945972442627,6.3840508460998535
1789402396914124800,12.410124755859375,-3.0628130435943604,-4.589433670043945,6.92482852935791
1789402396924051000,12.420051025390626,-0.4785645306110382,-5.4556355476379395,6.092126369476318
1789402396933977000,12.42997705078125,-0.6604190468788147,-6.154339790344238,4.7712883949279785
1789402396943903200,12.4399033203125,-4.59421968460083,-6.900900363922119,4.8574299812316895
1789402396953829400,12.449829345703124,-10.925628662109375,-6.604190349578857,8.23130989074707
1789402396963755500,12.459755615234375,-10.03549861907959,-6.245266914367676,13.61037540435791
1789402396973681700,12.469681640625,-6.776473522186279,-7.858029365539551,17.257036209106445
1789402396983607800,12.47960791015625,-5.690132141113281,-10.016355514526367,17.927026748657227
1789402396993534000,12.489533935546875,-4.828716278076172,-10.38485050201416,16.730615615844727
1789402397003460400,12.49946044921875,-4.833501815795898,-9.107083320617676,15.567704200744629
1789402397013386500,12.509386474609375,-3.7902309894561768,-7.671389579772949,10.432706832885742
1789402397023312600,12.519312744140626,-2.3880369663238525,-7.04925537109375,4.053441524505615
1789402397033238800,12.52923876953125,-5.656632900238037,-6.092126369476318,1.919043779373169
1789402397043165000,12.5391650390625,-7.685746192932129,-4.3070807456970215,2.9766714572906494
1789402397053091000,12.549091064453124,-6.872186660766602,-3.445664644241333,6.278766632080078
1789402397063017200,12.559017333984375,-5.656632900238037,-4.613361835479736,8.595019340515137
1789402397072943400,12.568943359375,-5.058426856994629,-5.694917678833008,9.20279598236084
1789402397082869500,12.578869384765625,-2.895315408706665,-6.197410583496094,7.575676441192627
1789402397092796000,12.5887958984375,-1.3112667798995972,-6.589833736419678,5.3455657958984375
1789402397102722000,12.59872216796875,-0.44027936458587646,-7.336394309997559,3.187239646911621
1789402397112648200,12.608648193359375,-4.07258415222168,-7.671389579772949,4.039084434509277
1789402397122574300,12.61857421875,-5.733202934265137,-7.752745151519775,5.546562671661377
1789402397132500500,12.62850048828125,-7.661818027496338,-7.590033531188965,8.00638484954834
1789402397142426600,12.638426513671876,-7.412964344024658,-7.6474609375,9.250652313232422
1789402397152352800,12.648352783203125,-7.015756130218506,-8.054241180419922,9.738788604736328
1789402397162279000,12.65827880859375,-4.977071285247803,-7.891529083251953,9.044869422912598
1789402397172205300,12.668205322265624,-3.7184464931488037,-7.843672752380371,7.274180889129639
1789402397182131500,12.67813134765625,-2.311466693878174,-8.49452018737793,4.1970109939575195
1789402397192057600,12.6880576171875,-2.335394859313965,-8.432307243347168,3.436093330383301
1789402397201983700,12.697983642578125,-4.2209391593933105,-6.876972198486328,4.73300313949585
1789402397211910000,12.707909912109375,-6.881757736206055,-5.139782905578613,7.5086774826049805
1789402397221836000,12.7178359375,-5.278566837310791,-4.977071285247803,9.298508644104004
1789402397231762200,12.72776220703125,-2.5459632873535156,-6.474977970123291,8.681160926818848
1789402397241688300,12.737688232421876,-2.943171739578247,-6.9344000816345215,8.49452018737793
1789402397251614500,12.747614501953125,-4.790431022644043,-7.164111137390137,8.671588897705078
1789402397261540600,12.75754052734375,-7.168896675109863,-7.5326056480407715,8.74337387084961
1789402397271466800,12.767466796875,-7.767102241516113,-7.561319351196289,8.556734085083008
1789402397281393200,12.77739306640625,-6.565905570983887,-7.460821151733398,7.5326056480407715
1789402397291319300,12.7873193359375,-6.034698486328125,-6.412764549255371,8.054241180419922
1789402397301245400,12.797245361328125,-6.3361945152282715,-5.359922885894775,10.078569412231445
1789402397311171600,12.807171630859376,-6.178267955780029,-5.498706340789795,11.117053985595703
1789402397321097700,12.81709765625,-5.249852657318115,-6.2500529289245605,10.49970531463623
