time,seconds_elapsed,z,y,x
1789799581486419500,0.05041943359375,-1.5431810433924198,0.23168518784940242,0.19293489369452
1789799581496390700,0.060390625,-0.9405547572165727,-0.28828093529641624,1.289454850257188
1789799581506362400,0.0703623046875,-0.6381494349777698,-0.5016086286783218,2.2297842742852865
1789799581516333600,0.08033349609375,-0.4479816679090261,-0.4099702094227075,2.7327088078677653
1789799581526305500,0.090305419921875,-0.635875644826889,-0.5082786079615355,2.5575363653570413
1789799581536276500,0.1002763671875,-0.7460206116318703,-0.814636467218399,2.135409854194522
1789799581546248400,0.11024853515625,-0.6753776341319083,-0.9169470871359109,1.8564134645938872
1789799581556219600,0.1202197265625,-0.6609235768437385,-0.8733937766134738,1.206008066894114
1789799581566191400,0.13019140625,-0.14521686470806597,-1.0982365512222052,0.758814188361913
1789799581576162600,0.14016259765625,0.40113749914765356,-1.3772265110820532,0.6613846184842288
1789799581586133800,0.1501337890625,0.5378916559368372,-1.3990604494884609,0.82518577215299
1789799581596105500,0.16010546875,0.39885377212464806,-1.1806208199203014,1.269302727457881
1789799581606076700,0.17007666015625,0.35795594454705715,-0.6424751892223954,2.2330995363131163
1789799581616048600,0.180048583984375,0.7192097615957259,0.3742901164934039,3.658599372176826
1789799581626019800,0.190019775390625,1.7005770061939953,1.8179729670405387,5.238836473026871
1789799581635991600,0.199991455078125,2.688103942465782,2.9566116712778805,6.172117439848185
1789799581645962800,0.209962646484375,2.8417367533415554,2.2702874034568667,5.570900435948372
1789799581655934500,0.2199345703125,3.076989278283715,1.6477292131036518,4.528182650591432
1789799581665905700,0.22990576171875,2.6868366990089414,0.8563546712681651,3.667435881844163
1789799581675877600,0.239877685546875,1.6109645398080348,0.282951264706254,3.0523128099277614
1789799581685848800,0.249848876953125,0.21981179470419882,-0.7800663813576102,2.006651956856251
1789799581695819500,0.259819580078125,-1.748008619454503,-1.6690490645080804,-0.20454875912070272
1789799581705791700,0.269791748046875,-4.138415563502908,0.5284621488124132,-0.5807470473229884
1789799581715762700,0.2797626953125,-6.213504512247443,0.7031722345083952,1.542331733086705
1789799581725734700,0.289734619140625,-3.056692924708128,1.7319804447174072,0.3842030232205987
1789799581735705600,0.29970556640625,-2.006684690082073,1.4012357477009296,0.1663251191884279
1789799581745677800,0.309677734375,-3.1080525250673294,-1.4659680398523807,1.5633265903204678
1789799581755648500,0.3196484375,-2.5384043793857094,-4.421142956325411,3.09253405341804
1789799581765620700,0.329620849609375,5.667004017919302,-4.405000799819827,2.4578683689028025
1789799581775591700,0.339591796875,4.730844280791282,-4.972208566612005,1.5191158388026058
1789799581785563600,0.349563720703125,2.6533435947299,-4.742053072547912,1.1648496886841953
1789799581795534600,0.35953466796875,1.8320599445819854,-3.9234178910821673,-0.046650655483268196
1789799581805505800,0.369505859375,1.424476922556758,-2.8258433109000323,-1.7358903116375206
1789799581815477500,0.3794775390625,2.65177707606554,0.6958814929783343,-9.603273791790008
1789799581825448700,0.38944873046875,4.553846960940957,4.220012773476541,-14.780095414930582
1789799581835420700,0.399420654296875,2.852709982776642,1.2776003079429268,-7.25850923949778
1789799581845392000,0.409391845703125,0.20809154629409313,-2.6111358535975215,0.2734914720414206
1789799581855363600,0.419363525390625,0.7848679364204406,-2.2607485907390714,2.554250767815113
1789799581865334800,0.429334716796875,1.3719716592937707,-0.7766717704832553,2.8227058896571395
1789799581875306500,0.439306396484375,0.8595148888647556,0.0007429273217916488,2.378627220536023
1789799581885277700,0.449277587890625,0.7749515225619077,-0.4537772024452686,2.2301301651135086
1789799581895249700,0.459249755859375,0.0636608635276556,-1.1429752721369266,2.05466838426739
1789799581905220900,0.469220947265625,-0.870965088161826,-1.3032757242083548,1.7109997621394692
1789799581915192600,0.479192626953125,-2.2584914594620464,-2.1396160737127063,1.3645567068621516
1789799581925163800,0.489163818359375,-3.657539926251769,-2.4901836615741253,0.9001718934237957
1789799581935134700,0.499134765625,-4.745279633378982,-2.051452052569389,0.6791654821075499
1789799581945106700,0.509106689453125,-5.032043734371662,-0.6280079801917076,1.781589986538887
1789799581955077600,0.51907763671875,-4.844318099758029,1.5176608176887034,3.574660859774053
1789799581965049900,0.5290498046875,-5.249630838763713,1.5025637863218784,3.2035771381065246
1789799581975020500,0.5390205078125,-5.465403002688288,-1.952967128419876,1.456879308989644
1789799581984992800,0.54899267578125,-3.7559921171754596,-4.0119022302210325,0.5330936080053449
1789799581994963700,0.558963623046875,-1.894029201760888,-4.078457061624527,0.6267015737682581
1789799582004935700,0.568935791015625,-1.2995628411650657,-3.9231063409149645,1.4924831218123435
1789799582014906600,0.57890673828125,-0.9011831162929534,-3.702040162235498,2.2909698337405917
1789799582024878800,0.58887890625,-0.433804089474678,-3.53372006983757,2.1185101573199034
1789799582034849500,0.598849609375,-0.43667409195303913,-3.616046470868587,0.8767761125281452
1789799582044821800,0.60882177734375,-1.0971417417228222,-4.265747811952233,-0.15810557237565517
1789799582054792700,0.618792724609375,-2.5683243013530968,-4.815231706005335,-1.0843193772897124
1789799582064764000,0.628763916015625,-4.6709863166779275,-5.077677942821383,-2.365895895387232
1789799582074735600,0.638735595703125,-5.935977026155591,-5.188104064655303,-3.30507030416131
1789799582084706800,0.648706787109375,-5.445541533398628,-5.287604887849092,-2.3730659331470725
1789799582094678500,0.658678466796875,-4.225013065981865,-5.111408947509527,-1.5838327872544526
1789799582104649700,0.668649658203125,-4.0657489712208505,-5.266818704929948,-1.8415654395520686
1789799582114621700,0.67862158203125,-4.7454614196866745,-5.482587361723184,-2.144516705235839
1789799582124593000,0.688593017578125,-5.175957115265727,-5.382620674583316,-2.334153726428747
1789799582134564600,0.698564697265625,-5.781897640556097,-5.784338603967428,-2.9256372718214987
1789799582144535800,0.708535888671875,-5.6711611375987525,-5.880695868438482,-2.7287469184994695
1789799582154507500,0.718507568359375,-4.799172551608085,-6.0350283520162105,-2.3933850830763577
1789799582164478700,0.728478759765625,-4.475702229508757,-6.42779900483489,-2.2625129700630904
1789799582174449700,0.73844970703125,-4.634677570456266,-6.339037017798423,-1.8166618844419717
1789799582184422000,0.748421875,-5.515037094429135,-6.599314093881845,-2.1483289570003747
1789799582194392600,0.758392578125,-6.7402002359092235,-7.2026891525983805,-2.3673458019346
1789799582204364800,0.76836474609375,-7.457383460113406,-7.467011120158434,-2.2307190709173677
1789799582214335700,0.778335693359375,-7.357893158313631,-7.77095841114223,-2.304851059576869
1789799582224307700,0.7883076171875,-6.499370787617564,-7.945822810617089,-1.4380582886636257
1789799582234278700,0.798278564453125,-5.707027985271811,-7.384794609242677,0.1556242769539356
1789799582244251000,0.8082509765625,-5.510335784870386,-7.616985993048548,0.6720914520680904
1789799582254221600,0.8182216796875,-4.435717425122857,-9.300465149447321,0.795745888787508
1789799582264193800,0.82819384765625,-2.0257026942849157,-10.733160449773072,2.6659388724088666
1789799582274164700,0.838164794921875,-0.09768412916064262,-11.798555638623236,7.189043489083647
1789799582284136700,0.84813671875,0.25813071170449253,-8.6926798730731,6.903336203667521
1789799582294107600,0.858107666015625,1.013440545207262,-6.667019264364242,6.391995870047808
1789799582304078600,0.86807861328125,4.377527686482668,-7.625345825114846,7.894154582700133
1789799582314050600,0.878050537109375,7.797809593188762,-8.68115427045226,10.435223797380923
1789799582324021500,0.888021484375,7.637802571105957,-8.393765900081396,13.103973051035403
1789799582333993700,0.89799365234375,8.172788568729162,-6.271158828836679,16.0389790397048
1789799582343964700,0.907964599609375,7.630001541966199,-4.121163984450698,20.737480555295942
1789799582353936600,0.9179365234375,6.424855352598429,-2.1972990318745373,23.821289450466633
1789799582363907600,0.927907470703125,7.363572957515716,0.0574824671536684,24.229245981979368
1789799582373879600,0.937879638671875,5.66695024190545,1.6059247920751571,22.38784771568775
1789799582383850500,0.9478505859375,3.0768928321719167,3.2511294551372525,20.50592337774038
1789799582393822700,0.95782275390625,1.5275532661497593,4.388872671839595,19.022029220575092
1789799582403793700,0.967793701171875,-0.9527589897513389,6.724176152825355,16.039825427401066
1789799582413765600,0.977765625,-10.581647699791192,9.13002674972117,12.488562686610221
1789799582423736600,0.987736572265625,-14.717159943068026,8.635840379998088,11.062710384047032
1789799582433707800,0.997707763671875,-10.309240625452995,8.044587720751762,11.48455749374628
1789799582443679500,1.007679443359375,-7.1127598753482095,8.37369166482389,8.758249200570583
1789799582453650700,1.017650634765625,-8.264830892610549,6.8662553040295835,8.137784475365281
1789799582463622700,1.02762255859375,-5.497830523562431,6.011386195144057,9.70584569299221
1789799582473593600,1.037593505859375,-3.7153199150472878,5.954264377996325,9.826554139387607
1789799582483565600,1.047565673828125,-4.111102609163522,4.3834342801779504,6.458682218876481
1789799582493536800,1.057536865234375,-9.62852221481502,4.27119058752805,2.1251696152091024
1789799582503508500,1.067508544921875,-8.317381164059043,3.6344574490889903,3.42260304313004
1789799582513479700,1.077479736328125,-3.8568624751567837,3.3939968341097235,7.381063606020808
1789799582523451600,1.08745166015625,-2.980160304647684,3.5977538583308455,8.79119051618576
1789799582533422600,1.097422607421875,-1.4074213044680655,2.967720217530429,7.744557310950755
1789799582543393500,1.1073935546875,0.2497100893616676,2.173912311068177,6.24896453268528
1789799582553365800,1.11736572265625,1.5374432303927839,0.18732260677069423,1.7404735477745532
1789799582563336700,1.127336669921875,2.3527191645584997,-0.9039885291025042,-1.1718944926291703
1789799582573308700,1.13730859375,3.1870015586197376,-0.21962562448233364,-0.3839081319272518
1789799582583279600,1.147279541015625,3.656721303345263,1.1289052457302808,0.8646849849790335
1789799582593251600,1.15725146484375,1.639374787864834,1.212056114886701,2.023330704456568
1789799582603222500,1.167222412109375,0.06578443155288696,1.998346485325694,1.8402362367749212
1789799582613194800,1.17719482421875,-1.0271899613574147,0.6846868028122931,-4.914151514440775
1789799582623165700,1.187165771484375,-0.5472071812927722,0.05298073528762907,-10.470175868296623
1789799582633137700,1.1971376953125,2.1818141702339053,1.1353338905382901,-11.873968314743042
1789799582643108600,1.207108642578125,2.685714709241688,-1.2960694460913538,-12.16000410146117
1789799582653080600,1.21708056640625,1.018494613726437,-1.8758711753882467,-8.273297692182659
1789799582663051500,1.227051513671875,-1.966857706606388,-1.4477040688872336,-4.071152876091003
1789799582673022700,1.237022705078125,-3.624527591226995,-2.3963228900939226,-2.9055829103082416
1789799582682994700,1.24699462890625,-3.321404183846712,-4.053919709478318,-3.9280613329738374
1789799582692965600,1.256965576171875,-2.893815900146961,-3.780564832895994,-5.108871537986397
1789799582702937600,1.2669375,-2.908965830744803,-3.6144720611587164,-4.523101694065332
1789799582712908800,1.27690869140625,-2.0636521934509275,-4.252290072225034,-1.681400012037158
1789799582722880500,1.286880615234375,-0.038670214655995364,-3.581505026580393,-0.015019874477386473
1789799582732851700,1.296851806640625,0.1530830680385232,-5.494334498140216,-0.8839929120391606
1789799582742823700,1.30682373046875,1.2902139980614185,-5.40120613258779,-2.8063462910085915
1789799582752794600,1.316794677734375,0.16741496025174854,-5.426826896056532,-1.7734663013160228
1789799582762766600,1.3267666015625,-1.4789201681450008,-1.6136130084902047,-1.9686042580127714
1789799582772737800,1.33673779296875,1.5370733741670846,-1.13869562205635,-1.582772464546561
1789799582782709500,1.34670947265625,3.425142790740728,-4.022953201067447,-2.290416291511059
1789799582792680700,1.3566806640625,0.04644873970299959,-2.146337052530795,-1.499067760899663
1789799582802651600,1.366651611328125,-2.7677403737604616,-2.3717595267236233,0.04327975427806377
1789799582812623600,1.37662353515625,-3.1579534510508176,-2.954107871763408,-0.27867373351752756
1789799582822594600,1.386594482421875,-0.7104685289964079,-3.268139918909967,-2.2292928375065326
1789799582832566800,1.39656689453125,3.0306469215646383,-5.048388719972968,-3.8301720366299152
1789799582842537700,1.406537841796875,1.103289158436656,-5.458004709130526,-4.6442748353630305
1789799582852509700,1.416509765625,-2.047381149868667,-3.83979589728266,-2.2300299196094273
1789799582862480600,1.426480712890625,-2.1670783733949066,-1.9759997750915586,-2.5622838521450757
1789799582872452600,1.43645263671875,-0.7222565819457173,-1.2008239422544835,-2.636469616818428
1789799582882423600,1.446423583984375,0.8378769114218652,-0.018871380540076643,-0.10466682765483856
1789799582892395800,1.456395751953125,0.29554610399380327,0.10004599945377558,-0.5649462516009808
1789799582902366700,1.46636669921875,0.3585048106014728,0.8767491514559834,-1.2418810520470143
1789799582912338700,1.476338623046875,-0.09850479789376258,0.7743765722181648,-5.788769279891252
1789799582922309600,1.4863095703125,0.31759766720626503,0.4571263667427003,-9.471851059156656
1789799582932280800,1.49628076171875,1.3455050926506518,0.00852393658682704,-7.737320345434546
1789799582942252500,1.50625244140625,0.5265063385695219,-0.6805415927663445,-7.187541852349042
1789799582952223700,1.5162236328125,-2.2778315352261065,-1.674518143568933,-2.011339822411537
1789799582962195700,1.52619580078125,-5.120191973423958,-0.10918956577628851,-0.1089127946615219
1789799582972166700,1.536166748046875,-3.675656013178825,1.3257009065061807,-1.3097095566481352
1789799582982138600,1.546138671875,-1.2036696870744228,2.5058383268237114,-1.2290887904912233
1789799582992109800,1.55610986328125,0.001612038306519389,-0.16677783139199018,0.43083530279695986
1789799583002081500,1.56608154296875,-1.1329949992619455,-2.923290708695352,3.0795968304336068
1789799583012052700,1.576052734375,-3.1335283271074292,-3.5138697064638134,4.752638179448247
1789799583022024700,1.586024658203125,-3.3276457085847855,-4.625389517629146,4.300277273541688
1789799583031995600,1.59599560546875,-2.951549127191305,-5.970626899254322,3.248167098200321
1789799583041967600,1.605967529296875,-2.2731717267215252,-6.405079808026552,3.658990709581971
1789799583051938800,1.615938720703125,-1.8112129713863134,-5.650320594143867,5.39551815007925
1789799583061910500,1.62591064453125,-1.3038830424517391,-5.104761764580011,4.950366152638197
1789799583071881700,1.6358818359375,-0.2926625113815069,-5.108507380849122,4.679440256768465
1789799583081852700,1.645852783203125,-1.144285477952659,-4.72151443464905,5.944200664621591
1789799583091825000,1.655824951171875,-1.8229228445328771,-3.7369042626067994,6.428442563435435
1789799583101795600,1.665795654296875,-1.4496267075128852,-3.5627515185326337,5.908141509246826
1789799583111767800,1.675767822265625,-2.216211237615347,-1.3962842627733945,0.9050544047683476
1789799583121738800,1.68573876953125,-2.9439462509721515,2.455539633694291,-6.832063111570477
1789799583131710700,1.695710693359375,-1.9151367255888878,3.884485226097703,-8.31449362592399
1789799583141681700,1.705681640625,-2.027758311640471,4.025619789928197,-3.092838004800677
1789799583151654000,1.71565380859375,-1.1399650574702769,4.7450271199226375,0.8980810586243867
1789799583161624600,1.72562451171875,0.31461824953667816,6.675107293751836,4.647184000808
1789799583171596800,1.7355966796875,-3.376470237508416,4.976335291153192,3.681325875508785
1789799583181567700,1.745567626953125,-0.6370837054423988,2.237162840229273,-1.600223950085044
1789799583191539700,1.755539794921875,-0.45651225343234836,0.458308416134119,-2.9839912611126898
1789799583201510700,1.7655107421875,-2.8491140041112897,-1.6537141327321527,-1.2772913881242274
1789799583211481600,1.775481689453125,-3.067978873354196,-3.2572949920296668,0.007479542100429534
1789799583221453600,1.78545361328125,-1.577632763570547,-3.9969472376734014,1.006594040313363
1789799583231424500,1.795424560546875,-0.45114217776656146,-3.7292619311600923,2.16933784275949
1789799583241396700,1.805396728515625,-0.9170657450795173,-2.276847784885764,2.8987942730814216
1789799583251367700,1.81536767578125,-1.860401072925329,-1.10316933144927,2.3895547111332416
1789799583261339600,1.825339599609375,-2.5113357551962134,-0.5564455497592687,1.133537581706047
1789799583271310600,1.835310546875,-3.2376024495661255,0.9941904858142137,0.6338590443074703
1789799583281282600,1.845282470703125,-2.9384868165224787,7.742411531093716,2.390792728495598
1789799583291253500,1.85525341796875,-2.654095289880037,12.552026566261052,2.185499873009324
1789799583301225700,1.865225830078125,-0.45433235210999845,12.712822692894935,2.938072390502691
1789799583311196700,1.87519677734375,-0.6609785219013691,14.204002330893278,2.69763749448657
1789799583321168600,1.885168701171875,-2.8867086984902617,11.08630402560234,0.5977595569223165
1789799583331139600,1.8951396484375,-3.231576028883457,7.542603829020261,0.6025578971147537
1789799583341111600,1.905111572265625,-3.4070155978977676,6.05127279985249,2.235205276420712
1789799583351082500,1.91508251953125,-3.0580612904518842,4.890017190137505,2.3258552691608667
1789799583361053700,1.9250537109375,-2.7260329833656547,2.0827052689671515,1.077229419028759
1789799583371025700,1.935025634765625,-3.370261445996165,-2.5114813011467456,0.8489303664863109
1789799583380996600,1.94499658203125,-0.8662376212485134,-3.798519007259607,2.0676824718803166
1789799583390968600,1.954968505859375,-1.029531848308444,-1.3258710023760796,3.725924311169982
1789799583400939800,1.964939697265625,0.7738269024461507,-2.152993441680074,3.1093028173893686
1789799583410911500,1.974911376953125,1.0115608689405025,-6.7063067341357465,0.989247768715024
1789799583420882700,1.984882568359375,0.15324059668779372,-9.680678518509865,-1.0792395898073912
1789799583430854700,1.994854736328125,-3.1251141345053908,-8.6391552036345,-1.2673211982518433
1789799583440825600,2.00482568359375,-3.4177082568258044,-10.422761790692805,-0.48519934566915035
1789799583450797600,2.014797607421875,-1.5317999638088047,-15.867468626832961,4.554692764115333
1789799583460768800,2.024768798828125,-1.150401768875867,-12.349280472648143,2.8550334572881457
1789799583470740500,2.034740478515625,-2.099600874188542,-5.228405679905414,-4.758449496075511
1789799583480711700,2.044711669921875,-2.3468209003001452,-7.897174222782254,-3.586818622818589
1789799583490683600,2.05468359375,-2.7595594053924084,-5.494336836227775,-1.0884762047082186
1789799583500654600,2.064654541015625,-2.765458984825015,-1.9512591554582117,1.7264432688564062
1789799583510626600,2.07462646484375,-2.4507161590605975,-0.309510770329833,3.858035610589385
1789799583520597800,2.08459765625,-2.3419322514757512,0.760392835855484,4.5918402992486955
1789799583530568700,2.094568603515625,-3.2587533741444346,-2.922168134406209,2.694129194104671
1789799583540540700,2.104540771484375,-4.474408682566881,-4.744943533292412,2.3384943859815595
1789799583550511600,2.11451171875,-3.248452929404378,-2.876411760881543,1.182961830088496
1789799583560483600,2.124483642578125,-2.152847603468597,-1.1761854678213595,0.05102291575074196
1789799583570454500,2.13445458984375,-2.559754625928402,1.6578268287479876,0.5381909311443567
1789799583580426200,2.14442626953125,-3.0245857218295336,3.7001843052357435,1.8869079715788364
1789799583590397200,2.154397216796875,-2.866145218411088,1.9642156676650047,3.2288860591471193
1789799583600369200,2.164369140625,-2.1404444873608646,-0.4953904848158359,1.7802122684448956
1789799583610340000,2.174340087890625,-0.9431227080084383,-0.4133873243898153,1.3039146066337823
1789799583620312300,2.184312255859375,-0.4024176020860672,1.3767951339274644,1.9199404726088045
1789799583630283000,2.194282958984375,-0.5875865379542112,2.1825369315505028,2.4627397743314505
1789799583640255200,2.204255126953125,-1.908178723144531,1.458152982187271,2.7875492360800505
1789799583650226200,2.21422607421875,-2.7442192129194733,0.3334095323115587,1.6839982118368149
1789799583660198100,2.2241982421875,-2.5752988165408373,-0.4308300420999527,0.507837293934822
1789799583670169000,2.234169189453125,-1.7056448109775781,-0.6165501821100712,-0.16120412291288375
1789799583680140300,2.244140380859375,-0.9913772550243883,-0.7006792486488819,-0.042673605078458784
1789799583690112000,2.254112060546875,-0.564289248996973,-0.4974295894280076,0.6579723258227109
1789799583700083200,2.264083251953125,-0.11418686260692774,-0.39295448495298624,2.0078291839420794
1789799583710055200,2.27405517578125,0.8568910431671887,-0.7879170948579907,2.8905408239990473
1789799583720026400,2.2840263671875,0.7962778037071228,-1.7799930727362632,2.307383208402991
1789799583729998000,2.293998046875,-0.6602367636233568,-1.6917793672323227,0.20407295830249786
1789799583739969300,2.30396923828125,-2.118153014445305,-0.398279479368031,-0.6943097136169671
1789799583749941000,2.31394091796875,-1.8920126012414693,0.6380106110289693,-1.170538986366987
1789799583759912200,2.323912109375,-0.776034641623497,0.5603904879927635,-2.0648270824491974
1789799583769884200,2.33388427734375,0.17685235842168331,-0.20251637651026247,-3.0992104624420405
1789799583779855400,2.34385546875,0.512242871950008,-1.1305278784960509,-3.8663597868204116
1789799583789827000,2.3538271484375,0.7171218494057655,-1.7908286472663282,-3.442053593531251
1789799583799798300,2.36379833984375,0.6841600755244494,-1.1168068116575478,0.4779150338798761
1789799583809770000,2.37377001953125,0.30242402693927284,0.23363369156867264,6.375574896600842
1789799583819741200,2.3837412109375,-0.6300497151523828,-0.3153919373229146,8.082578720971942
1789799583829713200,2.393713134765625,-1.6034756453573702,-3.509532846303284,4.046804032254219
1789799583839684400,2.403684326171875,-1.4491770640492438,-4.2329917897760865,0.9552420387387275
1789799583849655000,2.413655029296875,-1.1864116782814265,-2.1650378074780106,-0.14353285714387892
1789799583859627300,2.423627197265625,-0.6339519832879305,-1.5519322128638624,-1.577526380586624
1789799583869598200,2.43359814453125,-0.5772878467798233,-2.6048624724164604,-3.0823516820997
1789799583879570200,2.443570068359375,0.1608054789841175,-2.390395399741083,-3.710654845845699
1789799583889541000,2.453541015625,0.9961375282287597,-0.7954482210151851,-4.763675706291198
1789799583899513300,2.463513427734375,0.8563736682295798,0.7978184572778642,-5.9478369752973315
1789799583909484000,2.473484130859375,1.1019266379117965,1.753732257798314,-5.271554501280188
1789799583919456300,2.483456298828125,1.4502525843262672,1.2485770425543188,-4.467160026612878
1789799583929427200,2.49342724609375,1.0769242986023426,0.3959793857321143,-4.614730760970711
1789799583939399200,2.503399169921875,0.33899463896751403,-0.3365418389879167,-6.003700316816568
1789799583949370000,2.5133701171875,-0.9558873509049415,-0.09261077141910791,-5.479482965967059
1789799583959342300,2.52334228515625,-0.9674655604958534,0.884119168767333,-2.6345219898819923
1789799583969313000,2.53331298828125,-1.3156278407812119,0.6737959178984165,-0.9300584976434707
1789799583979285200,2.54328515625,-2.1135621795237065,-0.6241100959703326,-3.3455046058803797
1789799583989256200,2.553256103515625,-1.7189415149241685,-0.9835727918185293,-6.574237520292401
1789799583999228200,2.563228271484375,-1.317690034008026,0.024275632470101116,-7.825551002073287
1789799584009199000,2.57319921875,-0.6433522643178701,1.4469457978658378,-5.98568009147942
1789799584019170300,2.58317041015625,-0.5215221204161644,1.7507720928184687,-4.474301130539178
1789799584029142000,2.59314208984375,-1.2788000391215084,1.4170979182213543,-3.402002153649926
1789799584039113200,2.60311328125,-1.9174270284831523,1.297615506489575,-1.7152789007633924
1789799584049085200,2.613085205078125,-2.769668126952648,0.5049265210546553,-2.1046751087129114
1789799584059056400,2.623056396484375,-2.0770184555023907,-0.7330915719538926,-2.66651053481698
1789799584069028000,2.633028076171875,-1.595760540935397,-0.5047536487057804,-1.5196300719350575
1789799584078999300,2.642999267578125,-2.4497340161554515,0.07844780603200197,0.03274550078213215
1789799584088971300,2.65297119140625,-3.1756361149966716,-0.5764768226578831,0.31649756047725675
1789799584098942200,2.662942138671875,-3.5516496942818163,-1.6839599256530402,0.24407062216997144
1789799584108914200,2.6729140625,-3.2485528826475143,-1.777028085450828,0.9306026875227689
1789799584118885400,2.682885498046875,-3.127292063066363,-1.668620902223885,0.5035375509142875
1789799584128857000,2.692857177734375,-3.6684821760267017,-1.678837175811827,-1.2550047375142575
1789799584138828300,2.702828369140625,-3.062311933633685,-1.380686296147108,-3.101037093347311
1789799584148800300,2.71280029296875,-2.375373771698028,-0.63828884344846,-3.101052875438332
1789799584158771200,2.722771240234375,-1.9328363406695424,0.42530894059091806,-1.347024849563837
1789799584168743200,2.7327431640625,-2.598036718049645,1.4587752057388423,0.6081582013398409
1789799584178714400,2.74271435546875,-3.342424175521731,0.6394874055832624,-0.6033855801105499
1789799584188685000,2.75268505859375,-3.13250132214725,-1.0295531833574176,-1.323570324218273
1789799584198657300,2.7626572265625,-2.086104994408041,-2.544571669843793,-0.2776660177797079
1789799584208628200,2.772628173828125,-1.6045109797544777,-3.394146471713483,1.7739608068346977
1789799584218600200,2.78260009765625,-1.488859232226759,-3.9561245211586353,2.6907424742758272
1789799584228571100,2.792571044921875,-2.232874349255115,-4.310660720390081,2.882494880187511
1789799584238543400,2.80254345703125,-3.5629619464129205,-3.8111353277266025,3.9440579435288905
1789799584248514000,2.81251416015625,-2.139107539668679,-2.257867190083861,3.7239889591932296
1789799584258486300,2.822486328125,-0.21573080900087951,-0.4700117134094238,1.9599077413380146
1789799584268457200,2.832457275390625,-1.084993623289466,0.41074937710165976,0.9896469971656798
1789799584278429200,2.84242919921875,-2.2502942706115543,0.7838257338911294,1.2144593766361473
1789799584288400100,2.852400146484375,-2.0467291157007215,0.8711094650685787,1.6314070238560436
1789799584298372400,2.862372314453125,-0.6113935299992561,0.4817407296478748,1.3437830911636353
1789799584308343300,2.87234326171875,-0.07732114008963108,-0.37962124838829037,0.8292015836656094
1789799584318315300,2.882315185546875,-0.9362823405943811,-1.1533546273320912,0.928657398673892
1789799584328286200,2.8922861328125,-2.1942045729905364,-1.6476000337660313,1.937825088867545
1789799584338258200,2.902258056640625,-2.287436983439326,-1.6269243254840373,3.9169308671504255
1789799584348229000,2.91222900390625,-1.885815500167012,-1.23336573715806,5.322565142071247
1789799584358201300,2.922201416015625,-1.378905257949233,-1.278047759449482,5.513660545378923
1789799584368172300,2.93217236328125,-1.2732659320004283,-2.3046610899627207,5.400207184678316
1789799584378144300,2.942144287109375,-0.817490833736211,-3.6444513120979067,5.128209860184788
1789799584388115200,2.952115234375,-0.4165491494216025,-4.885062782600522,4.19644981932044
1789799584398086100,2.962086181640625,-0.9441888759352266,-4.6447447909623385,2.685125803437829
1789799584408058000,2.97205810546875,-1.5078591162510215,-3.6715596837759015,2.4368413629651067
1789799584418029000,2.982029052734375,-3.0089029995292425,-1.7886393205285072,3.2758938940376043
1789799584428001300,2.992001220703125,-3.9261160441249605,0.32041561070382596,3.5144764401853084
1789799584437972000,3.001971923828125,-3.765816176575422,1.3462708163261412,3.3307115258961915
1789799584447944200,3.011944091796875,-3.1559882884576913,1.8943243853151797,3.6054023272573947
1789799584457915100,3.0219150390625,-1.92007958881855,2.119921193161607,3.824118727940321
1789799584467887000,3.03188720703125,-0.738210230141878,2.112098536711931,3.7985610928356643
1789799584477858000,3.041858154296875,0.12975976785719395,1.9040303712934254,3.085438542199135
1789799584487830300,3.051830322265625,0.7620669065475464,1.6115397093474864,1.6381512374192475
1789799584497801000,3.061801025390625,0.8553928404986858,1.3391934252858162,0.4402238933891058
1789799584507773200,3.071773193359375,-0.058373424644023175,0.8543827866733074,0.2795049236446619
1789799584517744000,3.081744140625,-1.2599153059095143,-0.01912964788377285,1.8273679873734712
1789799584527716000,3.091716064453125,-1.5546511164337395,-0.8653110079228877,3.5310149025321005
1789799584537687000,3.10168701171875,-0.473950221902132,-1.4298317275881767,4.456167507955431
1789799584547659300,3.1116591796875,1.5775111830174922,-0.6730413001388311,4.688489824664592
1789799584557630000,3.1216298828125,2.264962116780877,0.9703975222945213,4.381061121305823
1789799584567602200,3.131602294921875,0.9281148892950266,1.928147744461894,2.6586937235862016
1789799584577573000,3.141572998046875,-0.3976012147802859,2.3681419207483527,-0.5651520033061505
1789799584587544300,3.15154443359375,-0.9560335544425994,2.7210329831212756,-3.7895138630270955
1789799584597516000,3.16151611328125,-2.3200996282435953,3.1963451410263777,-5.048882056447863
1789799584607487200,3.1714873046875,-3.899546601629257,3.3652292970478532,-3.6655239107429978
1789799584617459000,3.181458984375,-4.09436014867723,2.2529922775238753,-2.244260105013847
1789799584627430100,3.19143017578125,-2.807005047178268,1.0481909560710192,-0.9422592230468988
1789799584637402000,3.201402099609375,-0.07740648028552531,0.6280752002090215,0.5195166258126497
1789799584647373300,3.211373291015625,0.75635320507586,0.47911213470995423,2.4409715946376322
1789799584657345000,3.221344970703125,0.13805241643879562,0.011519757401943206,4.252767334347963
1789799584667316200,3.231316162109375,-0.08131693172752857,-0.5424281303226948,4.912652215793728
1789799584677288000,3.241287841796875,-0.78025554725416,-1.25608142683506,3.3340690196305514
1789799584687259100,3.251259033203125,-2.433778468263149,-0.950776291501522,1.2370441334098576
1789799584697231000,3.261231201171875,-4.056527553889155,-0.06041968964934349,1.3815952276855705
1789799584707202300,3.271202392578125,-3.234390501782298,0.5816191539824008,2.778931629860401
1789799584717174000,3.281174072265625,-1.1460030955255032,0.31360885329842564,3.5599352920681238
1789799584727145200,3.291145263671875,-1.7153940515756605,-0.7388964588403701,3.4349937381476163
1789799584737117000,3.301116943359375,-3.272068782791495,-1.9802114014372227,2.8014485820949075
1789799584747088100,3.311088134765625,-2.5990444337874647,-2.924967117474973,1.6116706422507763
1789799584757060000,3.32106005859375,-0.6933791547685861,-3.3796783858999606,0.36790684519708156
1789799584767031300,3.33103125,-0.8138993851155042,-3.3505320786535737,-0.004460486540198326
1789799584777003000,3.3410029296875,-1.704740555614233,-3.6161522693306205,-0.3738952719569206
1789799584786974200,3.35097412109375,-1.7761077557355165,-3.6439690815389154,-0.013131868773698806
1789799584796946200,3.3609462890625,-1.1107745457559823,-3.372059727589786,1.0546510919958352
1789799584806917000,3.370917236328125,-0.5011889419615269,-2.7642387953802943,1.9502654682457445
1789799584816888000,3.38088818359375,-1.0131032760769128,-2.0919035976842046,1.8232079450845717
1789799584826860300,3.3908603515625,-0.9748235220432281,-3.093878746025264,-0.8513724989414214
1789799584836831000,3.4008310546875,-0.4332955554306507,-3.965903280112147,-2.361183772173524
1789799584846803200,3.41080322265625,-0.4128197536349296,-2.983028845821321,-1.6253391021192072
1789799584856774100,3.420774169921875,-0.9403799851715564,-0.2611988671034574,1.5500854159533977
1789799584866746000,3.43074609375,-1.4505647190153599,1.3046058037683368,4.277285689532756
1789799584876717000,3.440717041015625,-1.2002034722685813,-1.5260545520246027,1.9649656092494725
1789799584886689300,3.450689208984375,-0.6707797849476337,-4.729241521769762,-1.7756395537018774
1789799584896660000,3.460659912109375,-0.8666659296631812,-3.805945357868075,-1.903245942917466
1789799584906632200,3.470632080078125,0.10190083354022353,-1.0766117255218326,-2.1456021623849866
1789799584916603100,3.48060302734375,1.356247435939312,-0.08466887250393629,-5.268650012010336
1789799584926575000,3.4905751953125,1.4505167882204055,-0.44723377215117216,-8.028465437990427
1789799584936546000,3.500546142578125,0.5602677383959292,-0.6941912018038332,-7.24131494359076
1789799584946518300,3.510518310546875,0.556942977887392,0.34838045308068394,-4.9248359900623555
1789799584956489000,3.520489013671875,1.967272863278538,1.2866324863128364,-3.38569399292767
1789799584966461200,3.530461181640625,1.510980901533365,1.6521717255957424,-2.6428596101164814
1789799584976432000,3.54043212890625,0.7740658988337963,0.494662024410814,-3.3570845690369606
1789799584986404000,3.550404052734375,-0.1936532710969448,-0.3576715746477246,-3.425723805499077
1789799584996375000,3.560375,-1.4877590158998966,-0.48809375193640586,-1.3031769400089979
1789799585006347300,3.57034716796875,-2.036702227205038,-0.9409526704929768,-0.867110166299343
1789799585016318200,3.580318115234375,-1.6764625556349753,-1.7542919375076889,-3.3931384637147186
1789799585026290200,3.590290283203125,-0.8962240325808525,-1.4553617440335451,-5.254584077256918
1789799585036261000,3.60026123046875,0.3452735731065273,0.6601347645536064,-5.080359729251265
1789799585046233000,3.610233154296875,0.9112287825543433,0.9731456519588828,-6.311875454628467
1789799585056204000,3.6202041015625,0.4372492614924907,0.6280863061249256,-7.504428119882941
1789799585066176300,3.63017626953125,0.0860778990516439,1.4966937252447008,-5.89049187078774
1789799585076147200,3.640147216796875,-0.007701660418510436,1.9868388567529618,-4.327084616446495
1789799585086118100,3.6501181640625,-0.24745613642241804,1.047509257417172,-4.4383875211149455
1789799585096090000,3.660090087890625,-0.6147627141714096,0.4775827331855893,-2.5152988136082888
1789799585106061300,3.670061279296875,-1.257631578886509,0.8019095259837806,-0.013258710023760795
1789799585116033000,3.680032958984375,-2.4425474656522272,0.11242167956531048,0.21489070491492748
1789799585126004200,3.690004150390625,-2.196907986730337,-0.8436078562892972,-1.0257675273388625
1789799585135976200,3.69997607421875,-1.3458371010839938,-1.3771511077582836,-3.688798987868428
1789799585145947100,3.709947021484375,-1.8388158485829829,-1.0548983447551727,-4.5128141088068485
1789799585155919000,3.719919189453125,-2.280354331701994,0.027974048596620556,-2.734934667223692
1789799585165890300,3.729890380859375,-2.443805356758833,0.7970701231285929,0.342573666498065
1789799585175862000,3.739862060546875,-1.3153554535806178,-0.19677724833637475,0.6236299112379551
1789799585185833200,3.749833251953125,-0.31132454175353047,-0.7125277996137738,0.061303486746549604
1789799585195805200,3.75980517578125,-1.127906882342696,0.08243541436344384,0.40051381429135796
1789799585205776100,3.769776123046875,-1.9618384171396492,-0.5603358351960778,-1.2780688022375106
1789799585215748000,3.779748046875,-2.5332617558002473,-1.4370084873497486,-2.1813024213194847
1789799585225719300,3.78971923828125,-1.8462714252859354,-1.3574755164295433,-1.3476239845007658
1789799585235691000,3.79969091796875,-0.8223328669399023,-0.7361842772722244,-0.7739385461270809
1789799585245662200,3.809662109375,-0.7699626282334328,0.052481297865509986,-1.1524123780459166
1789799585255634200,3.81963427734375,0.14980010084509848,0.532574844828248,-2.329066047900915
1789799585265605000,3.829605224609375,-0.11675828399751334,0.6339075596243142,-3.134476421612501
1789799585275577000,3.8395771484375,-1.6679150920420884,0.30558979749381543,-2.933378095206618
1789799585285548300,3.84954833984375,-3.0889252152711153,-0.01120937627851963,-1.6676573178887366
1789799585295520000,3.85952001953125,-1.7942577449321746,-0.050340194183588025,-1.316823188045621
1789799585305491200,3.8694912109375,0.45947735031563786,0.255582196265459,-2.395792144218087
1789799585315463200,3.879463134765625,0.9604635727792977,1.1288754351139068,-3.32110900029242
1789799585325434000,3.88943408203125,-0.08521627725362778,2.0777350793391465,-2.3468781834453343
1789799585335406000,3.899406005859375,-2.2334096251755953,2.2826894966512916,1.4072259280264376
1789799585345377300,3.909377197265625,-3.069537208712101,-0.4667436515241861,5.296378561413288
1789799585355349000,3.919348876953125,-2.0053303528636692,-4.468211581492424,6.895591873151064
1789799585365320200,3.9293203125,-0.31664252190589903,-3.7894676857978102,5.349712676715851
1789799585375292200,3.939292236328125,0.00770458302795887,-0.9125777860105038,3.1166993573814628
1789799585385263000,3.94926318359375,-0.39078561648130417,0.42797699075639245,3.712743927079439
1789799585395235000,3.959235107421875,-1.3333867848336696,-0.14988836365044117,6.329646089118719
1789799585405206300,3.969206298828125,-2.1094787096023557,-2.2427824336767195,9.009980566626787
1789799585415178000,3.979177978515625,-0.948967196252942,-3.2867291763067246,9.999523518896103
1789799585425149200,3.989149169921875,1.8431208523005247,-1.7540134128272533,7.58611680753231
1789799585435121200,3.99912109375,2.65819337284863,0.39754561213552947,5.200523985767364
1789799585445092000,4.009092041015625,2.191644951635599,0.780497466251254,3.485227549347281
1789799585455064000,4.01906396484375,-0.016862250941060482,-0.6773544871628284,2.6499299868941306
1789799585465035300,4.02903515625,-1.639413220179081,-2.801818584451079,2.266295411211252
1789799585475007000,4.039007080078125,-0.1403355224072933,-4.385865891239047,1.4676023630559443
1789799585484978200,4.048978271484375,1.3176771745264528,-3.8215532613664864,2.257546872088313
1789799585494949000,4.05894921875,0.9574936170578002,-0.9749322431147098,3.3418753094673153
1789799585504921000,4.068921142578125,1.3041945926189422,1.1040998902976513,1.7309657147169113
1789799585514892000,4.07889208984375,1.622465592509508,2.1098001966416833,-0.902392492082715
1789799585524864300,4.0888642578125,1.0314607705444097,2.903409073400497,-2.768461673772335
1789799585534835200,4.098835205078125,-0.9391846379071473,3.5728058795571327,-3.1505127796560526
1789799585544807200,4.10880712890625,-1.6702631164729593,3.1852345489472147,-3.4655946281164884
1789799585554778000,4.118778076171875,-1.3032915062993764,2.2506296400457617,-3.39309930074811
1789799585564750000,4.12875,-0.6872002469379455,1.6344366008102893,-2.325647179368138
1789799585574721000,4.138720947265625,0.06984861225187779,1.1745926456719635,-0.7021329545885324
1789799585584692700,4.148692626953125,0.6388701504677534,0.5480336952447891,0.5491945557177067
1789799585594664000,4.158663818359375,1.0366665224939584,0.2305354332923889,0.9654045363128184
1789799585604636000,4.168635986328125,1.3591606930375097,-0.02050385884642601,1.1559931591421364
1789799585614606800,4.17860693359375,0.6167617790341376,-0.2131166809797287,1.9566051926612853
1789799585624579000,4.1885791015625,-1.599009313598275,0.1984849290370941,3.3487270750582216
1789799585634549800,4.1985498046875,-2.2947639653265477,1.3282821551710366,4.075416378754377
1789799585644522000,4.20852197265625,-1.3148860825031996,1.9915601861864327,5.310402410590648
1789799585654493000,4.218492919921875,0.5287357415894046,2.067581349593401,5.992908873689174
1789799585664465000,4.22846484375,0.9203034118264913,1.2283160525530576,5.373452448743581
1789799585674435800,4.238435791015625,-0.5870510793706402,0.7926748107790946,5.199215241256356
1789799585684408000,4.248407958984375,-2.8580577735453843,1.0020511361867188,6.121484400197863
1789799585694378800,4.258378662109375,-2.4977526355236765,0.7151812367320061,6.475936720538139
1789799585704351000,4.26835107421875,-1.22956108417809,-0.8167962756007909,6.088799689692259
1789799585714322000,4.278322021484375,-0.13929858970814385,-2.505140992209315,4.906836222991347
1789799585724294000,4.2882939453125,0.7974643831431866,-3.1748622080147264,3.623107495296001
1789799585734264800,4.298264892578125,0.1438824012339115,-3.1023797401279207,3.0359289536207914
1789799585744237000,4.308237060546875,-0.31095161678791045,-3.2464684775888917,2.7658663965821266
1789799585754207700,4.318207763671875,1.1098726284801959,-2.8145909722626206,2.251513437142968
1789799585764180000,4.328179931640625,1.3048960188865661,-1.829718349891901,1.586258553096652
1789799585774151000,4.33815087890625,-0.12554711859822273,-0.9046434858798981,1.0188438655555248
1789799585784123000,4.348122802734375,-0.5237339512467384,-0.3748357676774263,0.5386404284775257
1789799585794093800,4.35809375,0.4109796787261963,-0.295569923260808,0.09644611179828644
1789799585804066000,4.368066162109375,0.7935387341320514,-0.48001405198574065,0.3074707889348268
1789799585814036700,4.37803662109375,0.6426794796228409,-0.8375602466881275,0.94346918335855
1789799585824009000,4.388009033203125,0.8658744870245456,-1.5166010795027016,1.0362035811573267
1789799585833980000,4.39797998046875,1.124719484478235,-2.007113436888158,0.3826566705614328
1789799585843951900,4.407951904296875,0.9924772521555423,-1.8780898743510246,-0.4229641310304403
1789799585853922800,4.4179228515625,1.05831662876606,-1.238705052359402,-1.3659668659210205
1789799585863895000,4.42789501953125,0.7242799044668674,-0.4470324043601751,-1.2993471525877713
1789799585873865700,4.43786572265625,0.1992647177705541,-0.3750175539851188,-0.8304811020821332
1789799585883838000,4.447837890625,0.35193361551761626,-0.9607707390323281,-0.9605325463622808
1789799585893809000,4.457808837890625,0.5606488832006231,-1.506100436015427,-1.416464881014824
1789799585903780900,4.46778076171875,0.5793126671383158,-1.2733297910168766,-1.8332161288797855
1789799585913751800,4.477751708984375,0.20629300897214561,-1.051870813627541,-2.3008687119424343
1789799585923724000,4.48772412109375,-0.13902615684177724,-0.5217161816835403,-1.2484493245214223
1789799585933694700,4.49769482421875,-0.23997312372326848,-0.5261822211816907,0.41281040128469465
1789799585943667000,4.5076669921875,-0.03937222544550895,-1.356771459813416,0.9306535409271717
1789799585953638000,4.517637939453125,-0.10789813772626221,-2.6245155596524476,0.1785422112047672
1789799585963609900,4.52760986328125,0.6631587885499001,-3.247659733200073,-0.6581137801200151
1789799585973580800,4.537580810546875,1.174209783834219,-2.4093771635867656,-1.3552537487268448
1789799585983553000,4.547552978515625,0.8178618590056895,-1.3832994012549518,-1.8136188634842634
1789799585993523700,4.557523681640625,-0.08987944675907492,-1.6707145135022698,-2.10960204372108
1789799586003496000,4.567495849609375,-0.9460008207280188,-2.2556112278506157,-3.386773020336032
1789799586013467000,4.577466796875,-1.297272830531746,-1.107948090158403,-3.9275674119770523
1789799586023438800,4.58743896484375,-0.43700018210224806,-0.5866099480070174,-4.733993100211024
1789799586033409800,4.597409912109375,1.1946972760677337,-1.5703038819871842,-6.077717154663801
1789799586043382000,4.607382080078125,0.9114869220338762,-0.8769505923122167,-5.5883197727829215
1789799586053353000,4.61735302734375,0.9854090673349797,0.1027566101193428,-5.062660990953445
1789799586063323600,4.62732373046875,0.38075646296329796,1.6434996127098798,-3.120402888074517
1789799586073296000,4.6372958984375,-1.644140833222866,3.4406980872690673,0.09953297189772128
1789799586083267800,4.647267822265625,-1.6669405479215085,0.15961553854718805,-1.5223177035838364
1789799586093238800,4.65723876953125,-0.5715722456119954,-2.900738685147464,-3.9604292326152324
1789799586103211000,4.6672109375,-0.07480696531161665,-2.4539193390160796,-4.92984534265697
1789799586113182000,4.677181884765625,-0.13945632841996847,-1.2077148708119987,-6.2748220275193445
1789799586123152600,4.687152587890625,0.33206820070520043,0.26512261641845103,-7.027930551585555
1789799586133124900,4.697124755859375,-0.13774258330464362,1.6060202152736485,-5.89550706860125
1789799586143095800,4.707095703125,-0.36994273493885993,2.226735554239154,-2.9955940206229683
1789799586153067800,4.71706787109375,-0.05768989935927093,1.159493714608997,-2.8548960946440696
1789799586163038700,4.727038818359375,-0.12856208250522613,0.22992431565672158,-3.4141911886155603
1789799586173011000,4.737010986328125,-0.04338781776241958,-0.5896285651758313,-4.583534243196249
1789799586182981600,4.746981689453125,-0.4310801078708842,-0.997095559605956,-5.526589000535011
1789799586192953900,4.756953857421875,0.09278119608256966,-0.5994283669173717,-4.696034833216667
1789799586202924800,4.7669248046875,-0.9206500333070754,0.10182663579285144,-2.498344756197929
1789799586212896800,4.776896728515625,-1.668507212716341,0.30001404318809505,-0.9000508973926306
1789799586222867700,4.78686767578125,-1.8391396737098693,-0.1406271988302469,-0.578569703283906
1789799586232840000,4.79683984375,-1.7206944960713386,-0.6808890910297631,-1.142758414515853
1789799586242810600,4.806810546875,-0.887476077979803,-1.0278455026566982,-2.3055735286325216
1789799586252782800,4.816782958984375,-0.06974865444216412,-1.1326949934020638,-3.4226790309756994
1789799586262753800,4.82675390625,0.15053484486043453,-0.6799839588835835,-2.9884336274743077
1789799586272725800,4.836725830078125,-0.1790828939527273,0.09387567678838968,-1.7710329366892574
1789799586282696700,4.84669677734375,-1.0744044247359037,0.6631362844571471,-0.3230611567765474
1789799586292669000,4.8566689453125,-1.3717442802786826,0.8574488962456583,0.9668050507605075
1789799586302639600,4.8666396484375,-1.605894981458783,0.3283934577152133,1.5572814649373292
1789799586312611800,4.87661181640625,-1.05544428820014,-0.5712231399133801,1.998212045291066
1789799586322582800,4.886582763671875,-0.4108469922572374,-0.6619575960665941,3.2938276101350783
1789799586332554800,4.8965546875,-0.2708194032879546,-0.6251923382490873,2.794008787482977
1789799586342525700,4.906525634765625,0.17017887200713155,-0.9260691357463597,0.9709639240056276
1789799586352498000,4.916497802734375,0.20205233919508753,-1.4828385106325148,-0.1563186889588833
1789799586362468600,4.926468505859375,-1.0094050060808657,-1.602933793565631,0.7363415136605501
1789799586372440800,4.93644091796875,-2.2782868777781724,-0.7328384739756584,2.569776838248968
1789799586382411800,4.946411865234375,-1.6062801813840866,0.6731874306112527,2.587088038533926
1789799586392383700,4.9563837890625,0.17787760981619358,1.4718407312780617,1.3960767575025557
1789799586402354700,4.966354736328125,1.1277724423080682,0.8673363762706517,0.9193038793951273
1789799586412327000,4.976326904296875,0.9096142600297927,-0.66435238224864,1.6999843009978532
1789799586422297900,4.9862978515625,-0.49414311510324477,-2.3637913243234157,3.7394419643908736
1789799586432269800,4.996269775390625,-1.2379285150289534,-3.545439733725786,6.446735175973177
1789799586442241000,5.006240966796875,-1.0298820499856025,-3.823383983924985,7.684550293755531
1789799586452212700,5.016212646484375,-1.106191382684186,-2.828108625483513,6.388859910109638
1789799586462184000,5.026183837890625,-0.3887708060601726,-1.6042875462621449,4.523218598443269
1789799586472156000,5.036156005859375,0.18141977593507616,-0.8666372880905866,3.0019349140822884
1789799586482126800,5.046126953125,-0.08319324699342251,-0.2641355050772428,1.6562579719960688
1789799586492098800,5.056098876953125,-1.1959335398644209,0.23913784194290635,1.2190887900024652
1789799586502070000,5.066070068359375,-0.9805822317004204,0.45542263156473634,1.240861061349511
1789799586512041700,5.076041748046875,0.14987144904825836,0.520200516423583,1.6446283244788646
1789799586522013000,5.086012939453125,0.3857868218133226,0.7096954987972974,2.0217139169096945
1789799586531985000,5.09598486328125,0.3634446050912142,0.7458189515799284,1.9611632943570612
1789799586541955800,5.105955810546875,0.6493938825696707,0.30379706885814667,2.2414847950816155
1789799586551927800,5.115927734375,0.9198404704898595,-0.03563713057041168,3.0743174287259576
1789799586561899000,5.12589892578125,0.27944000518228856,0.39416239943802356,3.804496328103542
1789799586571870700,5.13587060546875,-0.192377259811759,1.0175731149673461,3.5274802986651657
1789799586581842700,5.1458427734375,-0.4455541485011577,1.5101526340156792,2.628535316687822
1789799586591814400,5.155814453125,-0.6112625970959663,2.2640514316767453,1.7116069342523812
1789799586601785600,5.16578564453125,-0.4240624841937795,2.7213784355580803,0.3152414229363203
1789799586611757600,5.175757568359375,-0.6618079584628344,2.447563247987628,-0.350742359906435
1789799586621728800,5.185728759765625,-1.1470306850075722,1.9806313804149627,0.5443202276796102
1789799586631700500,5.195700439453125,-0.48841480058431624,1.1032137551128864,1.2786580003023147
1789799586641671700,5.205671630859375,1.0386731861412524,-0.39670097800493237,1.7204536730527877
1789799586651643400,5.215643310546875,2.1358301254332064,-1.5746031866163015,2.128743966564536
1789799586661614600,5.225614501953125,2.6939982612013815,-2.463545830017328,1.7654080825448035
1789799586671586600,5.235586669921875,1.6660422839075326,-2.836806311202049,1.6191986996680496
1789799586681557800,5.245557861328125,-0.7010965972781181,-2.3789824637144803,2.1790385680407285
1789799586691529500,5.255529541015625,-1.5904998439282179,-1.6132745703160762,1.7247545851171016
1789799586701500700,5.265500732421875,-1.5842881298065186,-0.5205769485205411,0.42628304632008074
1789799586711472400,5.275472412109375,-0.7270686584025621,0.4982943895637989,-0.7048696860760449
1789799586721443600,5.285443603515625,-0.10996906224880366,1.0741828909397124,-1.4747411288946866
1789799586731415600,5.29541552734375,-0.9322031084567308,0.5776607717454433,-1.6774235096216201
1789799586741386800,5.30538671875,-2.2039175732314584,-0.4237093964397907,0.0635386984527111
1789799586751358500,5.3153583984375,-2.1623685882687567,-1.2791875771343708,2.6796622773349283
1789799586761329700,5.32532958984375,-0.4540028278946876,-1.8572522535055875,4.604864031472802
1789799586771301600,5.335301513671875,1.0569558618068695,-2.1876994288802147,5.883121634280681
1789799586781272600,5.3452724609375,0.8236030330061912,-2.757459802764654,6.115329384699463
1789799586791244500,5.35524462890625,-0.2302694758325815,-3.038521308201551,5.514116472452879
1789799586801215700,5.3652158203125,-0.8389771277487278,-2.6539585117578506,4.65643405971229
1789799586811187500,5.3751875,-1.0728712238192557,-2.147671369874477,3.2432039228349923
1789799586821158700,5.38515869140625,-1.0595037927240132,-1.3250608550369738,1.0551052655041218
1789799586831130600,5.395130615234375,-0.9582207622885703,0.3088613665103912,-0.8369576046198606
1789799586841101600,5.4051015625,-1.3134259468227625,1.4664432561486958,-1.1771066743195056
1789799586851073500,5.415073486328125,-1.3094453527539969,1.3142761339113116,-0.837749631780386
1789799586861044700,5.425044677734375,-0.6489677661120892,0.8619660814091563,-0.6873772840052843
1789799586871016400,5.435016357421875,0.43109775312542914,-0.014822306078672408,0.09851005859076976
1789799586880987600,5.444987548828125,1.6474550723373889,-1.5583070085927844,1.8657453565627335
1789799586890959600,5.454959716796875,2.023510737198591,-3.2961613137796517,3.336702290743589
1789799586900930600,5.4649306640625,0.8705927477180957,-4.43470444868803,3.410236313509941
1789799586910902500,5.474902587890625,-0.1294657533466816,-5.066663212332129,0.45133214738070965
1789799586920873700,5.484873779296875,-0.517350972211361,-4.1964068569615485,-2.3636446093291044
1789799586930845400,5.494845458984375,-0.18667057260274886,-1.9020590712204575,-3.4557021796554324
1789799586940816600,5.504816650390625,0.3230675134520978,0.5742053705945611,-2.9383997227609155
1789799586950788600,5.51478857421875,0.6563455283384769,1.4435755907803773,-1.3940952282965182
1789799586960759600,5.524759521484375,0.7247592124164104,0.268107623578608,-0.3635001346707344
1789799586970731500,5.5347314453125,0.6245522137146443,-0.8340303189963102,-0.6622685617119074
1789799586980702700,5.54470263671875,0.8980909954965114,-1.3676377217426896,-1.0909615917831659
1789799586990674400,5.55467431640625,2.963064208418131,-0.5335331684663891,-1.2143734519183635
1789799587000645600,5.564645751953125,4.154733661097288,1.5375520975947379,-0.4365449126154184
1789799587010617600,5.57461767578125,4.1539655993342395,1.9416611598990856,0.893099178558588
1789799587020588500,5.584588623046875,2.7531016075551507,-0.03282879515141249,1.3088345273792743
1789799587030560500,5.594560546875,1.3844460870720445,-2.3439850923523307,0.20826982547044753
1789799587040531700,5.60453173828125,-0.2186006653487682,-3.47534503775835,-2.294789099767804
1789799587050503400,5.61450341796875,0.06745265702605246,-2.9000533332318064,-3.8908974312275646
1789799587060474600,5.624474609375,0.5767674761675298,-0.8601162157587706,-3.76298533706367
1789799587070446600,5.634446533203125,0.83110244885087,0.07417962719351053,-4.822827567961812
1789799587080417500,5.64441748046875,0.24971023549214005,-0.7078847961135208,-7.295681324550509
1789799587090389500,5.654389404296875,0.1555120487511158,1.341215286502242,-7.066186340221762
1789799587100360700,5.664360595703125,0.6841349410831928,3.3571459438353775,-6.586945610696077
1789799587110332400,5.67433251953125,0.7169323181830346,2.5452912162899968,-7.167075987425446
1789799587120303600,5.6843037109375,0.1001743385411799,1.3609822093762456,-7.362793789836764
1789799587130275600,5.694275634765625,-0.07211465748772025,0.7218024084374308,-7.4080848839372395
1789799587140246500,5.70424658203125,-0.44054355379752813,-0.030495091506838795,-8.392946400392056
1789799587150218500,5.714218505859375,-0.6891045461893082,-0.6818756178490817,-8.931949232441186
1789799587160189700,5.724189697265625,-0.6497439381163567,0.41090924383848904,-5.322695490452647
1789799587170161400,5.734161376953125,-0.1677237339399755,0.6875738294906913,-3.3107986186802387
1789799587180132600,5.744132568359375,-0.32393026776127515,-0.7347307174630463,-4.240684682366251
1789799587190104600,5.7541044921875,-0.7228267830491065,-1.0103814498975872,-4.1477842803508045
1789799587200075500,5.764075439453125,-0.8881330805838108,-1.0757957329638301,-4.668388116878271
1789799587210047500,5.774047607421875,-1.0484148279547691,-1.2855121039807795,-5.500735597354173
1789799587220018700,5.784018798828125,-1.2323054144501686,-0.7594479562208056,-4.8506882193118335
1789799587229990400,5.793990478515625,-1.4160346729040145,0.37721564855128525,-2.3199656266003847
1789799587239961600,5.803961669921875,-1.0886194125711917,0.8948217645674943,-0.13416998551487921
1789799587249933600,5.81393359375,-1.0700187569975852,0.6185016084387898,0.8470365155637264
1789799587259904500,5.823904541015625,-1.3964414991617202,-0.526288019643724,0.04903612584769725
1789799587269876500,5.83387646484375,-1.4481635030925273,-1.572974124109745,0.35178397791385646
1789799587279847700,5.84384765625,-1.5642986502230167,-1.9224483637765049,2.5479759253293275
1789799587289819400,5.8538193359375,-0.9301397461861372,-2.2433964739218353,3.574501577559113
1789799587299790600,5.86379052734375,0.6397481023460626,-2.573943018017709,2.449103463166952
1789799587309762600,5.873762451171875,0.35619887174665926,-2.3163918597668407,1.860216948530078
1789799587319733500,5.8837333984375,-0.27431670735180375,-1.7173896093070506,1.130425002643466
1789799587329705500,5.89370556640625,-0.43903556038737296,-1.3826558426544069,-0.4024503353118896
1789799587339676700,5.9036767578125,-0.23994800754832102,-0.9530921672284602,-1.2715034523725508
1789799587349648400,5.9136484375,-0.03955985697209835,-0.21535598433911798,-0.5892886656969786
1789799587359619600,5.92361962890625,0.2827396495158784,0.48749476312994955,0.7167530160933733
1789799587369591600,5.933591552734375,0.7501479206949472,0.47834056581556794,0.7298872229546308
1789799587379562500,5.9435625,1.1862427514553069,-0.2921528082937002,0.026944705548882484
1789799587389534500,5.953534423828125,0.8546160109072923,-0.9445493798106909,0.16514613853693008
1789799587399505700,5.963505615234375,-0.004258808221947402,-1.0690823529303073,1.1161901410639286
1789799587409477400,5.973477294921875,-0.26186580657958985,-0.5175859500110149,2.1294173357814548
1789799587419448600,5.983448486328125,0.3650643517801538,0.19866320821344852,2.5304870303899047
1789799587429420500,5.993420654296875,0.8792056777626276,0.17997370531260967,2.3319115004599094
1789799587439391500,6.0033916015625,0.9096867407441138,-0.3514180672109127,2.6760762355417014
1789799587449363500,6.013363525390625,0.38449791451394555,-1.0129694205641746,3.326788799494505
1789799587459334700,6.023334716796875,-0.5385012757351622,-1.166807398623228,3.9920319931030273
1789799587469306400,6.033306396484375,-1.1205594421893357,-0.5666571471720934,4.1771711183547975
1789799587479277600,6.043277587890625,-0.40899873404204845,0.15024083034992217,4.072642237865924
1789799587489249500,6.05324951171875,0.45193362040519713,0.4356120156794786,3.6782571355879305
1789799587499220700,6.063220703125,0.5245838460743427,0.36997137651145456,3.4461908394664524
1789799587509192400,6.0731923828125,0.06719605191648007,-0.510496868532896,3.269564106494188
1789799587519163600,6.08316357421875,-0.2478717680186033,-1.3394254804760217,3.3927789827525614
1789799587529135400,6.09313525390625,-0.22080080574154853,-1.8390671929955482,4.248176499426364
1789799587539106600,6.1031064453125,0.39454058510065076,-1.4016127643197773,4.565950655710697
1789799587549078500,6.11307861328125,1.158978312432766,-0.20049334625005721,4.090515748208761
1789799587559049700,6.1230498046875,0.8180535821855067,0.26314181786477564,2.854751717737317
1789799587569021400,6.133021484375,-0.2799918303787708,0.1436830792695284,2.6896768908709285
1789799587578992600,6.14299267578125,-1.0604045409560203,0.13717851968109607,3.7386949454158542
1789799587588964000,6.152964111328125,-0.5471358696222305,-0.3753279351085424,4.868960958105325
1789799587598935000,6.16293505859375,0.9942004226863383,-0.7406769125163555,4.718515545094013
1789799587608907300,6.1729072265625,1.822895810395479,-0.011248539245128631,3.884124576091766
1789799587618878200,6.182878173828125,1.7713129226744173,0.6874111862748861,2.09988436730504
1789799587628850200,6.19285009765625,1.7990706981718538,0.7203314591020346,-0.26583412568867204
1789799587638821000,6.202821044921875,1.127929678696394,0.41648704397082326,-0.9362485844552516
1789799587648793300,6.21279345703125,0.23801965156793592,-0.3403805403679609,-0.2790875750154257
1789799587658764000,6.222763916015625,0.7011866136491298,-1.100228601822257,0.2124538331568241
1789799587668736300,6.232736328125,1.749927604818344,-1.4843407318890094,0.25446751302182674
1789799587678707200,6.242707275390625,2.370785713255405,-1.0514894130945205,0.3393582115828991
1789799587688679200,6.25267919921875,1.9755179829239844,-0.2734650589585304,-0.07864917382299899
1789799587698650000,6.262650146484375,0.5162438877522945,0.297927300041914,-0.8174111926287412
1789799587708622300,6.272622314453125,-1.040703230664134,0.833450473281741,-1.0537585270702838
1789799587718593000,6.282593017578125,-1.9467858094364403,1.3457348097532986,-0.6641004533141851
1789799587728565200,6.292565185546875,-1.6094617340296506,1.9239093762397765,0.629881372848153
1789799587738536200,6.3025361328125,-0.28570027115345,2.116647870579362,1.5963368795186281
1789799587748508200,6.312508056640625,0.7888496995329857,1.836851855033636,1.9839584790110587
1789799587758479000,6.32247900390625,0.6575076309204101,1.0949521227240562,1.8137094643771647
1789799587768451300,6.332451416015625,-1.1826479418337343,0.289711844882369,2.1477684005081654
1789799587778422000,6.342422119140625,-2.5438825185358525,-0.5527835201203822,3.4766643036633726
1789799587788394200,6.352394287109375,-1.5269091230273246,-0.920859876665473,4.896071083348989
1789799587798365200,6.362365234375,1.1042074423253536,-1.1400111616343258,5.039669991466403
1789799587808337200,6.372337158203125,1.659907726675272,-1.124193999299407,4.146746169474721
1789799587818308000,6.38230810546875,-0.18063947574496267,-1.2972393666535615,1.989672180482745
1789799587828280300,6.3922802734375,-1.035911904734373,-0.978352280691266,0.21827333309054373
1789799587838251000,6.4022509765625,-0.3788193208882585,-0.6007078853338956,-0.6669295392602682
1789799587848223200,6.41222314453125,0.23057751886844632,-0.5524456664681434,-0.9877882175564765
1789799587858194200,6.422194091796875,0.317710991387628,-0.9702943541809916,-0.7235761401116848
1789799587868166100,6.432166259765625,0.8076011617541313,-1.0975511993065477,0.5870873562604189
1789799587878137000,6.44213720703125,1.6312825206935404,-1.1628940245717763,2.403569207960367
1789799587888109300,6.452109375,1.9260066407799719,-1.917308078278601,3.7150270695805547
1789799587898080000,6.462080078125,1.6341887635290622,-3.042083676858246,4.06369963747561
1789799587908052200,6.47205224609375,1.5757763220489025,-3.7107808103129267,3.5219302633225915
1789799587918023200,6.482023193359375,1.1480477530956268,-3.1856329006150363,3.0001427699685097
1789799587927995100,6.4919951171875,1.15680739813447,-1.7925787058040499,2.686808057436347
1789799587937966000,6.501966064453125,1.868514236754179,-1.731382186563313,2.0428537355720997
1789799587947938300,6.511938232421875,2.4516706833064554,-2.4573443450286985,0.6257686768323183
1789799587957909000,6.521908935546875,1.9274656074166296,-2.1245015066891906,-0.1785597468614578
1789799587967881200,6.531881103515625,1.1862790648777037,-0.9998661933630705,-0.729616589319706
1789799587977852200,6.54185205078125,1.3450690393209457,-0.04382131380885839,-1.8266268136173485
1789799587987824000,6.55182421875,1.9576468106687068,0.15707184541374444,-3.1544051109194755
1789799587997795000,6.561795166015625,2.123739874666929,0.39378041438311334,-3.7280788588553664
1789799588007767300,6.571767333984375,2.1569487551771105,0.610410948702693,-3.7167683602899313
1789799588017738000,6.581738037109375,2.1115175219535827,0.5440392187811434,-3.6367291934132573
1789799588027710200,6.591710205078125,1.2273299641251563,0.22544351698085666,-3.3652357267886397
1789799588037681200,6.60168115234375,1.4550389418199658,-0.35238574319928884,-2.9932307986229656
1789799588047653000,6.611653076171875,1.4937830984950065,-1.0480313815951348,-3.0497336070895193
1789799588057624000,6.6216240234375,-0.10352817901372909,-1.7630384308040141,-4.23658484583199
1789799588067596300,6.63159619140625,-0.4974480018675327,-2.5922940827444196,-4.980886378586292
1789799588077567000,6.64156689453125,-0.48063028418794274,-1.664487017289549,-3.981299002164602
1789799588087539200,6.651539306640625,-0.21918065719380975,-0.5587162711702287,-4.1695840242266655
1789799588097510100,6.66151025390625,1.0803427287437022,-1.1717311187610029,-5.81454786427021
1789799588107482000,6.671482177734375,1.579378145933151,-1.0513926747217774,-5.577381614661216
1789799588117453000,6.681453125,1.5643993341185152,0.15372794181331992,-4.106073382824659
1789799588127425300,6.69142529296875,-0.07452537189126014,1.258027738597244,-3.129897277128696
1789799588137396200,6.701396240234375,-0.9378640568278729,2.0273403784893453,-2.362824525117874
1789799588147368200,6.7113681640625,0.001036065049469471,1.3095454521276055,-1.9534324078440666
1789799588157339100,6.721339111328125,0.5106313085675239,-0.4572679671704769,-4.769162028747797
1789799588167311000,6.73131103515625,0.41491453395709393,-1.5390499349370599,-6.380979385992884
1789799588177282000,6.741281982421875,0.8763152170181274,-1.427285550236702,-4.594705041030049
1789799588187254300,6.751254150390625,0.1324491530716419,-0.13829086483716965,-2.3524890090644357
1789799588197225200,6.76122509765625,-0.4149310467004776,0.2512485509753227,-2.1274247006595135
1789799588207197200,6.771197265625,-0.40350247471332545,-0.08545446992367506,-3.008527151954174
1789799588217168100,6.781168212890625,-0.03170329825282096,-0.3774059104263782,-4.627762676501274
1789799588227140000,6.79114013671875,0.7596808881938457,-0.7464996273204684,-6.413710858249664
1789799588237111000,6.801111083984375,0.6872352451860905,-0.5395055208742618,-6.498254935330152
1789799588247083300,6.811083251953125,-0.016315101919695735,0.17864274896979332,-5.525535692089796
1789799588257054200,6.82105419921875,-1.056151632751897,0.8823226407393813,-4.709277176627516
1789799588267026200,6.831026123046875,-1.2919535352051257,1.5450319319561123,-3.7257080380707976
1789799588276997400,6.840997314453125,-0.9673368926148861,1.7395371437072753,-3.1854104900360105
1789799588286969000,6.850968994140625,-0.3012368629813194,1.5762927471384405,-2.5951047562509775
1789799588296940300,6.860940185546875,-0.7799065146207809,1.3944663996964692,-0.7736649898827076
1789799588306912300,6.870912353515625,-1.0702525657534598,0.9793778243467212,0.23428923286795614
1789799588316883200,6.88088330078125,-0.5265735585868359,0.03260872265994549,-0.5598603266388178
1789799588326855200,6.890855224609375,-0.056122280149790454,-0.9594155250310897,-0.6225608207017183
1789799588336826400,6.900826416015625,0.3675304131001234,-1.758060642391443,0.2592541627764702
1789799588346798000,6.910798095703125,-0.9124269793629646,-2.076176743981242,4.063985468679666
1789799588356769300,6.920769287109375,-0.6682248397678137,-2.4296353771090504,6.9265545821696515
1789799588366741200,6.9307412109375,0.7716092263966798,-3.0639655460596082,5.3212569820821285
1789799588376712400,6.94071240234375,0.5452186743566766,-3.1674393645375964,3.494827152341604
1789799588386684200,6.95068408203125,0.6909931364148855,-2.583112705162167,2.7797084594517947
1789799588396655400,6.9606552734375,0.6584855360418558,-2.0527537828177214,2.2468892844736574
1789799588406627000,6.970626953125,0.09854690173612907,-1.5266571940928697,3.1764994538277387
1789799588416598300,6.980598388671875,-0.44246787292361256,-2.0109645593583583,4.903232645541429
1789799588426570200,6.9905703125,-0.6537649372607469,-2.603110368052125,5.2841901109695435
1789799588436541400,7.00054150390625,0.49775604490339753,-1.6010317593365906,4.488557619428635
1789799588446513200,7.01051318359375,1.7599246826976536,-0.6138590433299541,3.482883616569638
1789799588456484400,7.020484375,1.9820915160953998,-0.924832287427783,3.1705858458697795
1789799588466456000,7.0304560546875,1.150792667889595,-1.949384593757987,3.393391561692953
1789799588476427300,7.04042724609375,0.8032727771610021,-2.5262521692991253,2.641665431895852
1789799588486399200,7.050399169921875,0.008997545447945595,-1.4726789356678724,0.28334464793801306
1789799588496370400,7.060370361328125,-0.6011842706739902,0.21689678404033183,-0.9689525841832161
1789799588506342100,7.070342041015625,0.477863011431694,0.9289701178848743,-1.7922025659680365
1789799588516313300,7.080313232421875,1.76457572337389,0.8115332405060529,-2.729405674669146
1789799588526285000,7.09028515625,1.1207903283357619,1.0268559070974588,-2.178796575978398
1789799588536256300,7.10025634765625,-0.3533563417971134,1.6401678379386662,-0.1367021343410015
1789799588546228200,7.110228271484375,-1.0167945318102836,2.310526182603836,0.7451888369828462
1789799588556199400,7.120199462890625,-0.19698972204327583,2.6064152548164126,-0.4878559976577759
1789799588566171100,7.130171142578125,0.4233820641815662,2.3607126475304363,-1.437719850489497
1789799588576142300,7.140142333984375,-0.2705681684732437,2.114547098907828,-0.7569827351510524
1789799588586114300,7.1501142578125,-1.7542121502697468,2.8055589400231837,1.4846967057198286
1789799588596085200,7.160085205078125,-1.8112790223598478,2.3779098660469056,3.3216531901717183
1789799588606057500,7.170057373046875,0.9077402828514576,0.06674421649575234,3.859852304622531
1789799588616028400,7.1800283203125,2.5541806251883505,-1.578233067551255,5.928228603985906
1789799588626000400,7.19000048828125,1.808024404478073,-1.9314695823609829,7.959863610929251
1789799588635971300,7.199971435546875,0.7672375871837138,-1.9965823982626199,8.461549396497011
1789799588645943300,7.209943359375,0.8157838836878538,-0.9540250641644,6.753261962056159
1789799588655914200,7.219914306640625,0.196828978523612,-0.16449088949859142,3.5130648198217154
1789799588665886500,7.229886474609375,-0.8508873457729816,0.3064268328398466,1.859897799578309
1789799588675857400,7.239857421875,-1.7191221321880816,0.8863689935207366,1.4921329932004213
1789799588685829400,7.249829345703125,-1.5676666653513907,1.0601584572404623,1.0030050759106874
1789799588695800300,7.25980029296875,-0.5307932221084832,1.161818504294753,0.9577613280832767
1789799588705771300,7.269771240234375,0.7576420758426189,0.386212901738286,0.05038520236909389
1789799588715743200,7.2797431640625,2.1830068871498107,-0.9217278916716575,-1.5405530329763888
1789799588725714200,7.289714111328125,1.6026403635770081,-1.9587305142521858,-1.6818278820604085
1789799588735686400,7.299686279296875,-0.7662386392742395,-2.9053520241618154,0.015861585998535155
1789799588745657000,7.309656982421875,-1.4463853875041006,-3.640139294117689,1.188172842735052
1789799588755629300,7.31962939453125,-0.2921253357648849,-3.2847780422389508,1.6194640726059675
1789799588765600300,7.329600341796875,0.7493845351070165,-1.8719611623376606,2.5509002883434295
1789799588775572200,7.339572265625,0.3750052790254354,-0.5820639751404524,2.8360692290991545
1789799588785543200,7.349543212890625,-0.774048436242342,0.12185995451807975,2.1867782223820686
1789799588795515400,7.359515380859375,-2.0318074409008027,0.5424585254609584,1.6059931811362504
1789799588805486000,7.369486083984375,-1.9333231012731789,0.8858353250354528,1.6606810491353272
1789799588815458300,7.379458251953125,-1.4355442600160837,1.035939961785078,1.9340379715442657
1789799588825429200,7.38942919921875,-1.0394745656520128,1.3188210838645695,2.152345791426301
1789799588835401200,7.399401123046875,-0.5240624525487423,1.0562298856198786,2.091395355901122
1789799588845372200,7.4093720703125,0.3793681504100561,0.309891294080019,2.5304163032412528
1789799588855344400,7.419344482421875,1.2044079382210968,-1.0005296257078646,2.9614181947767735
1789799588865315000,7.429315185546875,1.4700602776020764,-2.624654675862193,3.0336773753017185
1789799588875287300,7.439287353515625,1.168012098237872,-4.007333607131242,1.4349936403959989
1789799588885258200,7.44925830078125,0.54286593721807,-3.6382901591196655,-0.37012276768088337
1789799588895230200,7.459230224609375,-0.4408271199792623,-2.446578036342561,-0.8893979859530925
1789799588905201200,7.469201171875,-0.9419441657483577,-1.4268877830907702,-0.4787006312996149
1789799588915173400,7.47917333984375,-0.2431879941165447,-1.0596230351895093,-0.3978407956898212
1789799588925144300,7.489144287109375,0.025332009655237197,-0.9772568866699933,-0.022577157989144322
1789799588935116300,7.4991162109375,-0.1201975742638111,-0.7980874834775924,1.3070529046595096
1789799588945087200,7.509087158203125,-0.2609375858187675,-1.0469120221763848,2.7079952223718164
1789799588955059200,7.51905908203125,-0.28330957662463185,-1.8305112538352608,3.518405011805892
1789799588965030100,7.529030029296875,-0.0091454294860363,-2.4691525639832017,3.5892993337184187
1789799588975002400,7.53900244140625,0.4085726175844669,-2.5469848684653638,2.9324919600218533
1789799588984973300,7.548973388671875,0.07723168997419998,-1.9377403331935406,1.1857885779470205
1789799588994945300,7.5589453125,-0.3731786115875467,-0.5737716553524136,0.6946183411747217
1789799589004916200,7.568916259765625,0.566620285760425,-1.0577087260007858,-0.9874708221703767
1789799589014888200,7.57888818359375,1.2292659006237983,-2.2894492000445723,-3.093433048084378
1789799589024859100,7.588859130859375,1.5403320837020873,-2.1507944703310726,-4.1594793943196535
1789799589034831400,7.598831298828125,2.549539521384239,-1.4500880414143205,-6.1827621679812665
1789799589044802300,7.60880224609375,2.1724317171216008,0.562011951714754,-6.437896035957336
1789799589054774300,7.618774169921875,1.4000328016519545,2.2704059152700005,-5.799301779821515
1789799589064745200,7.6287451171875,1.2884756299614906,1.5794126327246427,-5.95858224119544
1789799589074717200,7.63871728515625,1.9937538968384265,0.9734114632882177,-5.880412375321984
1789799589084688100,7.648688232421875,1.0180535919606686,1.417360806941241,-6.000796412068605
1789799589094660400,7.658660400390625,0.4699285651706159,1.3952518509857357,-6.000027181261777
1789799589104631300,7.66863134765625,1.0365500565074384,0.6634643473677336,-4.643203406739235
1789799589114603300,7.678603271484375,0.47281493426188825,-0.5350545328147709,-3.2649586585253476
1789799589124574200,7.68857421875,-0.022047069700434803,-1.3336303843311965,-1.3936626820981501
1789799589134546200,7.698546142578125,-1.2172609900534153,-1.1305895455554127,0.9896493352532386
1789799589144517000,7.70851708984375,-2.456087330704927,-0.3499032787337899,1.806857114264369
1789799589154489300,7.7184892578125,-1.242804596632719,-2.180827643414587,-1.255550096437335
1789799589164460300,7.728460205078125,-0.12605915977358817,-3.2489918585866686,-3.8523102186799045
1789799589174432300,7.738432373046875,0.6970001948099583,-2.33508501592949,-5.255554968115687
1789799589184403200,7.7484033203125,0.733060519228503,-0.7577889369674027,-6.342727104488015
1789799589194374400,7.75837451171875,-0.18470650598816574,1.3292597680315374,-5.469052757367491
1789799589204346000,7.76834619140625,-1.6708184122681617,2.3926542845837773,-3.782812319561839
1789799589214317300,7.7783173828125,-2.041495306700468,1.8891656873777507,-4.17848921521604
1789799589224289300,7.788289306640625,-0.013807576078176497,-0.0791771432198584,-7.7630942536383865
1789799589234260200,7.79826025390625,1.0771113456070422,-0.6972346611529588,-8.937132772558927
1789799589244232200,7.808232177734375,0.44125794914457944,0.47137452619522807,-6.882575155189633
1789799589254203400,7.818203369140625,-1.2279308526277541,1.190222761002183,-5.050077403712272
1789799589264175000,7.828175048828125,-2.2341677500665185,1.0125444731503725,-4.344384126293659
1789799589274146300,7.838146240234375,-1.91608847335577,0.35291239742189645,-3.683139062410593
1789799589284118300,7.8481181640625,-0.20468787533044813,-0.5308467058613896,-3.7260441381573677
1789799589294089200,7.858089111328125,0.28280454971194263,-1.310755850830674,-3.213294522261619
1789799589304061400,7.8680615234375,-1.4430325699448585,-1.5474243800505996,-0.8943208293080329
1789799589314032400,7.878032470703125,-2.062493671065569,-1.8989394778952002,-0.4881283848583698
1789799589324004400,7.88800439453125,-1.7047826411902904,-2.4393220738649366,-0.9886661694347858
1789799589333975300,7.897975341796875,-0.5636205559551716,-2.9897756897330283,-1.0776800854057074
1789799589343947500,7.907947509765625,-0.05540624540150165,-2.825364879733324,0.3891442790150642
1789799589353918200,7.917918212890625,-0.5624568459380418,-1.7671560952559113,4.359838300535083
1789799589363890400,7.927890380859375,-1.0288971306014805,-1.3800050358846783,6.642049073758721
1789799589373861400,7.937861328125,-1.1718085679113863,-2.444405076217651,5.150693494671583
1789799589383833300,7.947833251953125,-0.526211812602356,-3.311567264965176,3.739581080600619
1789799589393804300,7.95780419921875,0.29013971490561963,-3.109120446559787,4.255109513559937
1789799589403776500,7.967776611328125,0.6992809992235154,-2.9503789143681525,4.693016362178326
1789799589413747200,7.977747314453125,0.9769131877988576,-3.4094314268678425,4.044363653364777
1789799589423719400,7.987719482421875,0.8224474332302808,-3.866573137310147,2.763403805860877
1789799589433690400,7.9976904296875,-0.26054880569688976,-3.0879671838939187,1.767676611998677
1789799589443662300,8.007662353515625,-0.6914046398252248,-1.2721364895790814,0.9257768748015165
1789799589453633300,8.01763330078125,-0.1668967815965414,0.22652093695402145,0.6222662216693162
1789799589463605500,8.02760546875,-0.3267098154772073,1.0397001911014319,0.3642880701780319
1789799589473576200,8.037576171875,-1.0634125636655836,1.6744254968494177,-0.12435060229003429
1789799589483548400,8.04754833984375,-1.1469413262236863,2.3754905299454925,-0.24000761051476
1789799589493519400,8.057519287109375,-0.5725556306261569,2.7464994328111407,0.6450140600502491
1789799589503491300,8.0674912109375,-0.09489194115884601,2.1353788745343683,2.1777876911967993
1789799589513462300,8.077462158203126,-0.30694303873367607,0.38025779272615906,4.0587668572485445
1789799589523434500,8.0874345703125,0.33543373161554335,-1.7433154932022095,5.248603833803534
1789799589533405200,8.0974052734375,0.7599005953591317,-3.0393168424934145,5.041541630557179
1789799589543377400,8.10737744140625,0.3298977247983217,-2.63212018943727,3.7617975885838266
1789799589553348400,8.117348388671875,0.37755668054129926,-1.1978098551303147,2.2034341736286875
1789799589563319300,8.1273193359375,-0.4338485496709123,0.14329963290989398,1.5521072771698237
1789799589573291300,8.137291259765625,-1.8217904795020818,1.476611014419794,2.3520681533038617
1789799589583263000,8.147262939453125,-1.9789771834671497,2.2693191429466006,2.4268325946480034
1789799589593235000,8.15723486328125,-0.8666144917368889,2.3893624034315346,2.20954651902914
1789799589603206000,8.167205810546875,0.35868250525593753,2.2052087820857764,1.993022075432539
1789799589613178000,8.17717822265625,1.0832903265029192,1.686191337966919,1.4084434871226548
1789799589623148800,8.187148681640625,0.5535930829375982,0.7201426585316658,1.5365174938499926
1789799589633121000,8.19712109375,-0.5737351227343082,-0.26372926236391064,2.570901458364725
1789799589643092000,8.207092041015626,-0.9542711478799581,-1.4340847088575361,3.887076411634683
1789799589653064000,8.21706396484375,0.08788637324571609,-2.3457816203802824,4.626722227537631
1789799589663035000,8.227034912109374,1.5943068349957465,-2.242678973302245,3.8008015652388334
1789799589673007000,8.237007080078126,1.4447113168120382,-1.1669383315265178,2.4513836830586193
1789799589682977800,8.246977783203125,0.7239864744782447,0.3164911307364702,0.8228881627351046
1789799589692950000,8.256949951171874,0.39628889007270335,1.1983604747503995,-0.8056435979455709
1789799589702921000,8.2669208984375,-0.2993044518803246,1.7811054178923367,-1.3016051606476307
1789799589712893000,8.276892822265625,-1.0280874947190284,1.3277268593758345,-0.7806997108250856
1789799589722863900,8.28686376953125,-0.9463871166318655,0.2686164498835802,0.5048918881326914
1789799589732836000,8.296836181640625,-0.05910745627330616,-0.06237725345790386,1.7278741784423588
1789799589742806800,8.306806884765624,1.0002133993655442,0.08386486264467238,2.8076328236877917
1789799589752779000,8.316779052734375,1.516855931046605,0.21766250771582124,3.3160768513441083
1789799589762750000,8.32675,0.949827027952671,0.3844745336383581,3.914486981129646
1789799589772722000,8.336721923828126,-0.34863515849411486,0.3727700673192739,4.637316102266311
1789799589782692900,8.34669287109375,-0.9735188691854476,0.16313889036774634,4.461428789484501
1789799589792665000,8.3566650390625,-0.47385085318088527,0.23837094922363758,3.5890912439256906
1789799589802636000,8.366635986328125,-0.5032417828381062,0.43177462947368617,2.385083118677139
1789799589812608000,8.37660791015625,-0.9674421796202659,0.5511562111794949,1.1172212376773356
1789799589822579000,8.386578857421876,-1.2107827339500188,0.318031930437684,0.5264806196063757
1789799589832550000,8.3965498046875,-0.6653121671915054,-0.1538210269242525,0.6412117451578379
1789799589842521900,8.40652197265625,0.05421089813709259,-1.0783435177505016,1.699458815819025
1789799589852492800,8.416492919921875,0.994991865324974,-1.7801964863538742,3.2949411243349314
1789799589862465000,8.426465087890625,2.469932316184044,-2.2120301525384187,4.447763252225518
1789799589872435700,8.436435791015626,2.8598212760865684,-2.8357494956254956,4.293575730076432
1789799589882408000,8.446407958984375,1.6453648220598698,-3.2703207700803874,2.858966705083847
1789799589892379000,8.45637890625,0.5044400527119636,-3.342292073574662,1.960557729679346
1789799589902350800,8.466350830078126,-0.0012508769866348302,-3.3516333178937434,1.8074468968510626
1789799589912321800,8.47632177734375,-0.06139701024889946,-3.0017279933333394,1.6983400409221647
1789799589922294000,8.4862939453125,0.29240356818437574,-2.6513138424679634,0.8078355550318956
1789799589932264700,8.4962646484375,0.4389256702721119,-2.218049266697466,-0.5841109707981348
1789799589942237000,8.50623681640625,-0.032255086916685105,-0.9679144733071327,-1.6368506762146948
1789799589952208000,8.516207763671876,-0.2863456198522821,-0.19979367354810237,-3.277769040259719
1789799589962179800,8.526179931640625,0.21446802252344785,0.10106295794397592,-4.382690768334269
1789799589972150800,8.53615087890625,1.1216880808930842,0.68142655890733,-4.381390207129717
1789799589982123000,8.546123046875,1.365715521508455,1.0951683958232403,-3.84784330239892
1789799589992093700,8.55609375,1.9477251361131667,0.33963235234916206,-3.7774078301697966
1789799590002066000,8.56606591796875,2.876946598410606,-0.6276262873977423,-4.341745594483614
1789799590012036900,8.576036865234375,2.913243069672584,-1.2809133780136703,-4.974795660495758
1789799590022008800,8.5860087890625,2.8406945508122443,-1.6985665431544184,-4.764107083445787
1789799590031980000,8.59597998046875,2.997085720485449,-1.420382931241393,-3.6420559413939713
1789799590041952000,8.605951904296875,2.83952784512043,-0.9273767112135887,-1.8693033413052558
1789799590051923000,8.6159228515625,1.4935294159948824,-0.46169688952863214,0.28518764545619485
1789799590061895000,8.62589501953125,0.011315174740552901,-1.0752174946844577,1.6405074451565742
1789799590071866000,8.6358662109375,-0.10216507396697998,-2.735197117552161,1.629037956637144
1789799590081837000,8.645837158203125,-0.5922585483532399,-3.8637379138842225,1.5712497845351696
1789799590091809000,8.65580908203125,-0.4559703285753727,-4.183436316229403,2.3877789336323736
1789799590101780000,8.665780029296876,-1.0564251889962701,-4.00935254573822,3.6620524352401493
1789799590111752000,8.675751953125,-1.4597079565443098,-4.605476610413193,3.4988410641580816
1789799590121723000,8.685722900390624,-0.33414303421787916,-6.119287182414531,-0.28362580296695233
1789799590131695000,8.695695068359376,0.925403438379243,-4.574710593010485,-4.49861724115014
1789799590141666000,8.705666015625,1.1451964553177356,-1.1547684396527707,-7.293354927429556
1789799590151638000,8.715637939453124,0.6543908140741288,0.9546059327922761,-10.714669684314726
1789799590161609000,8.72560888671875,0.17269005111046135,2.482693598079681,-13.726841914772987
1789799590171581000,8.735580810546875,0.6243243232429028,3.2988419311657546,-16.562013902771472
1789799590181551900,8.7455517578125,1.2649357644200325,3.8723108041793104,-18.689029438108204
1789799590191524000,8.755524169921875,1.6947228733383117,4.666621107205748,-17.759886301743983
1789799590201495000,8.7654951171875,-0.0005389291822910309,5.541161131244897,-12.589326077085733
1789799590211467000,8.775467041015625,-1.1496586223583667,5.20401825762391,-9.119117817693947
1789799590221438000,8.78543798828125,-0.8222878587543964,3.6878082232654092,-8.38596253285408
1789799590231410000,8.795409912109376,-0.5289162857880816,2.1063588240161537,-7.017697911384701
1789799590241380900,8.805380859375,-0.5392389423599466,0.787217129895091,-4.744894433453679
1789799590251353000,8.81535302734375,-2.001490628570318,-0.12768179253935813,-0.7192144377708435
1789799590261324000,8.825323974609375,-4.022023811262846,-1.1725783832401036,3.6698347596794365
1789799590271294700,8.835294677734375,-3.9529017597198486,-2.019062525618076,7.936254771804809
1789799590281267000,8.845266845703126,-3.1074791090935467,-2.820317825476825,10.762044014430046
1789799590291238000,8.85523779296875,-0.5031809925615787,-2.5314295719370246,13.392564367455243
1789799590301209900,8.8652099609375,2.741432212549448,-2.3219185142338277,16.06853714262247
1789799590311180800,8.875180908203125,1.55299048974514,-3.479219248843193,17.641541661870477
1789799590321153000,8.885153076171875,-0.027960641125775874,-4.321617290951312,15.054246702587603
1789799590331123700,8.895123779296876,1.353160575839877,-4.679084575198591,5.813437857201695
1789799590341096000,8.905095947265625,0.8453256199926138,-4.221049130786955,1.387652043506503
1789799590351067000,8.91506689453125,-0.4122878387153148,-4.253501786102354,-0.34114860213100906
1789799590361038800,8.925038818359376,0.4542623556137085,-4.656044768133759,-1.5063234311163425
1789799590371009800,8.935009765625,2.1235171718269585,-4.166549186575413,-2.3057857100784775
1789799590380982000,8.94498193359375,2.3181623765707013,-2.9116724593549965,-3.163033238533139
1789799590390952700,8.95495263671875,2.20919288328588,-1.6182845074325798,-4.360867059060931
1789799590400925000,8.964925048828125,2.427756139233708,-0.4214548955112695,-5.383136222890019
1789799590410896000,8.974895751953126,2.0141665702700613,0.8612883282780647,-5.433795566025376
1789799590420867800,8.984867919921875,0.9997837757766246,2.2068360910266636,-4.420613964015245
1789799590430838800,8.9948388671875,0.7291863812088966,3.0910300785958764,-3.4938726280957457
1789799590440811000,9.00481103515625,1.3545926544696092,3.348978419470787,-2.5619576889306304
1789799590450781700,9.01478173828125,1.140981541036442,3.03816942602396,-1.6428507934123278
1789799590460753000,9.0247529296875,-0.11613171306438744,2.0792267792016266,-0.5263263058274984
1789799590470724900,9.034724853515625,-1.5320932476669549,1.0813351007819174,1.0679144781947136
1789799590480696000,9.044696044921874,-3.1560610614329576,0.6438555376648902,2.244883789870143
1789799590490667800,9.054667724609375,-3.6764533010363576,0.2750140419661999,2.9495863026857374
1789799590500639000,9.064638916015625,-2.378130815321207,-0.542034162569046,3.39819048640728
1789799590510611000,9.07461083984375,-2.3744134022332726,-0.8828741371423006,4.068569289338589
1789799590520582000,9.084581787109375,-2.758019774734974,-0.7193722586810588,5.190544443544745
1789799590530553900,9.094553955078124,-2.067782425123453,-1.3167173895835875,5.738325625333189
1789799590540525000,9.104525146484375,-0.6273813727259635,-2.0176035589814183,5.946754440757632
1789799590550496800,9.114496826171875,1.6388491565555332,-2.0191443586826323,5.543819536799192
1789799590560468000,9.124468017578126,2.5963451117008924,-1.463281577247381,4.120177311500907
1789799590570440000,9.13443994140625,2.0653034677892923,-0.530521419429779,2.7812206175804137
1789799590580411000,9.144410888671874,1.3625924210518598,0.5926701248288154,1.7448153763711451
1789799590590382300,9.15438232421875,0.6827612415771931,1.423089267590642,0.9175006293654441
1789799590600353500,9.164353515625,0.23345106501076368,1.8787141437292099,1.1329513062506913
1789799590610325200,9.1743251953125,-0.46481359677705913,1.6782991234123705,1.625619088104367
1789799590620296400,9.18429638671875,-0.8428320496112107,1.0404454565107821,1.6155653116017579
1789799590630267400,9.194267333984374,-0.4288222094088793,-0.28662440026104447,0.7780307838767766
1789799590640239400,9.2042392578125,-0.8664023102909326,-1.2546458410739898,1.0381593914002178
1789799590650210300,9.214210205078125,-1.1309025570273399,-1.7315344545155762,1.7275468461841343
1789799590660182500,9.2241826171875,0.10692425119280814,-2.2937901518583295,1.8252064254254101
1789799590670153500,9.234153564453125,1.6827391516864298,-2.2084622309237716,1.9273896195709703
1789799590680125400,9.24412548828125,3.265875188848376,-0.9919809930711984,2.120073168852925
1789799590690096400,9.254096435546876,4.95248621353209,-0.02732347573339939,1.4555267253369093
1789799590700068400,9.264068359375,4.496919205060601,0.46949499605894085,0.8991916502147912
1789799590710039300,9.274039306640624,2.021792827364802,0.6325771878033876,1.5327508347928522
1789799590720011500,9.284011474609375,0.02362520573735237,-0.163881817689538,2.827298478144407
1789799590729982500,9.293982421875,-0.6299019041795283,-1.770166675248742,3.520995612820983
1789799590739954400,9.303954345703126,-0.17186635017003862,-2.8870062201321125,3.7516245696157213
1789799590749925400,9.31392529296875,-0.2092033434608951,-2.5327742645442486,3.436215973418951
1789799590759897300,9.3238974609375,-1.3218208502024411,-1.4286100768387318,1.7955074527323245
1789799590769868300,9.333868408203125,-2.159387526631355,-0.22125205664038658,-0.7852507982581853
1789799590779839500,9.343839599609375,-1.6832950320035218,1.5985446186959742,-1.7796920439630746
1789799590789811500,9.3538115234375,-1.2215326760232448,2.985309357973933,-1.4650474178761244
1789799590799782400,9.363782470703125,-0.6680173344969749,3.246574276050925,-0.8171569256067276
1789799590809754400,9.37375439453125,0.16374036339223383,2.818238973376155,-0.23604572114646433
1789799590819725600,9.3837255859375,0.7503653628379106,2.218724681740999,-0.45575405547618864
1789799590829697300,9.393697265625,0.4244873950749635,1.3583926312744616,-1.2827695272743702
1789799590839668500,9.40366845703125,-1.2691121733218431,0.781228703135252,-1.2401771707385778
1789799590849640400,9.413640380859375,-2.3624738119840623,0.4654647176295519,-0.45454175707697864
1789799590859611400,9.423611328125,-0.7488193024396896,-0.014314941078424452,0.9542898525804281
1789799590869583400,9.433583251953126,1.7254373066842554,-0.1601870548248291,2.6070535527199503
1789799590879554600,9.443554443359375,3.3301720121920106,-0.36045536014735696,4.019821917304396
1789799590889526300,9.4535263671875,2.810325131511688,-1.1385790830045939,4.737928686094284
1789799590899497500,9.46349755859375,0.9555062426328659,-2.068535873839259,4.153718346574903
1789799590909469400,9.473469482421875,0.08128829928808845,-2.5829145522415637,2.709634221750498
1789799590919440400,9.4834404296875,-0.18065350427031515,-2.7416213053807614,1.8371932158172128
1789799590929412400,9.493412353515625,-0.37434652285575865,-2.7307594273656606,1.7679326325863598
1789799590939383600,9.503383544921874,-0.46713820379972454,-2.9122745169013737,2.2189175739645957
1789799590949354500,9.5133544921875,-0.0176852942943573,-3.1547830043211578,2.7870114759415388
1789799590959326500,9.523326416015625,0.7570692443907261,-3.1869720402643082,3.364118705457449
1789799590969297400,9.53329736328125,1.1179401996016503,-3.2596009308844804,2.848286905637383
1789799590979269600,9.54326953125,0.5833306706080212,-3.4558991635322567,0.40512919913232326
1789799590989240300,9.553240234375,0.7878034053504467,-2.544121880249679,-1.77964469769001
1789799590999212500,9.563212646484375,1.9851193394839763,-0.6423305200546979,-2.943741668310761
1789799591009183500,9.57318359375,2.884114005821943,0.7422109902158379,-3.756981712734699
1789799591019155500,9.583155517578126,2.683441795873642,0.36922318849265573,-4.521953693073987
1789799591029126400,9.59312646484375,2.5078558041259646,-0.19769377865940332,-5.256642178830504
1789799591039098600,9.6030986328125,3.001829700142145,-0.0372919120401144,-5.916216094630956
1789799591049069300,9.6130693359375,3.1586475707948205,0.5528709061428905,-6.155325295001268
1789799591059041500,9.62304150390625,2.203404363012314,1.3443772576645017,-4.844270753484964
1789799591069012500,9.633012451171876,0.6177027131460606,1.31855921805799,-3.219984959810972
1789799591078984400,9.642984375,0.19633491139635442,0.37274785548746586,-2.865447883796692
1789799591088955400,9.652955322265624,0.5368681581079959,-0.2806627153776586,-2.9863790330320596
1789799591098926300,9.66292626953125,-0.23427293932028112,-0.08717720206305384,-2.915498739644885
1789799591108898300,9.672898193359375,-1.1615632143594323,0.0011963701777160168,-2.663161808910966
1789799591118869200,9.682869140625,-0.8118879722278565,-0.6477740262828767,-2.58937410364449
1789799591128841500,9.692841552734375,0.09668927290439605,-1.9012666056685148,-3.7382466171264648
1789799591138812400,9.7028125,0.5600769650641828,-1.8900677507840096,-3.759182437649369
1789799591148784400,9.712784423828126,0.8871312100648879,-0.6205379365719854,-2.8732646950274705
1789799591158755300,9.72275537109375,0.3311072467185557,0.4079140075452625,-2.8393776229947805
1789799591168727300,9.732727294921874,0.7531997094810009,-0.08237287052124738,-3.946918009135127
1789799591178698200,9.7426982421875,0.6651403908211737,-0.5728077787563205,-2.849070749491453
1789799591188670500,9.75267041015625,-0.2593615686737001,-1.054133936253935,-2.8198101682156325
1789799591198641400,9.762641357421876,-1.4164754024088382,-1.1662865896195174,-3.4901077226042747
1789799591208613400,9.77261328125,-1.457407132256031,-0.7745727523773908,-3.1704794628858566
1789799591218584600,9.78258447265625,-0.8364683597981929,-0.6552370556399226,-3.127978291764855
1789799591228555500,9.792555419921875,-0.5808160209059715,-0.7776312631651758,-3.7043595450937747
1789799591238527500,9.802527587890625,-0.34544542254209515,-0.8897560056105256,-4.581933237740397
1789799591248498400,9.81249853515625,-0.11740703022982925,-0.7976306796208024,-5.83838115980029
1789799591258470700,9.822470703125,0.099035543769598,-0.44660336529314515,-6.632074207711219
1789799591268441300,9.83244140625,0.6141957279384136,0.3759244396969676,-5.9667205394655465
1789799591278413600,9.84241357421875,-0.023839104216359555,1.2932850760698318,-3.779145613747835
1789799591288384500,9.852384521484375,-1.2494810056567192,1.0381681592285632,-3.4740666883856055
1789799591298356500,9.8623564453125,-1.4490098907887934,0.19634996283501385,-3.948006973415613
1789799591308327400,9.872327392578125,-0.9465724100708961,-0.2620452547997236,-3.468638818117976
1789799591318299600,9.882299560546874,-0.7826379854112863,-0.604575082156062,-2.8676141219198703
1789799591328270300,9.892270263671875,-1.0127695140779018,-1.027621923033893,-2.32456230674088
1789799591338242600,9.90224267578125,-0.8951479277819394,-1.603039592027664,-1.92186997936666
1789799591348213500,9.912213623046876,-0.7341694303184747,-2.0112138579443095,-1.7839964631587266
1789799591358184400,9.922184326171875,-0.24404373416304587,-2.355388822159171,-2.0707862831145523
1789799591368156400,9.932156494140624,0.18206169056780636,-2.5704484539002177,-1.8534926087111234
1789799591378127400,9.94212744140625,-0.12474866169691085,-2.328901797249913,-0.2614695007383823
1789799591388099300,9.952099365234375,-0.6586288169700651,-2.065653011879325,2.2313076844602824
1789799591398070300,9.9620703125,-0.07739018673785031,-2.0469985802918673,4.053472257971763
1789799591408042500,9.97204248046875,0.8221188588630407,-2.238110350212455,4.363637692818045
1789799591418013400,9.982013427734374,0.7104822652608156,-2.338797168320417,5.159170231115818
1789799591427985400,9.9919853515625,0.3452203816145658,-2.4967373210012913,7.037850472575426
1789799591437956400,10.001956298828125,0.3967740432411432,-2.564862178200483,8.75105724323988
1789799591447928300,10.01192822265625,0.15141922647953032,-2.0541852769255637,9.09160378782451
1789799591457899300,10.021899169921875,-0.2787554935168475,-0.7654553799420595,7.669357985320687
1789799591467870500,10.031870361328124,0.007299947749823331,0.8975555734455585,5.174398195385932
1789799591477842400,10.041842529296876,-0.08443477148711681,1.2964631215840576,3.4351591578423974
1789799591487813400,10.0518134765625,0.16495730143394322,0.3875385973840952,2.7849247327953575
1789799591497785300,10.061785400390624,1.006172600030899,-0.7810311347365378,2.5779379328727723
1789799591507756500,10.071756591796875,1.2523434093505144,-1.9526456413805484,2.0507582250863314
1789799591517728300,10.081728271484375,1.6057558652490376,-2.234637121143937,1.5971727458208798
1789799591527699500,10.091699462890626,1.9820120211184025,-1.5864128668755293,1.4151485377192496
1789799591537671400,10.10167138671875,1.76297179530859,-0.7725058829754591,1.4838181693196295
1789799591547642400,10.111642333984374,0.8190034302562474,-0.3688204529106617,1.295961017280817
1789799591557614300,10.1216142578125,-0.0022807313483208416,0.03329495135843753,1.2138538119584321
1789799591567585500,10.13158544921875,-0.2473351038586348,0.7573585827261209,1.3263257604062557
1789799591577556500,10.141556396484376,-0.5485258626759052,1.3629396270543337,1.3803238925755024
1789799591587528200,10.151528076171875,-0.4373901312679052,1.740028142094612,0.7702110500365495
1789799591597499100,10.1614990234375,-0.68132397531569,1.9963000741899013,0.2986842558890581
1789799591607471000,10.17147119140625,-1.2587573680460453,2.3958266310095784,0.46607495848238467
1789799591617442000,10.181442138671875,-1.4623393279612062,2.1061954501479865,0.6609042876213789
1789799591627414300,10.191414306640626,-1.0735206276386975,1.2010352469176053,1.2153431737333535
1789799591637385200,10.20138525390625,-0.3207049855718389,0.16274901426732538,1.9791507864683866
1789799591647357200,10.211357177734374,0.9321884954094887,-0.9999228919863701,1.9617635983377695
1789799591657328000,10.221328125,1.0723995146542786,-1.570142700076103,2.3717273780196906
1789799591667300400,10.23130029296875,0.3647726753572002,-0.9685767366081476,3.0094641405433413
1789799591677271000,10.24127099609375,0.9362707962870598,-0.23624095145761964,2.324929386487603
1789799591687242200,10.2512421875,1.2457406500846147,0.07236030281186104,0.6873369519948959
1789799591697214200,10.261214111328124,-0.2408534136891365,0.3370528572499752,-0.018491934502124784
1789799591707185200,10.27118505859375,-1.938280431419611,0.4758943417072296,0.43442543624341484
1789799591717157000,10.2811572265625,-1.973584384512901,0.12483341737091541,0.5169751246362925
1789799591727128300,10.29112841796875,-0.985569956985116,-0.5200526323854923,0.2711825009793043
1789799591737100000,10.30110009765625,-0.31868078626785423,-0.9600035540521145,0.36497020722329615
1789799591747071200,10.3110712890625,-1.1382084230612963,-1.1131056190520525,1.2675398094385861
1789799591757043200,10.321043212890626,-1.608632881990075,-1.0770955635160206,2.2309335904508827
1789799591767014100,10.33101416015625,-0.9177526313651353,-1.4557985280156134,2.3234967233359813
1789799591776986000,10.340986083984374,-0.3040251054603606,-1.9012848719775675,2.2184084553986785
1789799591786957300,10.350957275390625,0.2202133247097954,-1.9740905804693698,2.26579564499557
1789799591796928300,10.36092822265625,0.21193302415311335,-1.7523516170948743,2.2071698530256745
1789799591806900200,10.370900146484376,-0.8282277701973915,-1.4942565612256526,2.2831641284257174
1789799591816871200,10.38087109375,-1.7292770309776067,-1.2352350381612778,1.8120318865537641
1789799591826843100,10.390843017578124,-1.8542612549960613,-0.42083530230820176,-0.05323533110320568
1789799591836814000,10.40081396484375,-1.3874965606838463,1.249649347960949,-1.590603888824582
1789799591846786300,10.410786376953125,-1.1396394057124852,2.446892216858268,-1.971846600934863
1789799591856757200,10.42075732421875,-0.7891951519697904,2.3454975427418945,-2.1370055989533663
1789799591866729200,10.430729248046875,-0.5603554532120004,1.5084657038420437,-1.3264713063567877
1789799591876700200,10.4407001953125,-0.1541997240435332,-0.3075187197297811,0.020624854877591133
1789799591886672400,10.45067236328125,1.2884101635098457,-2.3914690203219653,1.6822113284200428
1789799591896643000,10.46064306640625,3.022867227473855,-3.8085149160951373,3.8151843108564614
1789799591906614000,10.470614013671875,2.9887469312071797,-3.707620592716336,5.580564920872449
1789799591916586200,10.480586181640625,1.083220256941393,-2.2155203327417374,5.78793399811089
1789799591926557200,10.49055712890625,-0.46402321358434856,-1.1499766753315925,4.22341790574491
1789799591936529200,10.500529052734375,-1.70842012090981,-1.1813231229707597,3.1097540682882068
1789799591946500000,10.5105,-2.017779500070214,-1.6250053401201963,2.5909552353560925
1789799591956472000,10.52047216796875,-1.9944103149205445,-1.6736545124769209,2.1916998966932297
1789799591966443000,10.530443115234375,-1.5641805768013,-1.6995552619308232,1.5291180312484502
1789799591976415200,10.540415283203124,0.3920166561136022,-1.7629761792227625,0.5296797079086304
1789799591986386200,10.55038623046875,2.1416934645086525,-1.732633355668187,-0.267339269554615
1789799591996358100,10.560358154296875,2.7577012103050946,-1.8430337585389613,-0.450130370375514
1789799592006329000,10.5703291015625,2.1074176854193207,-1.5633812431171537,0.7617413278549909
1789799592016300300,10.58030029296875,0.16068156034350395,-0.6433247917890549,2.8064585192114113
1789799592026272000,10.59027197265625,-1.6937632345259188,-1.3338701844364405,1.9368746562749146
1789799592036243200,10.6002431640625,-0.592803395819664,-3.6031107091888783,-4.815263854709268
1789799592046215200,10.610215087890625,0.5229343253016472,-2.4783465087860823,-7.5528580965310335
1789799592056186000,10.62018603515625,0.5894973400115966,-0.05043225638121366,-8.2864441740036
1789799592066158000,10.630157958984375,0.7029705744564533,1.7457625940933823,-8.95529211410582
1789799592076129300,10.64012939453125,0.4244236821889877,3.02765095461905,-9.107386463367938
1789799592086101000,10.65010107421875,-0.05761990286298096,3.827302326412499,-9.530676757612824
1789799592096072200,10.660072265625,-0.3731318863689899,4.1256440524742,-9.782111771070957
1789799592106044200,10.670044189453124,1.6046329986989498,3.29197818287611,-9.519451014721392
1789799592116015000,10.68001513671875,3.776683607548475,3.1214336924269794,-7.4492445773214095
1789799592125986000,10.689986083984374,4.402777863073349,3.1285905784443018,-2.5606173802375793
1789799592135958300,10.699958251953126,4.826480245250464,2.195041023814678,3.4786791506171224
1789799592145929200,10.70992919921875,-0.028863727445341644,-0.9412453698292375,8.326947449305653
1789799592155901200,10.719901123046874,-5.228249028038978,-6.086960783827305,9.049506521329283
1789799592165872000,10.7298720703125,-2.694592135441303,-11.425742901206016,4.313240800011158
1789799592175844000,10.739843994140625,0.2113426570445299,-12.063423549628258,2.9532021550953385
1789799592185815000,10.74981494140625,-2.124863325738907,-7.48197488053441,4.044925378900766
1789799592195787300,10.759787353515625,-2.561496501159668,-4.0223914755314585,0.6310948402911424
1789799592205758200,10.76975830078125,-0.4070762415468693,-2.833171754091978,-3.5149943265795707
1789799592215729200,10.779729248046875,0.18721531047131865,-1.2638392013549804,-7.128882742631435
1789799592225701000,10.789701171875,0.23439444680809973,0.7505895269826054,-9.710786072003842
1789799592235672300,10.79967236328125,0.9024982905447483,2.559659056599438,-10.590205100256204
1789799592245644000,10.80964404296875,0.7804501199781895,3.4982772927954793,-10.629624087452887
1789799592255615200,10.819615234375,0.475550679368712,3.7132951312214133,-10.881784492576122
1789799592265587200,10.829587158203125,0.6557727699518203,3.7456051631957292,-10.59716792500615
1789799592275558100,10.83955810546875,0.2723708339810371,3.758563428968191,-8.925080515715479
1789799592285530000,10.849530029296876,-0.909181129309535,3.327998467545211,-7.031503149375319
1789799592295501300,10.859501220703125,-1.4969915391474962,2.0018366655290127,-6.338341436749697
1789799592305472300,10.86947216796875,-1.6195575961083173,-0.2704074249535799,-7.663000140726566
1789799592315444200,10.8794443359375,-1.8921581471920013,-2.4302491250932214,-10.02692707412839
1789799592325415200,10.889415283203125,-0.22105627833995967,-3.5610730639263983,-12.65106327907443
1789799592335387100,10.89938720703125,4.1924166182816025,-3.307515359225869,-13.63729549936056
1789799592345358000,10.909358154296875,7.871866763046383,-1.0218716889441013,-9.550568037518858
1789799592355330300,10.919330322265624,-1.5695061557382344,2.5872429368346928,1.6517881331056354
1789799592365301200,10.92930126953125,-10.423507640624045,2.0395266369760034,11.980938158643244
1789799592375273200,10.939273193359375,-7.350213125205039,-1.4141431600689887,17.17092438378334
1789799592385244200,10.949244140625,0.41283721622638403,-4.074282990810275,13.848043697643279
1789799592395215400,10.95921533203125,3.691277360680699,-3.2149802833914753,26.45236743737459
1789799592405187000,10.96918701171875,2.972424157437682,-6.342072439971566,35.06278403778076
1789799592415158300,10.979158203125,-1.3611656031191348,-11.145981372451782,25.04175245143175
1789799592425130200,10.989130126953125,-1.7724048095643519,-6.853126942387223,2.497263390702009
1789799592435101200,10.99910107421875,-2.5877941409766674,-1.322188514471054,-4.637283953562378
1789799592445073200,11.0090732421875,-2.593147192442417,-0.7606757444500922,-5.443221566018462
1789799592455044400,11.01904443359375,1.506124693673849,-2.9754315225601196,-4.374546040323376
1789799592465016000,11.02901611328125,6.641568012243509,-4.550929612189531,-4.757602523857355
1789799592474987300,11.0389873046875,5.57017562880516,-3.2687901995122433,-4.79839981366992
1789799592484958200,11.048958251953126,2.1068945383280515,-0.9371090006768703,-4.42787898658216
1789799592494930200,11.05893017578125,-0.10421440771222114,0.9410095152467489,-4.6895273510187865
1789799592504901000,11.068901123046874,-0.9426351436872035,2.72430689022541,-4.620712173467874
1789799592514873300,11.078873291015626,0.6953026701770723,3.635737844288349,-4.63726232625246
1789799592524844300,11.08884423828125,2.6888527150064707,3.6116730780899524,-4.695460832720995
1789799592534816300,11.098816162109374,2.9374399378180502,3.6291795086860654,-5.228541873505711
1789799592544787200,11.108787109375,1.24673784442842,4.120536207941174,-5.361337063536047
1789799592554759200,11.11875927734375,-1.7707868529736994,2.956638559284806,-2.600640763068199
1789799592564730000,11.128730224609376,-3.341607598441839,1.0711182426720858,1.7456003892689942
1789799592574701000,11.138701171875,-3.5436633717030284,0.062441550865769385,3.699861064630747
1789799592584673300,11.14867333984375,-3.3487194762736556,-0.6395306602030992,4.424764653953909
1789799592594644500,11.15864453125,-1.94501470811069,-1.2439502595365046,5.164426251947879
1789799592604616700,11.16861669921875,0.21609072835445403,-1.444475169968605,5.564446729764342
1789799592614587600,11.178587646484376,1.9586732311069963,-0.644699002751708,5.619672357901931
1789799592624559600,11.1885595703125,2.425363691139221,0.7042536000043154,4.254554217764735
1789799592634530600,11.198530517578124,1.6072423044145105,1.6963994282484054,1.3117887010097502
1789799592644502500,11.20850244140625,0.1621556880166754,2.1078677672743797,-0.8389122458189725
1789799592654473500,11.218473388671875,-1.2595955724358558,1.2332464946925639,-1.7444336835771799
1789799592664444400,11.2284443359375,-1.4782283864885568,0.09461655828356742,-1.4218290383964776
1789799592674416600,11.238416748046875,-2.211555520763993,-0.057014265120029446,0.2684866860240698
1789799592684387300,11.24838720703125,-2.961412934079766,-0.12359247739911079,2.532223060402274
1789799592694359600,11.258359619140625,-3.7373043678402897,-0.46198915047347544,4.672352344334125
1789799592704330500,11.26833056640625,-5.086204948148131,0.04800678279995918,7.061529454326629
1789799592714302500,11.278302490234376,-3.3814369200050827,0.8502104694247246,7.407967979559302
1789799592724273400,11.2882734375,0.4625964687168598,2.2791689213097093,7.413823719850182
1789799592734244600,11.29824462890625,2.987211976724863,3.725482412621379,7.664768319442868
1789799592744216300,11.30821630859375,3.286504135379195,3.815015384030342,6.834719763559103
1789799592754187500,11.3181875,2.9348931759446857,3.2299417056798934,5.306853193676472
1789799592764159500,11.328159423828126,3.149479929476976,1.656729681161046,4.31055141479671
1789799592774130700,11.338130615234375,3.414475266253948,-0.6024357320398092,4.179064384755492
1789799592784102400,11.348102294921874,2.9717519572645426,-3.1149042906582354,4.215723844110966
1789799592794073600,11.358073486328125,1.725395221108198,-6.380097926983237,4.713282905137539
1789799592804045300,11.36804541015625,0.40041795270144936,-8.667407484650612,6.227783797490597
1789799592814016500,11.3780166015625,1.5578315000355243,-8.790041930672526,7.180457447046041
1789799592823987500,11.387987548828125,2.3148972372949124,-8.227261332672834,7.72683110012412
1789799592833959700,11.397959716796874,0.8916822974979877,-8.212095327723025,7.609975237503647
1789799592843930400,11.407930419921875,0.003846738556027412,-8.327091241690516,4.492008636665344
1789799592853902600,11.417902587890625,0.27735037595927714,-7.325945529910921,0.3038034985989332
1789799592863873500,11.42787353515625,-0.4073872071921825,-5.378780950289964,-2.0275538751095534
1789799592873845500,11.437845458984375,-2.01355399132967,-3.1491537662625313,-2.633226104852557
1789799592883816400,11.44781640625,-2.7130823163777587,-0.8711737624764442,-2.8492472751021385
1789799592893787600,11.45778759765625,-2.7235832521259784,0.8164613445580006,-3.3082460115879773
1789799592903759400,11.46775927734375,-2.472296122705936,2.001401196721196,-3.9341362689733503
1789799592913730600,11.47773046875,-1.3853764997899531,2.928885459962487,-4.590365550521016
1789799592923702500,11.48770263671875,-0.21767827154053374,3.5088790585696694,-5.064915491881966
1789799592933673700,11.497673828125,0.8242004143774508,3.6765269507944582,-5.336010314577818
1789799592943645400,11.5076455078125,2.0092332055211064,3.576609363493323,-5.247009258088469
1789799592953616600,11.51761669921875,2.945008327245712,3.395812066838145,-4.566439316010475
1789799592963587600,11.527587646484376,3.312883023738861,2.935597524821758,-3.368327263063192
1789799592973559600,11.5375595703125,3.8297406594753265,2.1640309685230252,-2.0944903993070123
1789799592983530500,11.547530517578124,3.981972371381521,2.09495187933892,-0.7752946369111537
1789799592993502700,11.557502685546876,4.183324964809417,2.7939868679121136,-0.10451719005107879
1789799593003473400,11.567473388671875,2.1149872438907624,2.4856243908345697,0.10506488706171511
1789799593013445600,11.577445556640624,-0.5962602217426524,0.9427662957862019,1.5627069971174001
1789799593023416600,11.58741650390625,0.23206574813220648,-0.8555278650552034,4.438130916005373
1789799593033388500,11.597388427734375,-0.10357026458978652,-2.5063664423510432,8.044345728689432
1789799593043359500,11.607359375,-3.101675391250849,-3.8771258032456037,10.534656816035508
1789799593053330700,11.61733056640625,-3.4336557675421235,-4.4364004389509555,8.85340877968967
1789799593063302400,11.627302490234374,0.6136918700695038,-4.254053867027163,3.8320880993843076
1789799593073273600,11.637273681640625,2.655557763648033,-3.8479093533724544,0.05197276382148266
1789799593083245600,11.64724560546875,0.6900362740814685,-2.98535202807188,-1.0073825603425501
1789799593093216800,11.657216796875,-0.5192108477991074,-3.813542096607387,-2.523974287495017
1789799593103188500,11.6671884765625,4.975279644620418,-6.023568215847015,-4.971234753143787
1789799593113159700,11.67715966796875,7.2957777706623075,-6.217851017019152,-5.939361992418766
1789799593123130600,11.687130615234375,4.141495409339666,-3.2086727076798676,-5.305844308894873
1789799593133102600,11.6971025390625,0.9258744168918579,-1.6546160500079392,-7.294109545189142
1789799593143073500,11.707073486328126,0.7436953104894608,-0.7382333187565207,-9.853605812442302
1789799593153045800,11.717045654296875,1.4682032515585421,1.147713114313781,-11.104866102731227
1789799593163016400,11.727016357421874,0.4593769221484661,3.17808175458312,-9.871163680964708
1789799593172988700,11.73698876953125,-1.3388637549400328,4.08467871261835,-8.090555691200494
1789799593182959600,11.746959716796875,-2.680396436828375,3.028995354965329,-7.234363809278607
1789799593192930600,11.7569306640625,-2.344138529348373,1.6372785462379456,-7.15714729860723
1789799593202902500,11.766902587890625,0.3887268938532099,0.09717851772606373,-8.540558635804057
1789799593212873500,11.77687353515625,2.278108598601818,-0.40858869193643327,-8.112451881188154
1789799593222845400,11.786845458984375,-1.245548342382908,1.720727229297161,-1.3945721981585024
1789799593232816400,11.79681640625,-3.8736031820774075,2.7521850772321224,2.5452993995964523
1789799593242788600,11.80678857421875,-4.242740445852279,1.1559878984451293,4.801906360486149
1789799593252759600,11.816759521484375,1.123707092565298,-2.679196705649793,0.8584189103215932
1789799593262731500,11.8267314453125,0.1049824694752693,-2.4428847347825764,-2.6742455129832026
1789799593272702500,11.836702392578125,-2.0883353838086127,-0.7115279749214649,-2.440063832142949
1789799593282673700,11.846673583984375,-1.381771753296256,-1.0176020488008857,-4.807997078576684
1789799593292645400,11.856645263671876,-0.9300210882425307,-1.0314607705444097,-7.787412702336907
1789799593302616600,11.866616455078125,-0.443408953166008,0.07322977912276983,-8.864910416913032
1789799593312588500,11.876588623046874,0.0015542071720585225,1.4026760096371174,-7.625206124383211
1789799593322559500,11.8865595703125,-0.3841028142491355,2.586897776658833,-4.954375972801446
1789799593332531500,11.896531494140625,0.041726606551930306,3.003894523717463,-3.7024206859856843
1789799593342502700,11.906502685546876,0.4874905984114855,2.898858570489287,-2.8146786505460737
1789799593352473600,11.9164736328125,0.1378659904886037,2.295571190056205,-2.0615917537897825
1789799593362445600,11.926445556640624,-0.9945317735325544,1.0455319659948348,-0.4116074552357197
1789799593372416500,11.93641650390625,0.1232218905210495,-0.47029842139631506,1.5354028106063604
1789799593382388500,11.946388427734375,-0.18634864717200397,-1.8806763837128877,4.565308266153932
1789799593392359400,11.956359375,-1.647946509116143,-3.050825493979454,7.203520342725515
1789799593402331600,11.96633154296875,-2.4058371528923512,-5.81393294724226,7.769943096619844
1789799593412302600,11.976302490234374,-0.7840821928702294,-8.630535259327292,6.940777753311395
1789799593422273500,11.9862734375,0.490912462618947,-7.750547491276263,5.388334960576891
1789799593432245500,11.99624560546875,-0.5187484179191291,-4.810201310622692,2.3575357710599896
1789799593442216700,12.006216796875,-0.2642466373015195,-1.4054787920981644,-0.7915005063027143
1789799593452188400,12.0161884765625,-0.16417524767816066,0.7676467525064945,-1.8742752844989299
1789799593462159600,12.02615966796875,-0.5795079339820891,1.5748697285979985,-1.8841765007883309
1789799593472131600,12.036131591796876,-0.5227373414248228,1.4264005840957164,-1.1488304279059172
1789799593482102500,12.0461025390625,0.08431552902162075,1.2091647773593663,-1.0631570545345543
1789799593492073500,12.056073486328126,0.7144551144145429,1.4753975469768046,-1.7222709516078232
1789799593502045700,12.066045654296875,0.5219171841483563,1.7257891888618468,-1.5766513513177631
1789799593512016600,12.0760166015625,0.18201193314194677,1.3246177874445915,-0.025580431458353994
1789799593521988600,12.085988525390626,-0.00006429740786552428,-0.31294425190985203,2.5704139671087263
1789799593531959600,12.09595947265625,-0.5360732083380222,-2.771051690265536,5.243717815327644
1789799593541931500,12.105931640625,-0.6228823077410459,-4.662326624882221,5.865833814871311
1789799593551902500,12.11590234375,0.2961216388594359,-4.27067650052607,4.8400475828319784
1789799593561873400,12.125873291015624,-0.29283618744798,-1.8809750743985174,3.169883835080266
1789799593571845600,12.135845703125,-2.605892692247033,0.7812205198287964,0.9636901336103677
1789799593581816300,12.14581640625,-3.928625396597385,2.519782681024074,-0.35682255660295487
1789799593591788500,12.15578857421875,-3.0356840389490127,3.5565783828556534,-0.538307835522294
1789799593601759500,12.165759521484375,-1.1359335369318724,3.4004309588104484,-0.5636351690024137
1789799593611731500,12.1757314453125,-0.7920786715168505,1.8433710276693105,0.1893231329381466
1789799593621702400,12.185702392578126,-0.2965888179797679,-0.6436001015990972,2.0036101049423216
1789799593631673600,12.195673583984375,2.009844030895829,-4.236787674927712,3.900866452056169
1789799593641645300,12.205645263671874,4.026019018378854,-6.98467125557363,6.693411596727371
1789799593651616500,12.215616455078125,3.2426573948681354,-4.750951833796501,7.846575669923424
1789799593661588500,12.22558837890625,1.0866635292630642,-0.32948329877853394,7.3383777259826655
1789799593671559700,12.2355595703125,-1.3833978931933641,1.701191338700056,6.130767776849866
1789799593681530400,12.2455302734375,-2.1700439452022313,2.430323943895101,5.557871443027258
1789799593691502600,12.255502685546874,-0.6382604941368103,2.1280290962934494,4.5574119599461556
1789799593701473500,12.2654736328125,-0.14763035559058188,1.3438684313595295,3.359964508387446
1789799593711445500,12.275445556640625,-0.3693418464362621,1.1254466297090053,2.3296780423194168
1789799593721416400,12.28541650390625,-0.42594687316827473,0.6299602833032608,0.8759382003992795
1789799593731388700,12.295388671875,-0.6827239052414894,-0.5259089571982621,-0.3912526494711637
1789799593741359400,12.305359375,-1.7883564119338988,-1.4868267034858464,-0.10476619637608528
1789799593751330300,12.315330322265625,-1.307759007102251,-2.2149732202529906,0.09471534248292446
1789799593761302500,12.325302490234375,0.8774883524507283,-2.5351369020223617,-0.026696868267655372
1789799593771273500,12.3352734375,2.7513497954517603,-1.6026222433984278,-0.041651860815286636
1789799593781245400,12.345245361328125,3.0075650289237497,0.42551147742569445,0.11551263131797312
1789799593791216400,12.35521630859375,2.179407401353121,2.211236371812224,-0.26229484564661976
1789799593801188400,12.365188232421875,0.7481698986202477,3.205877524003386,-1.2887316505491733
1789799593811159300,12.3751591796875,-0.06517769783139228,3.451471410217881,-2.6369454176366327
1789799593821130500,12.385130615234376,0.19958445124421267,3.0539632074832914,-4.011825073331594
1789799593831102500,12.3951025390625,-0.16812186641208826,2.3598896407097576,-3.9541660805672403
1789799593841073400,12.405073486328124,-1.8042162443667649,1.3329349494129419,-1.5103163001447915
1789799593851045400,12.41504541015625,-2.7397821072548627,-0.07397884392440318,1.7984277240931987
1789799593861016600,12.4250166015625,-2.03891698064506,-1.8368600383400917,4.797584990155697
1789799593870988300,12.43498828125,0.4818587665369734,-2.3388866001695394,7.729508210378885
1789799593880959500,12.44495947265625,1.5622423022150993,-1.7405419368356465,9.701960375991463
1789799593890930400,12.454930419921874,0.3066506316583603,-1.0875655196040868,9.769543965920805
1789799593900902400,12.46490234375,-1.288425945600867,-0.6994511681586504,6.22598639267981
1789799593910873300,12.474873291015625,-1.5780062730580566,0.45004035400450226,0.8596247789800167
1789799593920845600,12.484845458984376,-1.5758715991169214,2.089936973786354,-0.5524591104716062
1789799593930816500,12.49481640625,-2.0720172862142325,2.6536978149950503,-0.5848205803722143
1789799593940787500,12.504787353515624,-2.5310768129765986,2.058134891334176,-0.376762936347723
1789799593950759400,12.514759521484375,-1.8338433208674192,0.8251596147984266,0.004016834425926208
1789799593960730600,12.524730712890625,0.2536737505619414,-1.172833234784007,-0.2651163328081369
1789799593970702300,12.534702392578126,2.32502758616507,-3.1784844901651144,-0.7978250331491231
1789799593980673500,12.544673583984375,3.136023651054501,-4.231556204015016,-1.1755372330456972
1789799593990645500,12.5546455078125,1.5118021547883749,-3.7666678249686956,-1.0873907475590705
1789799594000616400,12.564616455078125,-0.7179460252702236,-2.281961182376742,-1.2500135050982235
1789799594010587400,12.57458740234375,-1.0631798508882522,-1.1775362979084252,-1.9756313801705836
1789799594020559600,12.5845595703125,-0.4741302546441555,-0.6398305199325084,-2.685806186917424
1789799594030530600,12.594530517578125,-0.4651595972031355,-0.09321049087792635,-2.982640431025624
1789799594040502500,12.60450244140625,-0.7131137828081846,0.47145811282545325,-2.5982962457686662
