time,seconds_elapsed,z,y,x
1789799581483926500,0.047926513671875,5.7797524452209466,6.234201847839355,-2.074426100921631
1789799581493898800,0.057898681640625,6.628048020935058,5.7040358177185055,-0.8716390419006347
1789799581503869400,0.067869384765625,7.0202481803894035,5.218162518310547,0.16983868026733398
1789799581513841700,0.077841552734375,7.3751885765075675,5.204096583557129,0.956333925628662
1789799581523812600,0.0878125,7.3663599578857415,5.12044916305542,1.0244190353393554
1789799581533783600,0.097783447265625,7.218368367767334,4.759822537994385,0.5915174476623535
1789799581543755500,0.107755615234375,7.363666481018066,4.42418539276123,0.25917232971191406
1789799581553726500,0.1177265625,7.406612473297119,4.337395582580566,-0.3302501914978027
1789799581563698400,0.127698486328125,7.7970169815063475,4.100818531036377,-0.9956886154174804
1789799581573669400,0.13766943359375,8.468440909576415,3.6378397850036617,-1.2957120109558105
1789799581583641900,0.147641845703125,8.830264635467529,3.3871967987060545,-1.31516489944458
1789799581593612500,0.157612548828125,8.792256684112548,3.3969232429504395,-1.1385925270080566
1789799581603584800,0.167584716796875,8.683919058990478,3.6905122215270993,-0.5178957466125488
1789799581613555700,0.1775556640625,8.851812450408936,4.459050954437256,0.5891232460021972
1789799581623527700,0.187527587890625,9.59012438735962,5.713014073944091,2.0299837326049803
1789799581633498600,0.19749853515625,10.66871223526001,7.14414811630249,3.157652714538574
1789799581643469600,0.207469482421875,11.047445010375975,7.117362985229492,2.9700071594238278
1789799581653441800,0.21744189453125,11.118223596954346,6.265476107025146,1.7087117973327637
1789799581663412500,0.22741259765625,10.99312656021118,5.749525649261474,0.6168062026977539
1789799581673384700,0.237384765625,9.897330387878418,4.978443077087402,-0.3381809844970703
1789799581683355600,0.247355712890625,8.617629600524902,4.76266565246582,-1.0422259101867675
1789799581693327600,0.25732763671875,6.540809297943115,3.0259716232299803,-3.2058360229492187
1789799581703298600,0.267298583984375,4.512321941375732,4.849904375457763,-4.519205271148682
1789799581713270800,0.277270751953125,1.4975731384277342,5.888389345550537,-2.443432431793213
1789799581723241500,0.287241455078125,3.3213562530517575,6.562357112884521,-2.185457202911377
1789799581733213700,0.297213623046875,5.781548096466064,7.091026766967773,-2.58558815536499
1789799581743184600,0.3071845703125,5.312434208679199,5.2828059631347655,-1.3757681289672852
1789799581753155600,0.317155517578125,4.535216494750976,1.7791911087036132,1.235408056640625
1789799581763127600,0.32712744140625,10.851719024658202,0.7439981658935546,1.9027917694091796
1789799581773098800,0.3370986328125,14.392892917633056,0.5268740028381347,1.04701431350708
1789799581783070500,0.347070556640625,11.429469812774657,0.088735099029541,0.9472060317993164
1789799581793041700,0.357041748046875,10.60436806564331,0.7564180870056152,0.08319850769042968
1789799581803013600,0.367013671875,9.947010072326659,1.5272013839721679,-1.1870751106262207
1789799581812984800,0.37698486328125,10.478373203277588,3.781491884613037,-6.020070436859131
1789799581822956500,0.38695654296875,12.622829702758787,8.283638468933106,-14.92635097503662
1789799581832927700,0.396927734375,12.51329497680664,7.858518036651611,-11.176582262420654
1789799581842899500,0.4068994140625,9.393201300811768,3.1637878562927244,-1.9448399360656736
1789799581852870700,0.41687060546875,8.859593605804443,2.1184195564270016,2.084002907562256
1789799581862842600,0.426842529296875,9.834033681488037,3.604620236968994,3.125630267333984
1789799581872813800,0.436813720703125,9.471611405181884,4.823418519592285,2.992901712799072
1789799581882784500,0.446784423828125,9.162310478210449,4.917839847564697,2.953995935821533
1789799581892756700,0.4567568359375,8.685714710235596,4.209904344177246,3.056048781585693
1789799581902727700,0.466727783203125,7.6867340675354,4.055029424285888,2.9882629470825193
1789799581912699600,0.47669970703125,6.410474945068359,3.608959727478027,2.858826419830322
1789799581922670600,0.486670654296875,4.806808745574951,2.9650691184997555,2.7729344352722167
1789799581932642800,0.496642822265625,3.4757822601318358,3.2275334754943845,2.6734254287719725
1789799581942613500,0.506613525390625,2.644844646453857,4.282628219604492,3.5323452743530273
1789799581952585700,0.516585693359375,2.6994623718261717,6.375010832977295,5.654505770874023
1789799581962556700,0.526556640625,2.472611764526367,7.68658442993164,6.5224038726806635
1789799581972528600,0.536528564453125,1.8564041122436523,5.105485402679443,5.068524914550781
1789799581982499600,0.54649951171875,2.8356325912475584,2.016217073059082,3.9158664527893063
1789799581992470800,0.556470703125,4.991012635803222,1.341950030517578,3.7790976829528806
1789799582002442500,0.5664423828125,6.009595804595947,1.4287398406982421,4.536712870788574
1789799582012413700,0.57641357421875,6.400748500823974,1.4624083015441893,5.600037683105469
1789799582022385700,0.5863857421875,6.868814925384521,1.6106991668701172,6.036829848480224
1789799582032356900,0.59635693359375,7.062595622253418,1.6103998916625977,5.2371664939880365
1789799582042328600,0.60632861328125,6.536320169830322,1.1136030471801757,4.25853656539917
1789799582052299800,0.6162998046875,5.26050996017456,0.47330374069213865,3.616291970062256
1789799582062271500,0.626271484375,3.0980969482421874,0.10504559783935546,2.7914894981384277
1789799582072242700,0.63624267578125,1.0824784255981446,-0.02528875503540039,1.7690157516479492
1789799582082214700,0.646214599609375,0.7311293319702148,-0.21113865890502928,2.441337505340576
1789799582092185900,0.656185791015625,1.6294038673400877,-0.19961656341552733,3.8989574035644528
1789799582102156500,0.666156494140625,2.051681185150146,-0.21652561264038084,4.3177930564880365
1789799582112128800,0.676128662109375,1.2219406723022461,-0.6652887863159179,4.269011197662353
1789799582122099700,0.686099609375,0.3425204750061035,-0.6744166801452637,4.533570481109619
1789799582132071700,0.69607177734375,-0.5865794067382812,-1.0351929428100586,4.380042299652099
1789799582142042600,0.706042724609375,-1.3533224884033201,-1.4872481437683105,4.608538920593261
1789799582152014800,0.716014892578125,-1.0378864196777342,-1.686715069580078,5.4041620597839355
1789799582161985500,0.725985595703125,-0.9190741622924804,-2.3636755889892576,5.858761100006103
1789799582171957800,0.735957763671875,-1.29601128616333,-2.736273222351074,6.535571981811523
1789799582181928700,0.7459287109375,-2.226158631134033,-3.070114716339111,6.863727246856689
1789799582191900700,0.755900634765625,-3.7439328460693355,-4.064306955718994,6.586448767089843
1789799582201871600,0.76587158203125,-5.0011879928588865,-4.841973582458496,6.972214509582519
1789799582211843800,0.77584375,-5.526565619659424,-5.547514884185791,7.059902145385742
1789799582221814500,0.785814453125,-5.215469041442871,-6.319944194793701,7.600692445373535
1789799582231786800,0.795786865234375,-4.599111751556396,-6.4840966461181635,9.252541953277587
1789799582241757700,0.8057578125,-4.551377355957031,-6.628796208953857,10.364050074005126
1789799582251729000,0.81572900390625,-4.371064043426514,-8.451681497955322,10.442909091186523
1789799582261700600,0.82570068359375,-2.636165665435791,-10.61095212020874,11.395352439117431
1789799582271671800,0.835671875,-0.486471849822998,-12.597690585327149,15.389479358673094
1789799582281643500,0.8456435546875,0.11282675323486327,-11.630732389831543,17.259500492858887
1789799582291614700,0.85561474609375,0.4144961624145508,-8.894758442687987,15.825224060821533
1789799582301586700,0.865586669921875,2.386420504760742,-9.578751929473876,16.754772855377198
1789799582311558000,0.875557861328125,6.682216833496093,-11.324723490142821,18.65472151031494
1789799582321529600,0.885529541015625,7.483825476837158,-12.166584648895263,21.417181313323972
1789799582331500800,0.895500732421875,7.494300109100341,-11.120617798614502,23.66713232345581
1789799582341472500,0.905472412109375,7.985111449432373,-9.171737647247314,27.768100492095947
1789799582351443700,0.915443603515625,6.37800358505249,-7.736713027191161,31.571439466857907
1789799582361414700,0.92541455078125,6.95874712524414,-5.743839420318603,32.789040648651124
1789799582371387000,0.935386962890625,6.804021842956542,-4.248660483551025,31.521759782409667
1789799582381357600,0.945357666015625,3.971830916595459,-2.7838579803466796,29.176938531494137
1789799582391329800,0.955329833984375,2.5655367164611813,-1.7272668601989745,27.789648307037353
1789799582401300700,0.96530078125,0.74699091796875,0.0757166275024414,25.25059744644165
1789799582411272700,0.975272705078125,-5.781697734069824,2.725499314880371,21.781099965667725
1789799582421243600,0.98524365234375,-13.997101455688476,3.369539561462402,18.924368472290038
1789799582431215900,0.9952158203125,-11.458050595092773,2.3145944549560546,19.637541291809082
1789799582441186600,1.0051865234375,-6.670096187591552,2.6515783386230467,17.739837200927735
1789799582451158800,1.01515869140625,-6.944830828094482,1.9743185440063475,15.877148309326172
1789799582461129700,1.025129638671875,-6.03293927078247,0.5159504577636719,17.1471226524353
1789799582471100700,1.0351005859375,-3.0264205360412597,0.8777741836547851,18.40108577194214
1789799582481072600,1.04507275390625,-2.953846298217773,-0.2527379127502441,16.379781020355225
1789799582491043600,1.055043701171875,-6.877793181610107,-0.673518854522705,11.824662724304199
1789799582501015600,1.065015625,-9.59521206588745,-0.7022492744445801,10.8785041557312
1789799582510986500,1.074986572265625,-5.035305366516113,-1.168968960571289,14.74723476333618
1789799582520958700,1.084958740234375,-3.419518521118164,-0.5532102210998535,17.452533001708982
1789799582530929700,1.0949296875,-2.6005519157409664,-0.6531681404113769,17.303793223571777
1789799582540901600,1.104901611328125,-1.1757026527404784,-0.9967360786437988,16.15981374282837
1789799582550872600,1.11487255859375,-0.014215572357177733,-2.1164742675781247,12.799701350402831
1789799582560844500,1.124844482421875,0.7628525039672851,-3.641730362701416,8.696488617706299
1789799582570815500,1.1348154296875,1.042525185394287,-3.090615068054199,8.577526722717284
1789799582580787700,1.14478759765625,2.0082862800598145,-1.3623007446289062,9.766098209381102
1789799582590758700,1.154758544921875,0.4804863456726074,-0.6338648895263671,11.007192494964599
1789799582600729600,1.1647294921875,-1.6195277854919432,0.4417302062988281,12.030564067077636
1789799582610701600,1.17470166015625,-3.0072669227600097,0.3315969299316406,7.444770062255859
1789799582620672800,1.1846728515625,-3.6730046218872068,-0.512658430480957,0.6392518432617187
1789799582630644500,1.19464453125,-1.3699322624206542,0.35778351058959956,-2.3612813873291016
1789799582640615700,1.20461572265625,-0.027383681488037107,-0.007481880187988281,-2.7925369613647457
1789799582650587600,1.214587646484375,-1.052101992034912,-2.1341315048217773,-0.9163806854248047
1789799582660558600,1.22455859375,-4.093935201263427,-1.1442787559509278,4.0532337730407715
1789799582670530600,1.234530517578125,-6.3986535743713375,-1.5322890624999999,6.18003303527832
1789799582680501800,1.244501708984375,-6.856395004272461,-2.9082068290710446,5.856965448760986
1789799582690473500,1.254473388671875,-6.434267324066162,-3.528604334259033,4.384082514953613
1789799582700444700,1.264444580078125,-6.235548586273193,-2.4232313552856444,4.096778315734863
1789799582710416600,1.274416748046875,-6.27595073928833,-3.440467785644531,6.214449684143066
1789799582720387600,1.2843876953125,-4.18805725402832,-2.4595932929992674,8.750507792663575
1789799582730358500,1.294358642578125,-3.593098141479492,-4.058471089172363,8.952219282531738
1789799582740330800,1.304330810546875,-2.4842834976196286,-4.019415674591064,6.479906793212891
1789799582750301700,1.3143017578125,-2.8507459892272946,-4.87145219039917,6.958148574829101
1789799582760273700,1.324273681640625,-4.693084166717529,-1.9942203453063965,7.222558220672607
1789799582770244600,1.33424462890625,-3.43493119430542,0.48617257461547847,7.442076585388183
1789799582780216600,1.344216552734375,0.06254851837158203,-2.1645079383850097,7.080851409912109
1789799582790187500,1.3541875,-1.723226644897461,-2.1447557746887207,7.185298457336425
1789799582800159700,1.36415966796875,-5.327248331451416,-0.9282020561218262,8.754697645568847
1789799582810130700,1.374130615234375,-6.311414851379394,-2.070834798431396,9.431658164978026
1789799582820102700,1.3841025390625,-5.085733238983154,-2.177825685119629,7.825747401428222
1789799582830073600,1.394073486328125,-0.8313865264892578,-3.7241806823730466,6.2036757766723625
1789799582840045600,1.404045654296875,-0.11656769332885741,-5.034108265686035,4.536413595581054
1789799582850016500,1.4140166015625,-3.8379052612304685,-4.217386224365234,6.498611493682861
1789799582859987700,1.42398779296875,-4.681711708831787,-2.3318027793884277,7.263110011291504
1789799582869959700,1.433959716796875,-3.5577836669921874,-1.4553753341674804,6.721721160888672
1789799582879930600,1.4439306640625,-1.469740544128418,-0.6127659873962402,8.602665840148925
1789799582889902600,1.453902587890625,-1.0000281059265137,-0.3812766143798828,9.543736730194091
1789799582899873800,1.463873779296875,-1.1534066497802733,-0.07407061386108398,8.744223013305664
1789799582909845500,1.473845458984375,-0.626981559753418,-0.15233108062744138,6.213851133728027
1789799582919816700,1.483816650390625,-0.9162310478210449,-0.6355109031677245,0.752677146911621
1789799582929788700,1.49378857421875,1.2419921112060546,-1.665017617034912,1.1330559356689451
1789799582939759600,1.503759521484375,0.7579144630432129,-2.5053823997497555,2.1568764205932616
1789799582949731600,1.513731689453125,-0.20515315475463866,-4.0538323234558105,5.01166262512207
1789799582959702800,1.523702880859375,-3.999962786102295,-3.859303438568115,9.377040439605713
1789799582969674500,1.533674560546875,-3.7503672630310056,-2.458695467376709,8.202385250091552
1789799582979645700,1.543645751953125,-1.2128127784729004,-1.154304475402832,7.7633485206604
1789799582989617700,1.55361767578125,0.7713818473815918,-2.4980501571655274,8.588150992584229
1789799582999588600,1.563588623046875,0.7236474517822266,-6.145017835998535,11.001655903625487
1789799583009559600,1.5735595703125,-1.204732347869873,-7.44432114944458,13.198934477233886
1789799583019531800,1.58353173828125,-1.9164087913513181,-8.321796057891845,13.376853588104247
1789799583029502700,1.593502685546875,-1.4975731384277342,-9.868749605560302,12.197709270477294
1789799583039474700,1.603474609375,-0.7697358337402344,-10.818050563812255,11.839027934265136
1789799583049445600,1.613445556640625,-0.1039981346130371,-10.455329012298584,13.341688751220703
1789799583059417600,1.62341748046875,0.3651157531738281,-9.704746791839598,13.886668904113769
1789799583069388500,1.633388427734375,1.4203601348876953,-9.575010989379882,12.993781322479247
1789799583079360800,1.64336083984375,1.532887612915039,-9.514707035064697,13.902081577301024
1789799583089331700,1.653331787109375,0.38681320571899414,-8.570194480133056,14.79167713165283
1789799583099303700,1.6633037109375,0.6878840644836426,-8.106617183685302,14.697704716491698
1789799583109274600,1.673274658203125,0.4917091659545898,-7.3091983932495115,12.143989370727539
1789799583119246800,1.683246826171875,-0.9320926338195801,-3.3201591522216796,4.1109938880920405
1789799583129217500,1.693217529296875,-0.5876268699645996,-0.953790086364746,-0.49111061553955077
1789799583139188700,1.703188720703125,-0.5277718284606934,-1.1240776794433593,3.1784523414611816
1789799583149160700,1.71316064453125,-0.8224082702636718,-0.7655459808349608,7.841608987426757
1789799583159131600,1.723131591796875,1.6160861206054686,0.5978022270202636,11.461941172790526
1789799583169103600,1.733103515625,-1.451185481262207,0.7190086860656738,13.01098964691162
1789799583179074800,1.74307470703125,-0.873434693145752,-2.501791097259521,8.300547518157959
1789799583189046500,1.753046630859375,1.267280866241455,-4.415207136535645,4.901678986358642
1789799583199017700,1.763017822265625,-0.7742249618530272,-6.54410132522583,5.907842234039307
1789799583208989700,1.77298974609375,-1.980453685760498,-8.503007196044921,7.455543969726562
1789799583218960600,1.782960693359375,-0.852335791015625,-9.674370358276366,8.36444277496338
1789799583228932600,1.7929326171875,0.639700756072998,-9.927108271026611,9.398737892150878
1789799583238903800,1.80290380859375,0.7775169891357422,-8.953117108154297,10.351330877685546
1789799583248875500,1.81287548828125,-0.1822586013793945,-7.544279068756103,10.267384181976318
1789799583258846700,1.8228466796875,-0.8897451919555663,-6.996605438995361,9.090783703613281
1789799583268818700,1.832818603515625,-1.6570868240356444,-6.017077684783935,8.030152368164062
1789799583278789600,1.84278955078125,-1.7733552421569823,-1.8049287765502928,9.066542411804198
1789799583288760600,1.852760498046875,-1.5349825393676757,5.366004470825195,9.708188456726074
1789799583298732800,1.86273291015625,-0.1375169578552246,5.922656356811523,9.64638812637329
1789799583308703700,1.872703857421875,1.328632283782959,7.324760704040527,10.3544732673645
1789799583318675700,1.88267578125,-0.8846575134277344,6.1641714492797846,8.392125731658934
1789799583328646700,1.892646728515625,-1.8490718696594237,1.8480244064331053,7.325359254455566
1789799583338619000,1.902618896484375,-1.8127099319458007,-0.21054010848999022,8.636783213806153
1789799583348589600,1.912589599609375,-1.8245313026428223,-1.3682862487792968,9.55181716079712
1789799583358561800,1.922561767578125,-1.022174471282959,-3.235613906097412,8.39526812133789
1789799583368532700,1.93253271484375,-2.0816087059020996,-7.723844193267822,7.69945326385498
1789799583378504700,1.942504638671875,0.050427872467041016,-10.72632271270752,8.362048573303221
1789799583388475600,1.9524755859375,0.25528175201416015,-9.089137689971924,10.1889740776062
1789799583398447900,1.96244775390625,1.8110639183044432,-7.695263410949707,10.612897409057616
1789799583408418600,1.97241845703125,2.440738954925537,-11.74086566619873,8.883685260009765
1789799583418390800,1.982390869140625,2.265214045715332,-15.707908179473876,6.557419071960449
1789799583428361700,1.99236181640625,-0.2883516624450683,-15.879093598175048,5.596596018218994
1789799583438333700,2.002333740234375,-2.2972364929199216,-15.747861419677733,5.880907465362548
1789799583448304600,2.0123046875,-0.6383540176391601,-20.92098301925659,9.395595502471924
1789799583458275600,2.022275634765625,0.5758054992675781,-21.88524773788452,12.121394092559814
1789799583468247600,2.03224755859375,-0.1427542739868164,-13.318943835449218,4.262277505493164
1789799583478218500,2.042218505859375,-0.6458358978271485,-13.295001818847656,2.5124153671264646
1789799583488190700,2.052190673828125,-0.8883984535217284,-13.641263233947754,5.104437939453125
1789799583498161700,2.06216162109375,-1.0576385833740234,-9.32077670059204,7.912088298797607
1789799583508133600,2.072133544921875,-0.6561608924865723,-7.2355766921997065,10.408941355133056
1789799583518104600,2.0821044921875,-0.3541922080993652,-5.474491733551025,12.016947045135497
1789799583528076500,2.09207666015625,-0.5957073005676269,-6.911312004852294,10.978162799835204
1789799583538047500,2.102047607421875,-2.194285821533203,-10.746074876403808,9.904512992858885
1789799583548019700,2.112019775390625,-1.7577929313659666,-9.235782541656494,9.529670795440673
1789799583557990700,2.12199072265625,-0.3193266464233398,-7.608623238372802,7.948749511718749
1789799583567962600,2.131962646484375,-0.22819734573364256,-5.119401699829101,8.086416107177733
1789799583577933600,2.14193359375,-1.0136451278686522,-2.2411223915100096,9.019107291412354
1789799583587905300,2.1519052734375,-1.1486182464599608,-2.510769353485107,11.005995394134521
1789799583597876000,2.1618759765625,-0.8875006278991698,-5.206490785217285,10.430040257263183
1789799583607847200,2.17184716796875,0.17657237243652343,-6.106411334228516,9.331251332855224
1789799583617819100,2.181819091796875,0.8170213165283202,-4.6179660896301264,9.84465795135498
1789799583627790300,2.191790283203125,0.9367313995361327,-3.1262288177490234,10.40639751586914
1789799583637762000,2.201761962890625,-0.10250175857543944,-3.3315316101074215,11.080664558410644
1789799583647733200,2.211733154296875,-1.3874398620605468,-4.301183282470703,10.509647462463379
1789799583657705000,2.221705078125,-1.6443676277160644,-5.180603479766845,9.307010041046142
1789799583667676200,2.23167626953125,-1.0664672019958497,-5.371391424560547,8.501211544799805
1789799583677648100,2.241648193359375,-0.3193266464233398,-5.462969638061523,8.349778289794921
1789799583687619300,2.251619384765625,0.1345242057800293,-5.1794063789367675,8.950273993682861
1789799583697591000,2.261591064453125,0.3495534423828125,-4.918588035583496,10.136600916290282
1789799583707562200,2.271562255859375,1.1667243965148926,-4.932653970336914,11.42168865737915
1789799583717534000,2.281533935546875,1.5818191093444822,-5.6766521362304685,11.605593272399902
1789799583727505200,2.291505126953125,0.5427355888366698,-6.009595804595947,9.842263749694824
1789799583737477000,2.30147705078125,-1.2249334243774412,-4.912752169036865,8.454225337219238
1789799583747448300,2.3114482421875,-1.7137994758605957,-3.446453289794922,8.07609111251831
1789799583757420000,2.321419921875,-0.8212111694335937,-2.985868745422363,7.378031690979004
1789799583767391200,2.33139111328125,0.20335750350952148,-3.427299676513672,6.420500664520263
1789799583777362200,2.341362060546875,0.6961141326904297,-4.174440232086181,5.584026459503174
1789799583787334100,2.351334228515625,0.8457517364501953,-4.884919574737548,5.336076950073242
1789799583797305000,2.36130517578125,0.8930372192382812,-4.665550847625732,7.856572747802734
1789799583807277300,2.37127734375,0.6757634185791015,-3.127874831390381,13.658471558380127
1789799583817248000,2.381248046875,0.0383072265625,-2.5152584815979004,17.64077710723877
1789799583827220200,2.39122021484375,-1.0287585258483887,-4.908562316131592,15.302090998077391
1789799583837191200,2.401191162109375,-1.2074258247375487,-7.076960832214355,11.194239499664306
1789799583847163100,2.4111630859375,-1.0251672233581541,-5.36884758529663,9.693523971557617
1789799583857134000,2.421134033203125,-0.586729044342041,-3.8605005393981933,8.598326349639892
1789799583867106300,2.431106201171875,-0.48198272171020506,-4.391863670349121,6.948571768188476
1789799583877077000,2.441076904296875,-0.2079962692260742,-4.931456869506835,5.978471183013916
1789799583887049200,2.45104931640625,0.6555623420715332,-3.4241572868347165,5.429151539611816
1789799583897020200,2.461020263671875,0.8270470359802246,-1.8224363761901854,3.8563106864929195
1789799583906992000,2.4709921875,0.6383540176391601,-0.3184288208007812,3.976020769500732
1789799583916963000,2.480963134765625,1.230918928527832,-0.33369185638427734,4.926818103790283
1789799583926935300,2.490935302734375,1.0242693977355957,-1.1305120964050293,5.221454545593262
1789799583936906000,2.500906005859375,0.5354033462524413,-1.9045874206542968,4.209605068969727
1789799583946877200,2.510877197265625,-0.6027402679443359,-2.195482922363281,3.4712931320190425
1789799583956849200,2.52084912109375,-1.2964601989746094,-1.1671733093261718,6.058078388214111
1789799583966820400,2.5308203125,-0.8969277969360351,-0.9160814102172851,8.31281780166626
1789799583976792000,2.5407919921875,-2.018012724304199,-1.8908207611083983,7.662193500518798
1789799583986763300,2.55076318359375,-1.8743606246948241,-2.8369793296813963,4.101267443847656
1789799583996735000,2.56073486328125,-1.3976152191162108,-2.287510048675537,1.922992845916748
1789799584006706200,2.5707060546875,-0.8008604553222656,-0.8684966522216796,2.7406127128601074
1789799584016678100,2.58067822265625,-0.19168577041625975,-0.13302782974243163,4.774935935974121
1789799584026649300,2.5906494140625,-0.7495347572326659,-0.43065702362060543,5.717652839660644
1789799584036621000,2.60062109375,-1.2159551681518554,-0.7748235122680663,7.264307112121582
1789799584046592300,2.61059228515625,-2.0726304496765136,-1.1909656883239745,7.857769848632812
1789799584056564000,2.62056396484375,-1.903091044616699,-2.6355671150207516,6.884077960968018
1789799584066535200,2.63053515625,-0.7864952453613281,-3.1510686599731446,7.353491123962402
1789799584076507100,2.640507080078125,-1.2247837867736815,-2.495506317901611,9.01431888809204
1789799584086478300,2.650478271484375,-1.9469348625183105,-2.7633576286315917,9.760561618041992
1789799584096450000,2.660449951171875,-2.426523382568359,-4.025101903533935,9.553014261627197
1789799584106421200,2.670421142578125,-2.308608950805664,-4.659714981079102,10.003273811340332
1789799584116392200,2.68039208984375,-1.871218235015869,-4.600458489990234,10.152911415100098
1789799584126364200,2.6903642578125,-2.3048680107116697,-4.78181926574707,8.721927010345459
1789799584136335000,2.700335205078125,-2.1561282325744626,-4.781220715332031,6.656030252838135
1789799584146307300,2.710307373046875,-1.3245920684814452,-4.390965844726562,5.7453357963562
1789799584156278000,2.720278076171875,-0.6768108818054199,-3.6655227416992187,6.8028247421264645
1789799584166250200,2.730250244140625,-0.8488941261291504,-2.6241946571350097,9.075819943237304
1789799584176221200,2.74022119140625,-1.7521067024230956,-2.829946362304687,8.939948999023438
1789799584186193200,2.750193115234375,-1.861641428375244,-4.611830947875976,7.402721895599365
1789799584196164000,2.7601640625,-0.9795277542114257,-6.416759724426269,7.837718409729003
1789799584206136300,2.77013623046875,-0.10998363876342773,-7.748085485076904,9.485228427124023
1789799584216107000,2.78010693359375,0.12764087600708007,-8.48505068359375,11.012280173492432
1789799584226079200,2.790079345703125,-0.06778583450317383,-9.181913004302977,11.003152279663086
1789799584236050200,2.80005029296875,-1.5077484954833984,-9.220818781280517,11.73383269882202
1789799584246022100,2.810022216796875,-1.3168109130859373,-8.225429441070556,12.179752758026122
1789799584255993000,2.8199931640625,1.039981346130371,-6.512976703643798,10.608408280944824
1789799584265965300,2.82996533203125,1.156249764251709,-5.420921471405029,9.07252791595459
1789799584275936000,2.83993603515625,-0.2959831802368164,-5.099948811340331,8.794351610565185
1789799584285907200,2.8499072265625,-0.6549637916564941,-5.032013339233398,9.184007930755614
1789799584295879200,2.859879150390625,0.41973347854614257,-5.334430936431884,9.10395181274414
1789799584305850400,2.869850341796875,1.5209166046142577,-6.184372525787353,8.45302823638916
1789799584315822000,2.879822021484375,1.1088146438598632,-7.133224571228027,8.19639974594116
1789799584325793300,2.889793212890625,-0.21622633743286132,-7.8900915710449215,8.71429549255371
1789799584335765200,2.89976513671875,-0.7800608283996582,-8.107664646911621,10.349535226440429
1789799584345736200,2.909736083984375,-0.5123591552734374,-7.970746239471435,12.100444828033446
1789799584355708200,2.919708251953125,-0.05132569808959961,-7.747187659454346,12.588861966705322
1789799584365679400,2.929679443359375,0.19258359603881836,-8.585607153320312,12.434735234832763
1789799584375651000,2.939651123046875,0.3205237472534179,-9.884611191558838,12.215516145324706
1789799584385622300,2.949622314453125,0.9962871658325195,-11.374103899383543,11.571924811553954
1789799584395594200,2.95959423828125,0.6462848106384277,-11.75972000427246,10.04936219329834
1789799584405565200,2.969565185546875,0.17133505630493162,-10.998214238739013,9.14195976409912
1789799584415537200,2.979537109375,-0.9820715934753418,-9.57575917739868,9.707440268707275
1789799584425508400,2.98950830078125,-2.43235924911499,-7.323413965606689,10.340257695007324
1789799584435480000,2.99947998046875,-2.600252640533447,-5.928492223358154,10.11939259185791
1789799584445451300,3.009451171875,-2.249801372528076,-5.2533273551940916,10.249577307128906
1789799584455423200,3.01942333984375,-1.2888286811828613,-4.91589455871582,10.570101054382324
1789799584465394200,3.029394287109375,-0.03232172241210937,-4.827758010101318,10.644620581054687
1789799584475366100,3.0393662109375,0.833182177734375,-4.976797063446044,10.302249743652343
1789799584485337300,3.04933740234375,1.560869844818115,-5.238662870025634,9.04604206008911
1789799584495308300,3.059308349609375,1.8505682456970214,-5.497386286926269,7.667730091857909
1789799584505280300,3.0692802734375,1.3479355346679687,-5.8277861160278315,7.036857954406738
1789799584515251200,3.079251220703125,0.009127893829345703,-6.565798777770996,8.032995482635497
1789799584525223200,3.08922314453125,-0.7439981658935546,-7.4125979774475095,9.925911170196533
1789799584535194000,3.099194091796875,-0.27308862686157226,-8.144475497436522,11.199476815795897
1789799584545166300,3.109166259765625,1.5693991882324219,-7.933636113739013,11.686098303222655
1789799584555137300,3.11913720703125,3.0687679779052734,-6.3515177291870115,11.697171485900878
1789799584565109200,3.129109130859375,2.338686109161377,-4.986822782897949,10.67454810180664
1789799584575080200,3.139080078125,0.8840589630126953,-4.346373838806152,7.983016522979736
1789799584585052200,3.14905224609375,0.08499415893554688,-3.890577697753906,4.625447969818115
1789799584595023000,3.159023193359375,-0.720804337310791,-3.4171243194580074,2.414552374267578
1789799584604995300,3.168995361328125,-2.629132698059082,-2.895936545562744,3.1310172210693357
1789799584614966300,3.17896630859375,-3.425055112457275,-3.47952320022583,4.795885200500488
1789799584624938200,3.188938232421875,-2.953995935821533,-4.7864580314636225,6.124218209075927
1789799584634909200,3.1989091796875,-0.6274304725646972,-5.397877280426025,7.589319987487793
1789799584644881200,3.208881103515625,1.171512799835205,-5.471947894287109,9.420884257507323
1789799584654852000,3.21885205078125,0.6610989334106445,-5.727229646301269,11.418246992492675
1789799584664824300,3.22882421875,0.40057986526489253,-6.133495740509033,12.774412595367432
1789799584674795300,3.238795166015625,-0.03860650177001953,-6.7565867225646965,12.131868724822997
1789799584684767200,3.248767333984375,-1.2713210815429687,-6.8056678565979,9.89523546142578
1789799584694738200,3.25873828125,-3.2076316741943356,-5.877166525268555,9.169343445587158
1789799584704709000,3.268709228515625,-3.539378241729736,-4.950610482788085,10.468347483825683
1789799584714681000,3.27868115234375,-1.4790180755615234,-4.685602286529541,11.686846491241454
1789799584724652000,3.288652099609375,-0.8782230964660644,-5.3305403587341305,11.965172434234619
1789799584734624300,3.298624267578125,-2.5445874519348144,-6.420351026916504,11.579855604553222
1789799584744595000,3.308594970703125,-2.874239093017578,-7.331644033813476,10.73141039123535
1789799584754567200,3.318567138671875,-1.0046668716430665,-7.847594491577148,9.418190780639648
1789799584764538400,3.328538330078125,-0.2537853759765625,-7.789834376525879,8.84223564376831
1789799584774510000,3.338510009765625,-1.246780514526367,-7.763498158264159,8.573336869812012
1789799584784481300,3.348481201171875,-1.6521487831115722,-7.848342679595947,8.588300630187987
1789799584794453200,3.358453369140625,-1.2936170845031738,-7.507019305419921,9.60179612045288
1789799584804424200,3.368424072265625,-0.5108627792358398,-6.962936978149414,10.652551374053955
1789799584814396200,3.378396240234375,-0.7234978141784667,-5.973533142089844,11.217582965850829
1789799584824367400,3.388367431640625,-1.119738188934326,-6.195744983673095,9.37808790283203
1789799584834339000,3.398339111328125,-0.6166565650939941,-7.306205641174316,7.0841434371948235
1789799584844310300,3.408310302734375,-0.35314474487304687,-6.961141326904296,7.020697093200683
1789799584854282200,3.4182822265625,-0.6899789909362792,-4.568735317993164,9.44183352203369
1789799584864253200,3.428253173828125,-1.3527239379882812,-1.9123685760498046,12.928090414428711
1789799584874225200,3.43822509765625,-1.4956278495788573,-2.8788778587341306,12.90893680114746
1789799584884196400,3.4481962890625,-0.8506897773742675,-6.666654522705078,8.595333597564697
1789799584894168000,3.45816796875,-1.0102034629821777,-7.183053893280029,7.381174080657958
1789799584904139300,3.46813916015625,-0.6790554458618163,-4.483142608642578,7.672069582366943
1789799584914111200,3.478111328125,0.49574938125610346,-2.5137621055603026,5.778405706787109
1789799584924082200,3.488082275390625,1.0595838722229003,-2.4479215599060056,2.105101809692383
1789799584934054100,3.49805419921875,0.24735095901489257,-2.8555343925476073,1.674594423675537
1789799584944025300,3.508025390625,-0.4326023124694824,-2.136824981689453,3.7892730400085446
1789799584953996300,3.517996337890625,0.7529764221191406,-0.9325415466308593,5.734711526489257
1789799584963968300,3.52796826171875,1.162534543609619,-0.22520459365844725,6.853102976989746
1789799584973939200,3.537939208984375,0.2742857276916504,-0.7460930923461914,6.594529197692871
1789799584983911200,3.5479111328125,-0.35314474487304687,-1.950376527404785,5.954978079223633
1789799584993882000,3.557882080078125,-1.7003320915222166,-2.114080065917969,7.499687062835693
1789799585003854300,3.567854248046875,-2.45794727935791,-2.412607085418701,9.006388095092772
1789799585013825300,3.5778251953125,-2.552368607330322,-3.0542531303405758,7.417236743164062
1789799585023797200,3.58779736328125,-1.7414824325561522,-3.543867369842529,4.69233597869873
1789799585033768200,3.597768310546875,-0.8560767311096191,-1.7090110725402832,4.585195454406738
1789799585043740200,3.607740234375,0.3151367935180664,-0.5551555099487304,3.932027313995361
1789799585053711000,3.617711181640625,-0.053420624542236325,-1.0251672233581541,2.381931376647949
1789799585063683300,3.627683349609375,-0.3808277015686035,-0.6775590698242188,2.8152818771362305
1789799585073654300,3.637654296875,-0.5680243438720702,0.177470198059082,4.994753575897216
1789799585083626200,3.647626220703125,-0.626981559753418,-0.3890577697753906,5.237765044403075
1789799585093597200,3.65759716796875,-0.8532336166381835,-1.512536898803711,5.961113220977783
1789799585103569200,3.667569091796875,-1.263539926147461,-1.3392565536499024,8.926780889892578
1789799585113540000,3.6775400390625,-2.2451626068115234,-1.7386393180847166,9.830292741394043
1789799585123512300,3.68751220703125,-2.7343279335021973,-2.829946362304687,9.21303762588501
1789799585133483300,3.697483154296875,-1.6705542083740232,-3.684227442169189,6.766163529205322
1789799585143455200,3.707455322265625,-1.661127039337158,-3.882048354339599,4.902726449584961
1789799585153426200,3.71742626953125,-2.2177789253234863,-3.1280244689941403,5.794865843200683
1789799585163398100,3.727398193359375,-2.4358009140014647,-2.247856083679199,8.590844469451904
1789799585173369000,3.737369140625,-1.922244657897949,-2.66863702545166,10.343848997497558
1789799585183341300,3.74734130859375,-0.3452139518737793,-4.022408426666259,9.241768045806884
1789799585193312300,3.757312255859375,-0.6006453414916992,-3.501968840789795,9.667337390899657
1789799585203284200,3.7672841796875,-1.4820108276367188,-3.694402799224853,8.639925603485107
1789799585213255200,3.777255126953125,-2.136226431274414,-4.946719905090331,6.947823580169677
1789799585223227100,3.78722705078125,-1.9511247154235838,-5.3968298171997064,7.247996613311767
1789799585233198000,3.797197998046875,-0.7197568740844726,-5.127482130432129,8.029254542541503
1789799585243170300,3.80717041015625,-0.4652233100891113,-4.536114320373535,7.910741560363769
1789799585253141200,3.817141357421875,0.19168577041625975,-4.0818145553588865,6.840982331085205
1789799585263113200,3.82711328125,0.6066308456420898,-4.002207350158691,5.699546689605713
1789799585273084200,3.837084228515625,-0.4816834465026855,-4.368819479370117,5.34370846786499
1789799585283055000,3.84705517578125,-2.21523508605957,-4.94731845550537,6.243329741668701
1789799585293027000,3.857027099609375,-2.069787335205078,-5.272780243682861,7.0634934478759765
1789799585302998000,3.866998046875,0.35194764404296874,-5.346401944732666,6.23749387512207
1789799585312970200,3.87697021484375,1.5656582481384276,-4.82012649230957,4.944774616241455
1789799585322941200,3.886941162109375,1.1544541130065917,-4.057124350738525,4.812494974517822
1789799585332913200,3.8969130859375,-0.6976105087280273,-3.4956840614318847,7.609221788787841
1789799585342884000,3.906884033203125,-2.2506991981506346,-5.124040465545654,11.57461828842163
1789799585352856000,3.91685595703125,-1.8683751205444334,-9.466224451446532,14.30116506652832
1789799585362827000,3.926826904296875,-0.09786299285888671,-11.039813492584228,13.599963255310058
1789799585372799200,3.93679931640625,0.6974608711242676,-8.323591709136963,11.080963833618164
1789799585382770200,3.946770263671875,0.5461772537231445,-6.506841561889648,10.347141024780273
1789799585392742100,3.9567421875,-0.277727392578125,-6.401047776031493,12.322507032012938
1789799585402713000,3.966713134765625,-1.2829928146362304,-8.199691773223876,15.162179838562011
1789799585412685000,3.97668505859375,-1.218050094604492,-10.06836616897583,16.972645206451414
1789799585422656000,3.986656005859375,1.3676876983642576,-9.497648348236083,15.662119072723387
1789799585432628200,3.996628173828125,2.9803321540832517,-7.279570147705078,12.79416475906372
1789799585442599200,4.00659912109375,2.8706477905273435,-6.134842478942871,10.928034202575683
1789799585452571100,4.016571044921875,1.281945351409912,-7.06094960861206,9.624241761016846
1789799585462542000,4.0265419921875,-1.0538976432800293,-9.072976828765869,9.23712928009033
1789799585472514000,4.03651416015625,-0.7472901931762694,-11.038766029357909,8.48445213317871
1789799585482485000,4.046485107421875,1.3877391372680663,-11.537657800292967,8.399757249450683
1789799585492457200,4.056457275390625,1.303044253540039,-9.241618408203124,9.95299557647705
1789799585502428200,4.06642822265625,1.3883376876831053,-6.65213967514038,9.25029738922119
1789799585512400100,4.076400146484375,1.7570447433471679,-5.3658548332214355,6.8122519111633295
1789799585522371000,4.08637109375,1.7636287979125975,-4.582202702331543,4.378545923614502
1789799585532343000,4.096343017578125,0.05327098693847656,-3.7612908081054686,3.640982174682617
1789799585542314000,4.10631396484375,-1.2811971633911132,-3.720140467071533,3.3086370567321777
1789799585552286200,4.1162861328125,-1.211765315246582,-4.570381331634521,3.197306679534912
1789799585562257200,4.126257080078125,-0.6456862602233886,-5.36929649810791,3.8028900619506834
1789799585572229000,4.13622900390625,0.009576806640625,-5.768529624938965,5.424063861083984
1789799585582199800,4.14619970703125,0.7234978141784667,-6.389974593353271,6.856245366668701
1789799585592172000,4.156172119140625,1.0856208152770996,-6.809558434295654,7.619546783447265
1789799585602142700,4.166142822265625,1.523909356689453,-7.0367083168029785,7.818265521240234
1789799585612115000,4.176114990234375,1.4050970993041991,-7.233032852935791,8.30578483428955
1789799585622086000,4.1860859375,-0.42751463394165035,-7.134571309661865,9.713874685668944
1789799585632057900,4.196057861328125,-2.0150199722290036,-6.099528004455566,10.6609310798645
1789799585642028800,4.20602880859375,-1.5312415992736816,-5.138704950714111,11.697021848297119
1789799585652001000,4.2160009765625,0.13257891693115234,-4.7393221862792965,12.924050199127196
1789799585661971700,4.2259716796875,1.2282254516601563,-5.1696799346923825,12.755408619689941
1789799585671944000,4.23594384765625,0.4583399803161621,-5.849782843780517,12.255319747924805
1789799585681915000,4.245914794921875,-1.9164087913513181,-5.606172824859619,13.105560612487793
1789799585691886800,4.255886962890625,-2.6966192573547363,-5.447407327270508,13.851653704833984
1789799585701857800,4.26585791015625,-1.4405612113952635,-6.37141953048706,13.893402596282959
1789799585711830000,4.275830078125,-0.443076944732666,-8.096292189025878,13.060818968963622
1789799585721800700,4.28580078125,0.6287772109985351,-8.981997165679932,11.884517765808106
1789799585731773000,4.29577294921875,0.6521206771850585,-8.996811288452149,10.9941740234375
1789799585741743900,4.305743896484375,-0.42182840499877927,-8.86767403640747,10.913968267822264
1789799585751715000,4.315715087890625,0.5220855995178222,-8.653991538238525,10.518476081085204
1789799585761686800,4.325686767578125,1.4770727867126463,-7.692121021270752,9.991901353454589
1789799585771658000,4.335657958984375,0.3199251968383789,-6.584503478240967,9.42327845916748
1789799585781629700,4.345629638671875,-0.6798036338806152,-5.806238301086426,8.962544277191162
1789799585791601000,4.355600830078125,-0.1345242057800293,-5.510404758453369,8.547449564361571
1789799585801572900,4.36557275390625,0.6383540176391601,-5.50367106628418,8.467393446350098
1789799585811544000,4.3755439453125,0.5158008201599121,-5.722890155792236,9.136572810363768
1789799585821515800,4.385515869140625,0.5617395645141601,-6.190956580352783,9.567529109191893
1789799585831487000,4.395487060546875,0.8837596878051758,-6.72276862411499,9.185504306793213
1789799585841458700,4.405458740234375,0.8752303443908691,-6.729801591491698,8.513781103515624
1789799585851430000,4.415429931640625,0.821061531829834,-6.073341423797607,7.608024687957763
1789799585861401900,4.42540185546875,0.7193079612731933,-5.129427419281005,7.3094976684570305
1789799585871373000,4.435373046875,0.09711480484008789,-4.5611038002014155,7.8350249328613275
1789799585881344800,4.4453447265625,-0.02259527816772461,-4.739471823883056,8.131307388305663
1789799585891316000,4.45531591796875,0.17761983566284179,-5.305850154113769,7.6957123237609855
1789799585901287700,4.46528759765625,0.2428618309020996,-5.039944132232666,7.485621128082275
1789799585911259000,4.4752587890625,-0.07227496261596679,-4.667645774078369,6.905476138305664
1789799585921230800,4.48523095703125,-0.5220855995178222,-3.9942765571594236,7.397783854675293
1789799585931202000,4.4952021484375,-0.8123825508117676,-3.5116952850341794,9.157671712493896
1789799585941173800,4.505173828125,-0.634014527130127,-3.8585552505493164,10.268132369995117
1789799585951145000,4.51514501953125,-0.6949170318603515,-4.862623571777344,9.93414123840332
1789799585961116700,4.52511669921875,-0.2765302917480469,-5.721842692565918,9.09661957015991
1789799585971088000,4.535087890625,0.5057751007080078,-5.272331330871582,8.358307633209227
1789799585981059800,4.545059814453125,0.3010708587646484,-3.9276878234863277,7.871386870574951
1789799585991031000,4.555031005859375,-0.41419688720703124,-3.5627217079162596,7.569418186187744
1789799586001002800,4.565002685546875,-1.5456068092346191,-4.215291297912597,6.754192520904541
1789799586010974000,4.574973876953125,-2.1089923873901366,-3.659986150360107,5.631461579895019
1789799586020945700,4.584945556640625,-1.9788076721191405,-2.2706009994506835,5.430498278045654
1789799586030916900,4.594916748046875,-0.2647089210510254,-3.103184626770019,3.7472248733520503
1789799586040888800,4.604888916015625,0.09337386474609374,-2.9695582466125487,3.8009447731018065
1789799586050860000,4.614860107421875,-0.20335750350952148,-1.9419968215942383,4.285172058868408
1789799586060831700,4.624831787109375,-0.10594342346191406,-0.7908347358703612,5.445312400817871
1789799586070803000,4.634802978515625,-1.894262425994873,1.4929343727111815,8.786271179962158
1789799586080775000,4.64477490234375,-2.9755437507629394,0.2572270408630371,9.285312588500975
1789799586090745900,4.654745849609375,-1.8236334770202636,-3.9610570091247554,6.228365981292725
1789799586100717800,4.6647177734375,-1.1474211456298828,-4.511723390960693,5.103540113830566
1789799586110689000,4.67468896484375,-1.077690022277832,-3.4733880584716794,3.8070799148559566
1789799586120660700,4.68466064453125,-0.7745242370605468,-2.0905869621276856,2.7322330070495604
1789799586130632000,4.6946318359375,-0.7499836700439453,-0.7848492317199707,2.903568063354492
1789799586140604000,4.70460400390625,-1.3115735969543456,0.21532851181030271,5.622632961273193
1789799586150574800,4.714574951171875,-0.9663596450805664,-0.39848493881225583,6.957998937225342
1789799586160546800,4.724546875,-0.9231143775939941,-1.6525976959228514,6.271012698364258
1789799586170518000,4.73451806640625,-0.7435492530822754,-2.5221418113708496,5.523123954772949
1789799586180489700,4.74448974609375,-1.011250926208496,-3.3379660270690916,4.134486991882324
1789799586190461000,4.7544609375,-0.5660790550231933,-3.3469442832946776,4.215740210723877
1789799586200433000,4.764432861328125,-0.8228571830749511,-2.8280010734558103,6.079476565551757
1789799586210403800,4.77440380859375,-1.8308160820007322,-2.5240871002197265,8.021174111938477
1789799586220375800,4.784375732421875,-2.018910549926758,-2.9109003059387204,8.780884226226807
1789799586230347000,4.794346923828125,-2.0217536643981933,-3.6424785507202144,8.409633331298828
1789799586240318700,4.804318603515625,-1.3992612327575682,-4.214692747497558,7.453598680877685
1789799586250290000,4.8142900390625,-0.3746925598144531,-4.639663542175293,5.99493131942749
1789799586260262000,4.824261962890625,0.10040683212280273,-4.604199430084228,5.795015480804443
1789799586270232800,4.83423291015625,0.15098434219360352,-4.083460569000244,6.705111386871337
1789799586280204800,4.844204833984375,-0.5738602104187012,-3.5755905418395995,8.095992913818359
1789799586290176000,4.854176025390625,-0.984465795135498,-3.4448072761535644,9.292046280670165
1789799586300147700,4.864147705078125,-1.1903671379089356,-3.8022915115356444,10.217704497528075
1789799586310119000,4.874118896484375,-0.9434650917053222,-4.944176065826416,10.308085610198974
1789799586320091000,4.8840908203125,-0.1031003089904785,-5.511302584075928,11.405527796173095
1789799586330061800,4.894061767578125,0.16789339141845702,-5.625476075744628,11.674875482940672
1789799586340033800,4.90403369140625,0.54902036819458,-5.960365032958984,9.952247388458252
1789799586350005000,4.9140048828125,0.9349357482910156,-6.659771192932128,8.258648989105223
1789799586359976700,4.923976806640625,0.2332850242614746,-7.257274144744873,8.179490696716307
1789799586369948000,4.933947998046875,-1.2840402778625488,-6.944830828094482,9.873837284088134
1789799586379920000,4.943919921875,-1.4891934326171874,-5.781099183654785,10.616339073944092
1789799586389890800,4.953890869140625,0.14679448928833008,-4.75653051071167,9.507674067687988
1789799586399862800,4.96386279296875,1.4407108489990235,-4.976946701049805,8.506598498535157
1789799586409834000,4.973833984375,1.7265186721801757,-6.375759020996093,8.72821178970337
1789799586419805700,4.9838056640625,0.6410474945068358,-8.213608070373535,10.187178426361083
1789799586429777000,4.99377685546875,-0.591816722869873,-9.77492682800293,12.73116732788086
1789799586439748900,5.003748779296875,-0.5074211143493652,-10.491840587615966,14.70967572479248
1789799586449719800,5.0137197265625,-0.616058014678955,-10.082581741333007,14.23068575515747
1789799586459691800,5.02369189453125,-0.21428104858398436,-8.787767555999755,12.164489722442626
1789799586469663000,5.0336630859375,0.4836287353515625,-7.990947315979003,10.58536408996582
1789799586479634700,5.043634765625,0.5416881256103515,-7.392546538543701,9.003993893432616
1789799586489606000,5.05360595703125,-0.4697124382019043,-6.898143895721435,8.202235612487792
1789799586499577900,5.063577880859375,-1.009455274963379,-6.574777033996582,8.05693749923706
1789799586509548800,5.073548828125,0.0900818374633789,-6.574627396392822,8.271368185424803
1789799586519520800,5.083520751953125,0.6226420692443847,-6.429778195953369,8.690353475952149
1789799586529492000,5.093491943359375,0.5933130989074706,-6.346280413055419,8.781632414245605
1789799586539463700,5.103463623046875,0.7425017898559569,-6.6072483940124505,8.712200566101073
1789799586549435000,5.113434814453125,1.1424831047058104,-7.134571309661865,9.49345849533081
1789799586559406800,5.12340673828125,0.8684966522216796,-6.990171022033691,10.290428372955322
1789799586569377800,5.133377685546875,0.19916765060424804,-6.28253479385376,10.54002389602661
1789799586579349800,5.143349853515625,-0.014963760375976562,-5.785289036560059,9.725396781158446
1789799586589321700,5.15332177734375,-0.27099370040893556,-5.06912346496582,8.91840118408203
1789799586599293400,5.16329345703125,-0.1596633232116699,-4.375253896331787,7.710676084136963
1789799586609264600,5.1732646484375,-0.16654665298461913,-4.350713329315186,6.5969233993530265
1789799586619236400,5.183236328125,-0.6917746421813964,-4.761318914031982,7.059004319763183
1789799586629207600,5.19320751953125,-0.6795043586730957,-5.34355883026123,8.082675167083739
1789799586639179500,5.203179443359375,0.7052420265197753,-6.648997285461426,8.576030346679687
1789799586649150700,5.213150634765625,2.0063409912109376,-7.97418790435791,9.118466660308837
1789799586659122400,5.223122314453125,2.7563246612548826,-8.85525411529541,9.14151085128784
1789799586669093600,5.23309375,2.6426000823974607,-9.441534246826171,8.749011416625976
1789799586679065300,5.2430654296875,0.42452188186645506,-9.162759391021728,9.297732509613036
1789799586689036500,5.25303662109375,-1.0482114143371581,-8.440907590484619,9.394847314453125
1789799586699008500,5.263008544921875,-1.2620435501098632,-7.350648009490967,8.369380815887451
1789799586708979700,5.272979736328125,-0.7609072151184082,-6.2104094688415525,7.110330017852783
1789799586718951400,5.282951416015625,0.22056582794189453,-5.271732780456543,6.366930402374267
1789799586728922600,5.292922607421875,-0.058957215881347655,-5.3016603012084955,5.814019456481933
1789799586738894300,5.302894287109375,-1.357961254119873,-6.097732353210449,6.879738470458984
1789799586748865500,5.312865478515625,-1.997662010192871,-7.007977896881103,9.487772266387939
1789799586758837500,5.32283740234375,-0.8283937744140625,-7.538592839813232,11.796231579589843
1789799586768808700,5.33280859375,1.0215759208679198,-7.82709413986206,13.434015152740479
1789799586778780400,5.342780517578125,1.4510358436584472,-8.147468249511718,14.19282744140625
1789799586788751600,5.352751708984375,0.5086182151794433,-8.492831838989257,13.928118520355223
1789799586798723600,5.3627236328125,-0.3286041778564453,-8.19789612197876,13.199084114837646
1789799586808694500,5.372694580078125,-0.6793547210693359,-7.555651526641845,12.17571254272461
1789799586818666500,5.38266650390625,-0.821061531829834,-6.801178728485107,10.3299327003479
1789799586828637700,5.3926376953125,-0.7212532501220703,-5.319018263244629,8.161534184265136
1789799586838609400,5.402609375,-0.9923965881347656,-3.6233249374389644,7.3277534561157225
1789799586848580600,5.41258056640625,-1.2756605720520018,-3.252074042510986,7.640645685577392
1789799586858552600,5.422552490234375,-0.9449614677429199,-3.51783042678833,7.942913645172118
1789799586868523500,5.4325234375,-0.03621230010986328,-4.031536320495605,8.392125731658934
1789799586878495500,5.44249560546875,1.0862193656921386,-5.167585008239746,10.02302597503662
1789799586888466700,5.452466796875,1.904437783050537,-6.7830725784301755,11.774534127044676
1789799586898438400,5.4624384765625,1.1719617126464843,-7.990199127960205,12.665925332641601
1789799586908409600,5.47240966796875,-0.13093290328979493,-8.694244053649902,10.896610305786131
1789799586918381600,5.482381591796875,-0.7603086647033691,-8.339303657531739,7.534402986907959
1789799586928352500,5.4923525390625,-0.723946726989746,-6.271760886383056,6.001814649200439
1789799586938324500,5.502324462890625,-0.2754828285217285,-3.5372833152770995,5.897966152191162
1789799586948295700,5.512295654296875,0.025737667846679687,-1.648557480621338,7.314734984588623
1789799586958267400,5.522267333984375,0.06688800888061523,-2.093430076599121,8.730157078552246
1789799586968238600,5.532238525390625,-0.036361937713623046,-3.142240041351318,9.005789544677734
1789799586978210600,5.54221044921875,-0.17477672119140625,-3.7994483970642086,8.436867375183105
1789799586988181500,5.552181396484375,1.230320378112793,-3.422511273193359,8.278251515197754
1789799586998153500,5.562153564453125,3.0035259826660154,-1.4802151763916014,8.652944075012206
1789799587008124700,5.572124755859375,3.289782718658447,-0.05132569808959961,9.879822788238524
1789799587018096400,5.582096435546875,2.4384943908691405,-1.216254443359375,10.867281335449219
1789799587028067600,5.592067626953125,0.8704419410705566,-3.5333927375793457,10.384700063323974
1789799587038039600,5.60203955078125,-0.7534253349304199,-5.20933389968872,8.24278740310669
1789799587048010500,5.612010498046875,-1.3733739273071288,-5.173420874786377,6.021716450500488
1789799587057982500,5.621982421875,-0.7559691741943358,-3.5577836669921874,5.680243438720702
1789799587067953700,5.63195361328125,-0.49410336761474605,-1.6789339141845703,5.474791008758545
1789799587077925400,5.64192529296875,-0.7630021415710448,-2.3234230735778807,2.992452799987793
1789799587087896600,5.651896484375,-1.277605860900879,-1.4739303970336912,2.1582231590270995
1789799587097868500,5.66186865234375,-0.8324339897155761,1.1583446907043455,2.9507039085388183
1789799587107839500,5.671839599609375,-0.4875193130493164,1.2907739700317382,2.633472188568115
1789799587117811500,5.6818115234375,-1.0142436782836914,-0.10564414825439453,2.185906115722656
1789799587127782700,5.69178271484375,-1.2882301307678221,-0.9228151023864746,2.1966800231933594
1789799587137754400,5.70175439453125,-1.5255553703308105,-1.5946879432678223,1.6719009468078612
1789799587147725600,5.7117255859375,-1.7916110298156738,-2.5412954246520996,0.42586862030029293
1789799587157697500,5.721697509765625,-1.7929577682495117,-2.1589713470458984,2.532616443634033
1789799587167668500,5.73166845703125,-1.350180098724365,-1.2114660400390624,6.056282736968994
1789799587177640400,5.741640380859375,-1.1055226165771483,-2.376394785308838,5.587318486785889
1789799587187611600,5.751611572265625,-1.4698901817321777,-3.305345029449463,5.277867922210693
1789799587197583400,5.761583251953125,-1.6300024177551269,-3.321206615447998,5.142445890808105
1789799587207554600,5.771554443359375,-1.6916531105041503,-3.697694826507568,4.214243834686279
1789799587217526500,5.781526611328125,-1.7163433151245115,-3.6454713027954098,4.063558767700195
1789799587227497500,5.79149755859375,-1.8828899681091307,-2.7534815467834473,6.070348671722412
1789799587237469400,5.801469482421875,-1.620425611114502,-2.042254016113281,8.522160809326172
1789799587247440600,5.811440673828125,-1.2885294059753418,-2.1881506797790524,10.031106405639648
1789799587257412400,5.821412353515625,-1.4950292991638183,-3.1726164749145505,9.705195704650878
1789799587267383600,5.831383544921875,-1.6198270606994627,-4.599261389160156,9.185653944396972
1789799587277355500,5.84135546875,-1.4872481437683105,-5.328894345092773,10.799196225738525
1789799587287326500,5.851326416015625,-1.472134745788574,-5.8096799659729,12.605172465515135
1789799587297298400,5.86129833984375,0.29777883148193357,-6.358251421356201,11.93255143661499
1789799587307269600,5.87126953125,0.6594529197692871,-6.5768719604492185,10.920851597595215
1789799587317241300,5.881241455078125,0.06284779357910156,-6.175394269561767,10.350283414459227
1789799587327212500,5.891212646484375,-0.31379005508422847,-5.929090773773193,8.933664219665527
1789799587337184500,5.9011845703125,-0.16699556579589842,-5.797260044860839,7.517643575286865
1789799587347155500,5.911155517578125,0.033818098449707026,-5.370942511749267,7.494000833892822
1789799587357127400,5.92112744140625,0.3269581642150879,-4.786158756256103,8.702773397064208
1789799587367098600,5.9310986328125,0.7052420265197753,-4.650736724853515,9.192986186981202
1789799587377070300,5.9410703125,1.2870330299377442,-5.380220043182373,8.409334056091309
1789799587387041500,5.95104150390625,1.2738649208068846,-6.358101783752441,8.034192583465575
1789799587397013500,5.961013427734375,0.5515642074584961,-6.873304053497314,8.62451293029785
1789799587406984400,5.970984375,-0.07781155395507812,-6.719626234436035,9.59610989151001
1789799587416956700,5.980956787109375,0.3087023765563965,-6.1167363288879395,10.164882423400877
1789799587426927600,5.990927734375,0.9932944137573242,-5.916820490264892,9.97274774017334
1789799587436899600,6.000899658203125,1.202188508605957,-6.471826362609863,9.94072529296875
1789799587446870500,6.01087060546875,0.9042600395202636,-7.231386839294434,10.4571246635437
1789799587456842800,6.0208427734375,0.09262567672729492,-7.787140899658203,11.067346811676025
1789799587466813400,6.0308134765625,-0.8126818260192871,-7.447912451934814,11.371859335327148
1789799587476785700,6.04078564453125,-0.6109703361511231,-6.828113497161865,11.303923863220215
1789799587486756600,6.050756591796875,0.3694552436828613,-6.3998506752014155,10.906785662841797
1789799587496728600,6.060728515625,0.6576572685241698,-6.383540176391601,10.523563759613037
1789799587506699500,6.070699462890625,0.3275567146301269,-6.993612686920166,10.302100106048583
1789799587516671700,6.080671630859375,-0.1623568000793457,-8.042273014068604,10.192715017700195
1789799587526642700,6.090642578125,-0.24615385818481444,-8.648604584503174,10.817302375793457
1789799587536614700,6.10061474609375,0.04504091873168945,-8.723124111175537,11.392509324645996
1789799587546585600,6.110585693359375,0.9421183532714843,-7.649324666595459,11.254992366790772
1789799587556557600,6.1205576171875,1.0663175643920897,-6.804021842956542,10.096198763275146
1789799587566528500,6.130528564453125,0.1039981346130371,-6.864026522064209,9.46083749771118
1789799587576500700,6.140500732421875,-0.9353846611022949,-6.842927619934081,10.050559294128417
1789799587586471400,6.150471435546875,-1.0218751960754393,-7.134421672058105,11.461492259979247
1789799587596443100,6.160443115234375,0.28954876327514645,-7.72459238128662,11.751489936065672
1789799587606414300,6.170414306640625,1.5141829124450683,-7.334038235473632,11.173739147949219
1789799587616386000,6.180385986328125,1.6578350120544432,-6.442347754669189,9.829544553375243
1789799587626357200,6.190357177734375,1.6232687255859375,-6.143222184753418,7.50178198928833
1789799587636329200,6.2003291015625,1.37262573928833,-6.32009383239746,6.044311728668212
1789799587646300400,6.210300537109375,0.29927520751953124,-6.863278334045409,6.446537607574463
1789799587656272100,6.220272216796875,0.2302922721862793,-7.651419593048095,7.154323473358154
1789799587666243300,6.230243408203125,1.255758770751953,-8.19116242980957,7.3265563552856445
1789799587676215300,6.24021533203125,2.0781670410156248,-8.060977714538573,7.434744342803954
1789799587686186200,6.250186279296875,2.2111948707580567,-7.240365095520019,7.332691497039795
1789799587696158200,6.260158203125,1.0607809730529785,-6.558765810394287,6.613084260559082
1789799587706129400,6.27012939453125,-0.49410336761474605,-5.969044013977051,6.235997499084473
1789799587716101000,6.28010107421875,-1.7175404159545897,-5.409249738311767,6.363788012695312
1789799587726072300,6.290072265625,-1.878251202392578,-4.760121813201904,7.474398307800293
1789799587736044300,6.300044189453125,-0.8355763793945312,-4.285471334075927,8.744372650909423
1789799587746015200,6.31001513671875,0.4147954376220703,-4.305672410583496,9.421782083129882
1789799587755987200,6.3199873046875,0.858022019958496,-4.7931917236328125,9.491213931274414
1789799587765958400,6.32995849609375,-0.4617816452026367,-5.462820000457763,9.598354455566406
1789799587775930000,6.33993017578125,-2.329707852935791,-6.219836637878418,10.676792665863037
1789799587785901300,6.3499013671875,-2.3783400741577148,-6.628197658538818,12.382960623931885
1789799587795873300,6.359873291015625,-0.01975216369628906,-6.776488523864746,13.1003232963562
1789799587805844200,6.36984423828125,1.674594423675537,-6.642712506103515,12.724283998107909
1789799587815816200,6.379816162109375,0.3667617668151855,-6.657526628875732,11.060463481903076
1789799587825787400,6.389787353515625,-1.153556287384033,-6.400149950408935,9.025990621185302
1789799587835759000,6.399759033203125,-0.9687538467407226,-5.8268882904052735,7.975385005187988
1789799587845730300,6.409730224609375,-0.24271219329833982,-5.47763412322998,7.509563144683837
1789799587855702300,6.419702392578125,-0.06958148574829101,-5.625176800537109,7.621342434692382
1789799587865673200,6.429673095703125,0.12030863342285156,-5.812822355651855,8.557475283813476
1789799587875645200,6.439645263671875,0.8958803337097168,-5.65660069732666,10.41313120803833
1789799587885616400,6.449616455078125,1.4725836585998535,-5.994033493804931,12.060042675018309
1789799587895588000,6.459588134765625,1.260247898864746,-6.936900035095214,12.860603855133055
1789799587905559300,6.469559326171875,1.1777975791931152,-7.711424272155761,12.63450143585205
1789799587915531300,6.47953125,0.827346311187744,-7.561487393188476,12.133664376068115
1789799587925502200,6.489502197265625,0.613514175415039,-6.139032331848144,11.7465518951416
1789799587935474200,6.49947412109375,0.945560018157959,-5.1988592674255365,11.529727007293701
1789799587945445400,6.5094453125,1.7081132469177245,-5.805939025878906,10.233266808319092
1789799587955417000,6.5194169921875,1.5313912368774414,-5.686228942871093,9.26376477355957
1789799587965388300,6.52938818359375,0.5814917282104491,-4.630236373138428,8.756044384002685
1789799587975360300,6.5393603515625,0.29613281784057616,-3.294421484375,7.959373781585693
1789799587985331200,6.549331298828125,0.7426514274597168,-2.7000609222412106,6.64555562057495
1789799587995303200,6.55930322265625,1.041328084564209,-2.420837153625488,5.731569136810302
1789799588005274400,6.5692744140625,0.9279027809143066,-1.9910779556274414,5.642983675384521
1789799588015246000,6.57924609375,1.0485106895446776,-1.8460791175842284,5.743689782714843
1789799588025217300,6.58921728515625,0.21562778701782226,-2.0011036750793454,5.941959607696533
1789799588035189200,6.599189208984375,-0.0743698890686035,-2.3906103576660156,6.279542041778564
1789799588045160200,6.60916015625,0.32935236587524414,-3.0166940917968748,6.611887159729004
1789799588055132200,6.619132080078125,-0.831835439300537,-3.614197043609619,5.738452466583252
1789799588065103400,6.629103271484375,-1.906383071899414,-4.497507818603515,4.553472282409667
1789799588075075000,6.639074951171875,-1.812560294342041,-4.282628219604492,5.098153160095214
1789799588085046300,6.64904638671875,-1.8977040908813476,-2.806453258514404,5.634304694366454
1789799588095018200,6.659018310546875,-0.845302823638916,-2.786850732421875,4.314351391601562
1789799588104989200,6.6689892578125,-0.0056862289428710935,-3.302501914978027,3.469796755981445
1789799588114961200,6.678961181640625,0.36361937713623044,-2.212092696380615,4.920832599639892
1789799588124932400,6.688932373046875,-0.7384615745544433,-1.0860697280883789,6.0619689659118645
1789799588134904000,6.698904052734375,-2.1990742248535153,-0.07826046676635742,6.820033066558837
1789799588144875300,6.708875244140625,-1.7613842338562011,-0.1710357810974121,7.712920648193359
1789799588154847200,6.71884716796875,-0.8087912483215332,-1.7672201004028318,6.033537821197509
1789799588164818200,6.728818115234375,-0.8921393936157226,-3.3004069885253906,3.288585617828369
1789799588174790100,6.7387900390625,-0.4493617240905761,-3.7442321212768555,3.940257382202148
1789799588184761300,6.74876123046875,-0.6661866119384765,-2.7946318878173826,6.52464843673706
1789799588194733000,6.758733154296875,-1.4815619148254393,-1.9683330398559569,7.469011354064941
1789799588204704300,6.768704345703125,-1.546803910064697,-2.2717981002807615,6.85025986251831
1789799588214676200,6.77867626953125,-1.3771148674011229,-2.6562171043395995,5.529109458923339
1789799588224647200,6.788647216796875,-0.5542576843261718,-3.155857063293457,3.541473168182373
1789799588234619100,6.798619140625,-0.15502455749511718,-3.3399113159179685,2.705896788787842
1789799588244590300,6.80859033203125,-0.5858312187194824,-2.877231845092773,3.475632622528076
1789799588254561300,6.818561279296875,-1.4603133750915527,-2.299780332183838,4.313303928375244
1789799588264533200,6.828533203125,-1.9726725303649901,-1.7727566917419433,5.186289708709716
1789799588274504200,6.838504150390625,-1.679682102203369,-1.5248071823120117,5.920411792755127
1789799588284476200,6.84847607421875,-0.97683427734375,-1.8109142807006835,6.237044962310791
1789799588294447000,6.858447021484375,-0.7604583023071289,-2.166004314422607,7.511059520721435
1789799588304419300,6.86841943359375,-1.4897919830322264,-2.644395733642578,9.228749574279785
1789799588314390300,6.878390380859375,-0.8104372619628906,-3.610755378723144,8.633191911315917
1789799588324362200,6.8883623046875,-0.4161421760559082,-4.840028293609619,8.179191421508788
1789799588334333200,6.898333251953125,0.44502223358154297,-5.981463935089111,8.400505437469482
1789799588344305200,6.90830517578125,-0.270694425201416,-6.678775168609619,10.972775846099854
1789799588354276000,6.918276123046875,-0.9823708686828613,-7.1404071762084955,14.88804374847412
1789799588364248300,6.928248291015625,0.5259761772155761,-7.870638682556152,14.665083718872069
1789799588374219300,6.93821923828125,0.8916904808044434,-8.492532563781738,12.237961785888672
1789799588384191200,6.948191162109375,0.6959644950866699,-8.21585263442993,11.222521006774901
1789799588394162200,6.958162109375,0.9265560424804687,-7.858817311859131,10.403853676605223
1789799588404134400,6.968134521484375,0.486471849822998,-7.423072609710693,10.53987425842285
1789799588414105000,6.97810498046875,-0.07422025146484375,-7.618349682617187,12.156858204650879
1789799588424077300,6.988077392578125,-0.5550058723449707,-8.59338830871582,13.04944651107788
1789799588434048300,6.99804833984375,0.059256491088867186,-8.321646420288085,12.458677251434326
1789799588444020200,7.008020263671875,1.4480430915832518,-7.147140868377685,11.334898847198486
1789799588453991200,7.0179912109375,2.0988170303344726,-7.090428216552734,10.582072062683105
1789799588463963400,7.02796337890625,1.5177742149353026,-8.071153071594237,10.639233627319335
1789799588473934000,7.03793408203125,0.9189245246887207,-9.048136986541747,10.41971526260376
1789799588483906300,7.04790625,0.412401235961914,-8.74661721496582,8.377461246490478
1789799588493877200,7.057877197265625,-0.5445312400817871,-7.126640516662597,6.399401762390136
1789799588503849200,7.06784912109375,-0.1919850456237793,-6.019771161651611,5.617246007537841
1789799588513820200,7.077820068359375,1.406443837738037,-6.083516780853271,4.471620513153076
1789799588523792400,7.08779248046875,1.4260463638305663,-6.083067868041992,4.263474606323242
1789799588533763000,7.09776318359375,0.14559738845825196,-5.709273133850098,5.829731404876709
1789799588543735300,7.1077353515625,-1.0770914718627929,-5.013159001159668,7.485321852874756
1789799588553706200,7.117706298828125,-0.6775590698242188,-4.6221559425354,6.778882725524902
1789799588563678200,7.12767822265625,0.2690484115600586,-4.67961678237915,5.38815083618164
1789799588573649200,7.137649169921875,0.024390929412841794,-5.149478858184814,5.423764585876465
1789799588583621400,7.147621337890625,-1.1863269226074218,-4.758326161956787,7.058106494140625
1789799588593592300,7.15759228515625,-2.3760955101013184,-4.43032053451538,9.524882392120361
1789799588603564300,7.167564208984375,-0.3022679595947265,-6.275202551269531,10.08093572769165
1789799588613535500,7.177535400390625,2.076221752166748,-8.430283320617676,11.602450882720946
1789799588623507200,7.187507080078125,2.212840884399414,-9.06025763244629,13.984681534576415
1789799588633478400,7.197478515625,0.9418190780639648,-9.255684342956542,15.157840348052977
1789799588643450400,7.207450439453125,0.7968202400207519,-8.549095578002929,14.422970075988768
1789799588653421300,7.21742138671875,0.5448305152893066,-7.4220251464843745,11.51162085723877
1789799588663393300,7.227393310546875,-0.3372831588745117,-6.884975786590576,9.081206896972656
1789799588673364500,7.237364501953125,-1.412878254699707,-6.214898596954345,8.591891932678221
1789799588683336200,7.247336181640625,-1.6853683311462402,-5.8372132850646965,8.164227661132813
1789799588693307400,7.257307373046875,-0.9226654647827148,-5.61784455795288,8.0698063331604
1789799588703279400,7.267279296875,0.26007015533447264,-5.888688620758057,7.710376808929443
1789799588713250300,7.277250244140625,1.7247230209350586,-7.069030039215088,6.252158360290527
1789799588723222300,7.28722216796875,2.2566847023010252,-8.136993617248535,5.403713146972656
1789799588733193500,7.297193359375,0.1497872413635254,-9.030180474090576,6.657077716064452
1789799588743165200,7.307165283203125,-1.338209090423584,-9.839719910430908,8.360701834869385
1789799588753136400,7.317136474609375,-0.6821978355407714,-9.94012674255371,8.881889608764649
1789799588763108400,7.3271083984375,0.7170633972167968,-8.704569048309326,9.737966339874268
1789799588773079300,7.337079345703125,0.8333318153381347,-7.18275461807251,10.488099647521972
1789799588783051300,7.34705126953125,-0.016759411621093748,-6.172251879882812,10.15665235519409
1789799588793022500,7.3570224609375,-1.3868413116455078,-5.617246007537841,9.494805233764648
1789799588802994200,7.366994140625,-1.8819921424865722,-5.0942625823974605,9.449764315032958
1789799588812965400,7.37696533203125,-1.3582605293273926,-4.823717794799804,9.722553666687011
1789799588822937300,7.386937255859375,-1.0447697494506836,-4.430021259307861,10.127622660064697
1789799588832908300,7.396908203125,-0.6474819114685059,-4.348468765258789,10.135852728271484
1789799588842880300,7.40688037109375,0.06150105514526367,-4.750545006561279,10.525209773254394
1789799588852851500,7.4168515625,0.9787795661926268,-5.7966614944458,11.027992121887207
1789799588862823200,7.4268232421875,1.470339094543457,-7.157465863037109,11.499949124145507
1789799588872794400,7.43679443359375,1.3780126930236816,-8.666561096954345,10.596736547851561
1789799588882766300,7.446766357421875,0.8503905021667479,-8.892214603424073,8.692598040008544
1789799588892737300,7.4567373046875,0.05491700057983398,-7.66129567489624,7.689577182006835
1789799588902709200,7.466709228515625,-0.8951321456909179,-6.3898249557495115,8.014141144561767
1789799588912680400,7.476680419921875,-0.5018845230102539,-5.577592042541504,8.335861992645263
1789799588922652200,7.486652099609375,-0.0282815071105957,-5.347748683166504,8.527098850250244
1789799588932623400,7.496623291015625,-0.10549451065063475,-4.967519532012939,9.651775080108642
1789799588942595300,7.50659521484375,-0.30840310134887694,-4.806958383178711,11.189151821136473
1789799588952566300,7.516566162109375,-0.4474164352416992,-5.248538951873779,12.420669300079345
1789799588962537200,7.526537109375,-0.2814683326721191,-5.870432833099365,12.693608289337158
1789799588972509400,7.536509521484375,0.10788871231079102,-5.940163956451416,12.616544923400879
1789799588982480400,7.54648046875,0.11118073959350586,-5.503521428680419,11.030236685943603
1789799588992452400,7.556452392578125,-0.6081272216796875,-4.056376162719726,10.122983894348144
1789799589002423300,7.56642333984375,-0.2946364418029785,-3.427299676513672,9.303269100952148
1789799589012395300,7.576395263671875,0.6289268486022949,-4.658368242645263,6.9050272254943845
1789799589022366200,7.5863662109375,0.6018424423217773,-4.829104748535156,5.771073464202881
1789799589032338400,7.59633837890625,1.4375684593200684,-4.212747458648681,4.023904802703857
1789799589042309400,7.606309326171875,1.513733999633789,-2.6173113273620605,2.848501425170898
1789799589052281300,7.61628125,0.5779004257202148,-0.2650081962585449,3.5913024902343746
1789799589062252300,7.626252197265625,0.07272387542724609,-0.08245031967163086,3.6189854469299316
1789799589072224300,7.636224365234375,0.634014527130127,-0.9868599967956543,3.58801046295166
1789799589082195200,7.6461953125,0.4538508522033691,-0.7133224571228027,3.660734338378906
1789799589092167400,7.65616748046875,-0.7579144630432129,-0.45325230178833004,3.3701381118774414
1789799589102138400,7.666138427734375,-0.19856910018920898,-0.8984241729736328,4.352209705352783
1789799589112110300,7.6761103515625,-0.25483283920288086,-1.9859902770996092,5.767482161712646
1789799589122081300,7.686081298828125,-0.8221089950561523,-2.9798832412719727,7.364414669036865
1789799589132053200,7.69605322265625,-1.467047067260742,-3.2882863426208493,9.692925421142577
1789799589142024200,7.706024169921875,-3.079242610168457,-2.3331495178222657,11.519850925445557
1789799589151996400,7.715996337890625,-2.6312276245117188,-3.1561563385009763,9.776722479248047
1789799589161967400,7.72596728515625,-1.3033435287475585,-5.135263285827636,6.3818941627502435
1789799589171939300,7.735939208984375,-0.3767874862670898,-4.682010984039306,4.894646018981933
1789799589181910300,7.74591015625,0.07302315063476562,-3.4754829849243163,3.454683358001709
1789799589191882500,7.755882568359375,-0.469263525390625,-1.4784195251464842,3.5377322280883785
1789799589201853200,7.765853271484375,-1.7763479942321776,0.01092354507446289,5.1979614418029785
1789799589211825400,7.775825439453125,-2.899078935241699,0.053420624542236325,5.95018967590332
1789799589221796400,7.78579638671875,-1.5034090049743651,-1.6142904693603515,3.1637878562927244
1789799589231768300,7.795768310546875,0.32142157287597656,-3.209427325439453,0.45295302658081055
1789799589241739300,7.8057392578125,0.41748891448974607,-2.581847215270996,1.6557400856018065
1789799589251711500,7.81571142578125,-0.9346364730834961,-1.68551796875,3.8435914901733397
1789799589261682200,7.82568212890625,-2.2195745765686032,-1.7100585357666014,4.814739538574218
1789799589271654400,7.835654296875,-2.3856723167419434,-2.4206875160217285,5.4050598854064935
1789799589281625300,7.845625244140625,-0.9974842666625976,-3.374776877593994,5.697900675964355
1789799589291597300,7.855597412109375,0.5186439346313476,-4.489577025604248,5.43947653427124
1789799589301568300,7.865568359375,-0.6618471214294434,-5.0103158866882325,7.480533449554443
1789799589311540500,7.87554052734375,-1.7528548904418944,-5.469553692626953,8.648604584503174
1789799589321511200,7.88551123046875,-1.5966332321166992,-6.119729080963134,8.182633086395263
1789799589331483400,7.8954833984375,-0.6112696113586426,-6.919242797851562,7.773224602508544
1789799589341454300,7.905454345703125,0.4373907157897949,-7.316231360626221,8.303839545440674
1789799589351426300,7.91542626953125,0.26830022354125976,-6.686107411193848,11.481094786071777
1789799589361397200,7.925397216796875,-0.2180219886779785,-6.04625701751709,14.821754290008544
1789799589371369500,7.935369384765625,-0.4240729690551758,-6.802675104522705,14.475941787719727
1789799589381340200,7.945340087890625,-0.08035539321899414,-8.222137413787841,12.345850498199463
1789799589391312400,7.9553125,0.8412626083374023,-8.51108762664795,12.207884627532959
1789799589401283300,7.965283447265625,1.4239514373779296,-8.4145713722229,12.712462627410888
1789799589411254500,7.975254638671875,1.7354969284057615,-8.814103774261474,12.407650828552246
1789799589421226200,7.985226318359375,1.862239978790283,-9.572167874908446,11.08949317703247
1789799589431197400,7.995197509765625,1.0579378585815429,-9.535506661987304,9.865906491088866
1789799589441169200,8.005169189453126,0.1452981132507324,-8.073996186065674,8.828169709014892
1789799589451140400,8.015140380859375,0.4677671493530273,-6.513425616455078,8.176647582244872
1789799589461112300,8.0251123046875,0.6628945846557617,-5.575048203277587,7.914033587646484
1789799589471083500,8.03508349609375,-0.061650692749023434,-5.101744462585449,7.33553461151123
1789799589481055200,8.04505517578125,-0.512059880065918,-4.518756358337402,6.87599753036499
1789799589491026400,8.0550263671875,-0.1883937431335449,-4.089446073150635,7.273135730743408
1789799589500998100,8.064998046875,0.4358943397521972,-4.3825861389160155,8.472630762481689
1789799589510969300,8.07496923828125,0.3172317199707031,-5.86699116821289,10.218751960754394
1789799589520941300,8.08494140625,0.4929062667846679,-8.02566324005127,11.745055519104003
1789799589530912500,8.09491259765625,1.2906243324279785,-9.849296717071532,11.98268003387451
1789799589540884200,8.10488427734375,0.8993219985961913,-10.169820464324951,10.977863524627685
1789799589550855400,8.11485546875,0.8087912483215332,-8.95102218170166,9.383175581359863
1789799589560827100,8.1248271484375,0.4016273284912109,-7.642441336822509,8.163629110717773
1789799589570798300,8.13479833984375,-0.963366893005371,-6.285976458740234,8.571241943359375
1789799589580770300,8.144770263671875,-1.8197428993225098,-5.243151998138427,9.045593147277831
1789799589590741800,8.15474169921875,-1.0922048698425293,-4.919036948394775,8.811709572601318
1789799589600714000,8.1647138671875,0.1767220100402832,-5.022885445404053,8.59323867111206
1789799589610685000,8.174684814453125,1.0919055946350098,-5.361964255523682,8.186074751281739
1789799589620657000,8.184656982421876,1.1082160934448242,-6.184971076202392,7.894879974365234
1789799589630627800,8.1946279296875,0.008230068206787108,-7.174823825073242,8.691700214385985
1789799589640600000,8.20460009765625,-0.8179191421508789,-8.179341059112549,10.020631773376465
1789799589650570800,8.21457080078125,-0.3280056274414062,-9.323021264648437,11.165359442138671
1789799589660543000,8.22454296875,1.281945351409912,-9.523386016082764,10.952425131988525
1789799589670514000,8.234513916015626,1.789516103363037,-8.789114294433594,9.751583361816406
1789799589680486000,8.24448583984375,1.126172605895996,-7.238719081878662,8.290222523498535
1789799589690456800,8.254456787109374,0.6706757400512695,-6.044461366271972,6.621463966369628
1789799589700428000,8.264427978515625,0.2367266891479492,-5.287145453643799,5.7040358177185055
1789799589710399700,8.274399658203125,-0.5814917282104491,-5.199906730651855,5.914127013397216
1789799589720371000,8.284370849609376,-0.8788216468811034,-6.139331607055664,7.088034014892577
1789799589730343000,8.294343017578125,-0.24645313339233396,-6.7353381828308105,8.449287296295166
1789799589740314000,8.304314208984374,0.8152256652832031,-6.607098756408691,9.667187753295899
1789799589750285800,8.314285888671876,1.6264111152648926,-6.359448522186279,10.485406170654297
1789799589760257000,8.324257080078125,1.4890437950134277,-6.123170745849609,11.030984873962401
1789799589770228700,8.334228759765624,0.37873277511596676,-5.903502743530273,11.91309854812622
1789799589780200000,8.344199951171875,-0.7046434761047363,-5.994033493804931,12.224644039154052
1789799589790172000,8.354171875,-0.4713584518432617,-5.909039334869385,11.648239989471435
1789799589800143000,8.36414306640625,-0.1892915687561035,-5.6097641273498535,10.649558621978759
1789799589810114800,8.37411474609375,-0.6162076522827148,-5.274126982116699,9.450811778259277
1789799589820086000,8.3840859375,-1.0209773704528808,-5.261707061004638,8.628253870391845
1789799589830058000,8.39405810546875,-0.8117840003967285,-5.484816728210449,8.614786486053466
1789799589840029000,8.40402880859375,-0.12644377517700195,-6.12855769958496,9.323470177459717
1789799589850001000,8.4140009765625,0.563086302947998,-6.854449715423583,11.004050105285645
1789799589859972000,8.42397216796875,1.8766051887512205,-7.219116555786132,12.419472199249267
1789799589869943800,8.43394384765625,2.8495488883972167,-7.594108390808105,13.001562477874755
1789799589879915000,8.4439150390625,2.147598889160156,-8.055590760803222,11.928062308502197
1789799589889887000,8.453886962890625,0.7921814743041992,-8.091054872894286,10.739490821838379
1789799589899858000,8.46385791015625,0.15472528228759766,-7.990049490356445,10.491092399597168
1789799589909830000,8.473829833984375,-0.11073182678222655,-7.683591677856445,10.484957257843018
1789799589919801000,8.483801025390624,0.05940612869262695,-7.101052486419677,10.100687891387938
1789799589929772800,8.493772705078126,0.3366846084594726,-6.7374331092834465,8.671050225067138
1789799589939744000,8.503743896484375,-0.08020575561523437,-5.577442404937744,7.729829697418213
1789799589949715000,8.51371484375,-0.6037877311706542,-4.4093712699890135,6.2766989273071285
1789799589959687000,8.52368701171875,-0.5409399375915527,-3.9276878234863277,4.884919574737548
1789799589969657900,8.533657958984374,0.20694880599975585,-3.4160768562316894,4.504091873168945
1789799589979630000,8.543630126953126,0.620547142791748,-2.6795605705261227,5.000140529632568
1789799589989601000,8.55360107421875,0.7851485069274902,-2.9242180526733397,5.351639260864258
1789799589999573000,8.563572998046874,1.7069161460876463,-3.872022634887695,5.032611889648437
1789799590009544000,8.5735439453125,2.0611083541870117,-4.5227965736389155,4.326771312713623
1789799590019516000,8.583515869140625,1.8803461288452148,-4.9634793167114255,4.199280074310303
1789799590029486800,8.59348681640625,2.0401590896606443,-4.844816696929931,5.06253941040039
1789799590039459000,8.603458984375,2.1396680961608885,-4.266766633605957,6.627449470520019
1789799590049430000,8.613429931640624,1.3748703033447265,-3.6062662506103513,8.818892177581787
1789799590059402000,8.623402099609375,-0.30092122116088865,-3.555389465332031,10.590751043701172
1789799590069373000,8.633373046875,-0.7306804191589356,-4.848557637023926,11.174188060760498
1789799590079345000,8.643344970703126,-1.0139444030761717,-6.181230136108398,10.911723703765869
1789799590089315800,8.65331591796875,-1.1007342132568358,-6.660818656158447,11.458649145507811
1789799590099288000,8.6632880859375,-1.2300211029052734,-6.472724188232421,12.67280866241455
1789799590109259000,8.673259033203125,-2.0670938583374023,-6.515969455718993,13.409624223327636
1789799590119231000,8.68323095703125,-1.5592238311767577,-7.857470573425292,11.093832667541504
1789799590129202000,8.693201904296876,-0.2032078659057617,-7.8155720443725585,6.302885507965088
1789799590139174000,8.703173828125,0.29014731369018554,-4.387973092651367,3.3680431854248045
1789799590149144800,8.713144775390624,-0.036361937713623046,-1.807472615814209,0.10280103378295898
1789799590159117000,8.723116943359376,-0.7951742263793945,-0.06673837127685546,-3.106027741241455
1789799590169088000,8.733087890625,-0.6218938812255859,0.9443629173278808,-5.998821897125244
1789799590179060000,8.74306005859375,-0.12255319747924803,1.4640543151855467,-8.594136496734619
1789799590189031000,8.753031005859375,0.7811082916259765,2.0259435173034666,-9.166500331115722
1789799590199002000,8.763002197265624,-0.1301847152709961,2.8559833053588863,-5.32410594177246
1789799590208973800,8.772973876953126,-1.7850269752502441,2.991704611968994,-0.41090485992431636
1789799590218945000,8.782945068359375,-1.690605647277832,1.6552911727905273,0.7356184600830078
1789799590228917000,8.7929169921875,-1.2268787132263184,-0.09906009368896483,1.7950526947021483
1789799590238888000,8.802887939453125,-0.8158242156982422,-1.687912170410156,3.5435680946350097
1789799590248860000,8.81285986328125,-1.4634557647705078,-2.8419173706054686,6.94647684173584
1789799590258831000,8.8228310546875,-3.4208652595520017,-3.9739258430480953,11.314697770690918
1789799590268802800,8.832802734375,-4.068496808624268,-5.105485402679443,15.639523794555663
1789799590278774000,8.84277392578125,-3.279008811187744,-6.147561675262451,18.958934758758545
1789799590288746000,8.85274609375,-1.5851111366271973,-6.571335369110107,21.388899806213377
1789799590298717000,8.862717041015625,2.203264077758789,-6.223427940368652,24.09315058135986
1789799590308689000,8.87268896484375,2.8776807579040526,-7.200711130523681,26.085575275421142
1789799590318660000,8.88266015625,0.6040870063781738,-8.45183113555908,25.781212389373778
1789799590328631800,8.8926318359375,1.3461398834228515,-9.16814634475708,17.92613601760864
1789799590338603000,8.90260302734375,1.9307740013122558,-9.086144937896728,10.976965699005126
1789799590348575000,8.912574951171875,0.47165772705078124,-8.96972688217163,8.77774183654785
1789799590358546000,8.9225458984375,0.48123453369140623,-9.54508346862793,7.274183193969726
1789799590368516900,8.932516845703125,2.1511901916503904,-9.685443540954589,6.260538066101073
1789799590378489000,8.942489013671874,2.947561518859863,-8.792855234527588,5.3883004737854
1789799590388460000,8.9524599609375,2.675669992828369,-7.6753616096496575,4.154688068389892
1789799590398432000,8.962431884765625,2.8746880058288573,-6.65872372970581,2.8227637573242186
1789799590408403000,8.97240283203125,2.7789199394226074,-5.636249983215332,2.186055753326416
1789799590418375000,8.982375,1.924189946746826,-4.455010739135742,2.722955475616455
1789799590428345900,8.992345947265624,1.237203707885742,-3.5531449012756346,3.6171897956848142
1789799590438318000,9.002318115234376,1.7458219230651855,-3.2290298515319824,4.339340871429443
1789799590448289000,9.0122890625,2.061257991790771,-3.4823663146972654,5.1517234222412105
1789799590458261000,9.022260986328124,1.1819874320983885,-4.352808255767822,5.965751986694335
1789799590468232000,9.03223193359375,-0.1592144104003906,-5.574150377655029,7.322216864776611
1789799590478204000,9.042203857421875,-1.6632219657897949,-6.339845996093749,8.569147016906738
1789799590488174800,9.0521748046875,-2.896535095977783,-6.739528035736083,9.336189373779296
1789799590498147000,9.06214697265625,-2.028337718963623,-7.473949394989013,9.752181912231444
1789799590508118000,9.072117919921874,-1.368136611175537,-8.259546814727782,10.192565380096434
1789799590518090000,9.082090087890625,-2.037315975189209,-8.118288916778564,11.15907466278076
1789799590528061000,9.09206103515625,-1.7206828056335448,-8.44629454421997,11.992406478118896
1789799590538033000,9.102032958984376,-0.7838017684936524,-9.260472746276855,12.23811142349243
1789799590548003800,9.11200390625,1.3418003929138183,-9.535357024383543,12.210428466796873
1789799590557974800,9.121974853515624,2.9198785621643064,-9.119813398742675,11.128997504425048
1789799590567947000,9.131947021484375,2.787449282836914,-8.308927223968505,9.638606970977783
1789799590577917700,9.141917724609375,2.0554221252441405,-7.1504328956604,8.668506385803223
1789799590587889400,9.151889404296876,1.345092420196533,-6.1741971687316894,7.614908017730713
1789799590597860400,9.1618603515625,0.780809016418457,-5.524021780395508,7.542034504699706
1789799590607832300,9.171832275390624,0.24016835403442383,-5.448155515289306,7.996184632110595
1789799590617803300,9.18180322265625,-0.49634793167114255,-5.896170500946044,8.37641378326416
1789799590627775500,9.191775390625,-0.19527707290649413,-6.956203285980224,7.671770307159424
1789799590637746400,9.201746337890626,-0.2672527603149414,-8.17904178390503,7.459284909820556
1789799590647718400,9.211718505859375,-0.8994716361999511,-8.700678470611571,8.238447912597655
1789799590657689300,9.221689453125,-0.2302922721862793,-9.224410083770751,8.550741591644286
1789799590667661300,9.231661376953125,1.3009493270874022,-9.488370816802979,8.62526111831665
1789799590677632300,9.24163232421875,2.7712884216308593,-8.600720551300048,8.868871137237548
1789799590687604500,9.2516044921875,4.540603448486328,-7.309048755645752,8.648754222106932
1789799590697575400,9.261575439453125,5.167435370635986,-6.718129858398437,7.818115883636474
1789799590707547400,9.27154736328125,3.2028432708740233,-6.288819573211669,8.092551248931885
1789799590717518300,9.281518310546875,0.879120922088623,-6.6340335250854485,9.322572351837158
1789799590727489500,9.291489501953125,-0.24615385818481444,-7.9289973480224605,10.409090992736816
1789799590737461200,9.301461181640626,-0.06284779357910156,-9.376441889190673,10.799196225738525
1789799590747432400,9.311432373046875,0.3082534637451172,-9.422081358337401,10.927435652160645
1789799590757404400,9.321404296875,-0.48931496429443355,-8.419210137939453,9.841814836883545
1789799590767375400,9.331375244140625,-1.6834230422973633,-7.16315209197998,7.556998265075683
1789799590777347300,9.341347412109375,-1.6514005950927733,-5.504868167114258,5.767631799316406
1789799590787318500,9.351318603515624,-1.134402674102783,-3.675847736358642,5.887042607116699
1789799590797290200,9.361290283203125,-0.7504325828552245,-2.9601310775756833,6.495768379211426
1789799590807261400,9.371261474609375,-0.07781155395507812,-3.1024364387512207,7.273883918762206
1789799590817233400,9.3812333984375,0.6616974838256836,-3.56900648727417,7.468412803649902
1789799590827204400,9.391204345703125,0.7062894897460937,-4.231901071929931,6.830058786010742
1789799590837176300,9.40117626953125,-0.5265747276306152,-4.886864863586426,6.491877801513671
1789799590847147500,9.4111474609375,-2.226308268737793,-5.118503874206542,7.154024198150634
1789799590857119200,9.421119140625,-1.6813281158447264,-5.466112027740478,8.40738876724243
1789799590867090400,9.43109033203125,0.7425017898559569,-5.664830765533447,10.098144052124022
1789799590877061400,9.441061279296875,2.7627590782165528,-5.61784455795288,11.735777987670899
1789799590887033300,9.451033447265624,3.105279553222656,-6.048501581573486,12.867337547302245
1789799590897004300,9.46100439453125,1.5056535690307615,-6.86312869644165,12.915820130920409
1789799590906976500,9.4709765625,0.17567454681396483,-7.372195824432373,11.72814646987915
1789799590916947500,9.480947509765626,-0.11596914291381835,-7.510760245513915,10.603470240020751
1789799590926919400,9.49091943359375,-0.3263596138000488,-7.372046186828613,10.34893667602539
1789799590936890400,9.500890380859374,-0.5015852478027344,-7.315183897399902,10.75116255493164
1789799590946862300,9.5108623046875,-0.3371335212707519,-7.425616448974609,11.310059004974365
1789799590956833300,9.520833251953125,0.2914940521240234,-7.4134958030700675,12.082937228393554
1789799590966805500,9.530805419921874,0.8895955543518066,-7.267299864196777,12.147281398010254
1789799590976776400,9.5407763671875,0.4782417816162109,-7.336133161926269,10.480917042541503
1789799590986748400,9.55074853515625,0.14036007232666015,-6.815992851257324,7.8998180152893065
1789799590996719400,9.56071923828125,0.92565821685791,-4.974402861785888,6.58884296875
1789799591006690600,9.570690673828125,2.0374656127929685,-3.0309096641540525,5.65001664276123
1789799591016662300,9.580662353515624,2.0376152503967284,-2.5616461387634275,5.0435354347229
1789799591026633500,9.590633544921875,1.6367361099243163,-3.19850378036499,4.244171355438232
1789799591036605400,9.60060546875,1.8225860137939451,-3.0769980461120605,3.649960430908203
1789799591046576400,9.610576416015626,2.2200234893798827,-2.4971523315429685,3.146429894256592
1789799591056548400,9.62054833984375,1.6690578323364256,-1.6054618507385252,3.8660371307373045
1789799591066519600,9.63051953125,0.18420389022827147,-1.0423755477905272,5.703886180114746
1789799591076491300,9.6404912109375,-0.8007108177185058,-1.6795324645996093,6.606799481201172
1789799591086462500,9.65046240234375,-0.4565443290710449,-2.516904495239258,6.468683972930908
1789799591096434400,9.660434326171876,-0.7281365798950195,-2.487425887298584,6.575076309204102
1789799591106405400,9.6704052734375,-1.839345425415039,-2.2219687782287596,6.694636754608154
1789799591116377300,9.68037744140625,-2.0302830078125,-2.500145083618164,7.024737308502197
1789799591126348500,9.6903486328125,-1.1150994232177733,-3.632153556060791,6.259041690063476
1789799591136320300,9.7003203125,-0.5547065971374512,-4.363881438446045,5.5157917121887206
1789799591146291500,9.71029150390625,-0.006883329772949218,-3.3268928443908687,6.319644919586182
1789799591156262400,9.720262451171875,-0.36227263870239257,-2.0980688423156737,6.871957315063476
1789799591166234400,9.730234375,-0.3199251968383789,-2.056319950866699,5.834669445800781
1789799591176205300,9.740205322265625,0.04668693237304687,-2.7727847976684568,6.085910982513427
1789799591186177500,9.750177490234375,-0.5532102210998535,-3.2501287536621093,6.937199310302734
1789799591196148500,9.7601484375,-1.7203835304260253,-3.65819049911499,6.100874742889404
1789799591206120400,9.770120361328125,-2.2170307373046874,-3.443610175323486,6.138284143829345
1789799591216091400,9.78009130859375,-1.6231190879821777,-3.2857425033569334,6.375609383392334
1789799591226063600,9.790063720703126,-1.1749544647216796,-3.4056022239685055,5.961861408996581
1789799591236034300,9.800034423828125,-1.0224737464904785,-3.67719447479248,5.193173038482666
1789799591246006500,9.810006591796874,-0.6955155822753906,-3.770418701934814,3.9636008483886718
1789799591255977500,9.8199775390625,-0.5870283195495605,-3.644872752380371,2.912695957183838
1789799591265949400,9.829949462890625,0.07841010437011718,-3.151367935180664,2.75183553314209
1789799591275920400,9.83992041015625,0.021697452545166016,-2.2596774543762206,4.708796115112304
1789799591285892600,9.849892578125,-1.0995371124267577,-2.1561282325744626,5.855618710327148
1789799591295863300,9.85986328125,-1.6699556579589843,-3.1100679565429687,5.246294387817382
1789799591305834500,9.86983447265625,-1.211765315246582,-3.8967128395080564,5.344307018280029
1789799591315806500,9.879806396484375,-0.6878840644836426,-4.413112210083008,5.901108541870117
1789799591325777400,9.88977734375,-0.7959224143981933,-4.987421333312988,6.366631127166747
1789799591335749400,9.899749267578125,-0.6878840644836426,-5.709722046661376,6.742371150207519
1789799591345720600,9.909720458984374,-0.43020811080932614,-6.410923857879638,6.908468890380859
1789799591355692300,9.9196923828125,-0.003890577697753906,-6.9250786643981925,6.6437599693298335
1789799591365663500,9.92966357421875,0.6462848106384277,-7.442824773406982,6.397905386352539
1789799591375635500,9.939635498046876,0.7288847679138183,-7.522731253814697,7.358728440093993
1789799591385606400,9.9496064453125,0.16340426330566404,-7.388207048034667,9.515455223083496
1789799591395578400,9.959578369140624,0.2738368148803711,-7.434893980407715,11.72141277770996
1789799591405549600,9.969549560546875,1.3144167114257812,-7.752424975585937,12.342408833312987
1789799591415520500,9.9795205078125,1.6032172866821288,-8.078036401367187,12.598289135742187
1789799591425492500,9.989492431640626,1.2458826889038086,-8.355464518737792,14.033762668609619
1789799591435463400,9.99946337890625,1.126920793914795,-8.70816035079956,15.85934143447876
1789799591445435600,10.009435546875,1.1225813034057617,-8.573336869812012,16.683246080780027
1789799591455406300,10.01940625,0.5666776054382324,-7.717858689117431,15.828216812896727
1789799591465378600,10.029378662109375,0.5825391914367676,-6.1738978935241695,13.428179286193847
1789799591475349500,10.039349609375,0.6786065330505371,-5.2171150550842285,11.1596732131958
1789799591485321500,10.049321533203125,0.5451297904968262,-5.898265427398681,10.111312161254883
1789799591495292400,10.05929248046875,1.314566349029541,-7.060500695800781,9.739761991119384
1789799591505264600,10.0692646484375,1.7117045494079588,-8.390180442810058,9.322422714233397
1789799591515235300,10.0792353515625,1.9274819740295408,-9.151686208343506,8.706364699554443
1789799591525206300,10.089206298828126,2.3560440711975095,-8.859144692993164,8.313715627288818
1789799591535178500,10.099178466796875,2.4013842651367185,-8.06337191619873,8.335712355041503
1789799591545149400,10.1091494140625,1.7111059989929198,-7.555202613830566,8.128763549041748
1789799591555121400,10.119121337890626,0.6717232032775878,-7.299023036193847,7.952340814208984
1789799591565092400,10.12909228515625,0.35628713455200195,-6.663661770629883,7.944410021209716
1789799591575064300,10.139064208984376,-0.015263035583496093,-6.053439622497558,8.053196559143066
1789799591585035300,10.14903515625,-0.008678981018066407,-5.600187320709228,7.655459808349609
1789799591595007200,10.15900732421875,0.027832594299316404,-5.368099397277832,6.979995664978027
1789799591604978200,10.168978271484375,-0.6187514915466308,-4.991311911010742,6.922085912322998
1789799591614950100,10.1789501953125,-0.9424176284790039,-4.952256496429443,7.16360100479126
1789799591624921000,10.188921142578126,-0.8255506599426269,-5.703736542510986,7.447912451934814
1789799591634893000,10.19889306640625,-0.2786252182006836,-6.698527332305908,8.402899639129638
1789799591644864000,10.208864013671874,0.9530418983459472,-7.828740153503418,8.558073834228516
1789799591654835200,10.218835205078125,1.6353893714904784,-8.704718685913086,8.756044384002685
1789799591664807200,10.22880712890625,0.9917980377197265,-8.511985452270507,9.495104508972167
1789799591674778000,10.238778076171876,1.0718541557312011,-7.601590270996093,9.443180260467528
1789799591684750000,10.24875,1.8089689918518066,-7.143100653076171,8.035389684295653
1789799591694721300,10.25872119140625,1.0730512565612793,-6.832153712463379,6.816292126464844
1789799591704693000,10.26869287109375,-0.8752303443908691,-6.545747338867187,7.080851409912109
1789799591714664200,10.278664306640625,-1.552041226196289,-6.624905631256103,7.470657367706298
1789799591724636200,10.28863623046875,-0.8068459594726562,-7.167940495300293,7.301566875457763
1789799591734607000,10.298607177734375,0.16729484100341796,-7.625681925201415,7.296030284118652
1789799591744578000,10.308578125,-0.10983400115966796,-7.8399629737854,7.938873429870605
1789799591754550300,10.31855029296875,-1.026513961791992,-7.711274634552002,9.156923524475097
1789799591764521200,10.328521240234375,-0.6491279251098633,-7.849839055633544,9.607781624603271
1789799591774493200,10.3384931640625,0.06239888076782226,-8.239046463012695,9.564237081909178
1789799591784464100,10.348464111328125,0.601393529510498,-8.409034780883788,9.684396077728271
1789799591794436000,10.35843603515625,0.9919476753234863,-8.149413538360594,9.689034843444823
1789799591804407000,10.368406982421876,0.2570774032592773,-7.81437494354248,9.815029705810547
1789799591814379300,10.378379150390625,-0.8162731285095214,-7.4694602668762204,9.775824653625488
1789799591824350200,10.38835009765625,-1.2892775939941405,-6.871508402252197,8.479963005065917
1789799591834322200,10.398322265625,-0.97039986038208,-5.384110620880127,6.552630668640137
1789799591844293000,10.408293212890625,-0.613514175415039,-3.7011364913940428,5.965751986694335
1789799591854264300,10.418264404296876,-0.3924994346618652,-3.2894834434509277,5.785887586975098
1789799591864236000,10.428236083984375,-0.0383072265625,-3.7581484184265133,6.198588098144531
1789799591874207200,10.438207275390624,0.07841010437011718,-5.103689751434326,7.560439929962158
1789799591884179200,10.44817919921875,1.103876602935791,-7.102099949645996,9.137021723175048
1789799591894150100,10.458150146484375,2.8718448913574215,-8.76651901626587,11.200075366210937
1789799591904122000,10.4681220703125,3.7687726882934567,-9.166051418304443,13.339893099975585
1789799591914093300,10.47809326171875,2.3177368446350095,-7.957428492736816,14.30730020828247
1789799591924065000,10.48806494140625,0.5979518646240234,-6.383839451599121,13.32328332595825
1789799591934036200,10.4980361328125,-0.7573159126281738,-5.936572653961181,11.8997808013916
1789799591944008200,10.50800830078125,-1.490689808654785,-6.214449684143066,11.334449934387207
1789799591953979100,10.517979248046874,-1.5026608169555664,-6.299443843078613,10.985495042419434
1789799591963950000,10.5279501953125,-1.5212158798217772,-6.133795015716553,10.562768811798096
1789799591973922300,10.53792236328125,-0.14454992523193358,-6.083067868041992,9.696067810821532
1789799591983893200,10.547893310546876,1.8004396484374998,-5.912929912567138,8.854655564880371
1789799591993865200,10.557865234375,2.7540800971984862,-5.846041903686523,8.445995269012451
1789799592003836200,10.567836181640626,2.546832015991211,-5.680692351531982,9.09811594619751
1789799592013808000,10.57780810546875,0.9858125335693358,-4.7393221862792965,11.154435897064209
1789799592023779000,10.587779052734374,-1.3804068946838377,-4.320037620544434,12.174066529083252
1789799592033751300,10.597751220703126,-1.4674959800720213,-6.449231084442138,6.921936274719238
1789799592043722200,10.60772216796875,-0.07451952667236328,-6.627898383331298,2.1052514472961423
1789799592053694200,10.617694091796874,0.13976152191162108,-4.10500838394165,1.2741641960144041
1789799592063665200,10.6276650390625,0.09891045608520507,-1.9779098464965819,0.5111620544433594
1789799592073636000,10.637635986328124,-0.10459668502807616,-0.40566754379272457,0.2603694305419922
1789799592083608000,10.647608154296876,-0.601393529510498,0.6202478675842285,-0.015113397979736327
1789799592093579000,10.6575791015625,-1.2144587921142578,1.2629413757324217,-0.41195232315063474
1789799592103551200,10.66755126953125,-0.28520927276611324,0.7960720520019531,-0.38187516479492184
1789799592113522200,10.677522216796875,2.38118318862915,0.2485480598449707,0.8164227661132812
1789799592123494100,10.687494140625,3.3833062210083007,0.3796306007385254,4.66016389389038
1789799592133465000,10.697465087890626,4.469525586700439,-0.059256491088867186,10.682329257202149
1789799592143437000,10.70743701171875,2.044947492980957,-2.316689381408691,16.11372536087036
1789799592153408000,10.717407958984374,-4.094084838867187,-6.740874774169922,18.99873836135864
1789799592163379200,10.727379150390625,-4.521749110412597,-12.489652235412597,15.628300974273682
1789799592173351200,10.73735107421875,-0.17118541870117188,-15.288025063323973,12.159850956726073
1789799592183322000,10.747322021484376,-1.018882444000244,-12.20638825149536,13.404386907196043
1789799592193294300,10.75729443359375,-3.0665234138488766,-7.558644278717041,11.737872914123534
1789799592203265300,10.767265380859374,-1.3792097938537597,-5.974879880523681,7.341220840454101
1789799592213237200,10.7772373046875,-0.16011223602294922,-4.637269340515137,3.596390168762207
1789799592223208200,10.787208251953125,-0.2919429649353027,-2.8022634056091307,0.4483142608642578
1789799592233180200,10.79718017578125,0.2768295669555664,-0.8626607856750488,-1.031003089904785
1789799592243151000,10.807151123046875,0.5178957466125488,0.3103483901977539,-1.3028946159362793
1789799592253122000,10.8171220703125,0.18734627990722655,0.64478843460083,-1.4206594100952148
1789799592263094300,10.82709423828125,0.32022447204589843,0.5351040710449219,-1.6130933685302733
1789799592273065200,10.837065185546875,0.4004302276611328,0.4471171600341797,-0.43020811080932614
1789799592283037200,10.847037109375,-0.4492120864868164,0.08604162216186523,1.4692916313171387
1789799592293008100,10.857008056640625,-1.3263877197265623,-1.0078092613220215,2.75168589553833
1789799592302980000,10.86697998046875,-1.3519757499694824,-3.1575030769348142,2.05587103805542
1789799592312951000,10.876950927734375,-1.6786346389770508,-5.684882204437256,-0.11566986770629882
1789799592322923300,10.88692333984375,-0.9497498710632324,-7.473500482177734,-2.830844187927246
1789799592332894200,10.896894287109374,2.47710089263916,-8.03239693222046,-4.872499653625488
1789799592342865200,10.906865234375,8.177695045471191,-6.9521630706787105,-3.602076397705078
1789799592352837000,10.916837158203125,4.074781587982177,-3.451391330718994,5.804891562652587
1789799592362808300,10.926808349609376,-7.64812756576538,-2.3841759407043455,16.213533642578124
1789799592372780000,10.936780029296875,-8.5172227684021,-5.1702784851074215,25.616760662841795
1789799592382751200,10.946751220703124,-1.4969745880126952,-9.229198487091065,21.56592109146118
1789799592392723200,10.95672314453125,4.184166676330566,-9.05965908203125,28.90833903274536
1789799592402694100,10.966694091796874,4.958541275787353,-10.36779101409912,40.96179765319824
1789799592412666000,10.976666015625,1.0612298858642577,-15.7948476272583,39.84146091384888
1789799592422637300,10.98663720703125,-0.6367080039978027,-15.355810897827148,17.366790654754638
1789799592432608000,10.99660791015625,-1.2389993591308592,-8.754548007965088,4.37300933227539
1789799592442580200,11.006580322265625,-1.764676261138916,-6.570587181091308,2.1535843933105467
1789799592452551200,11.01655126953125,0.11671733093261719,-8.13968709411621,2.846855411529541
1789799592462523100,11.026523193359376,5.980266834259033,-10.52131919555664,3.065775225830078
1789799592472494000,11.036494140625,7.256525956726073,-10.428843156433105,2.4699182876586914
1789799592482466300,11.04646630859375,3.931428763580322,-8.31251852645874,2.781164503479004
1789799592492437200,11.056437255859375,1.1954548164367675,-6.448632534027099,2.571073307800293
1789799592502409200,11.0664091796875,-0.25423428878784177,-4.783764554595947,2.2445640563964844
1789799592512380200,11.076380126953126,0.3682581428527832,-3.5890579261779783,2.2581810783386227
1789799592522351400,11.086351318359375,2.7256489524841307,-3.4873043556213377,1.9596540588378906
1789799592532323000,11.096322998046874,3.6649241912841797,-3.762787184143066,1.5975310577392576
1789799592542294300,11.106294189453125,2.7916391357421872,-3.4223616355895996,0.8533832542419433
1789799592552266200,11.116266357421875,0.12090718383789062,-3.8908769729614257,2.136226431274414
1789799592562237200,11.1262373046875,-2.321477784729004,-5.954828441619873,6.437858626556396
1789799592572209200,11.136209228515625,-2.7884967460632324,-7.330147657775878,9.260023833465576
1789799592582180400,11.146180419921874,-2.9138930580139157,-8.149114263153075,10.11894367904663
1789799592592152600,11.156152587890626,-2.1148282539367673,-8.792855234527588,10.941501586914061
1789799592602123500,11.16612353515625,-0.09127893829345703,-9.285013313293456,11.28716445159912
1789799592612094700,11.1760947265625,1.8198925369262695,-8.838195428466797,11.638064632415771
1789799592622066400,11.18606640625,2.855684030151367,-7.586327235412597,10.98788924407959
1789799592632037600,11.19603759765625,2.4980501571655274,-6.385186190032958,8.377610884094238
1789799592642009600,11.206009521484376,1.228973639678955,-5.66946953125,5.824344451141357
1789799592651980500,11.21598046875,-0.28221652069091796,-5.998073709106445,4.489577025604248
1789799592661952500,11.225952392578124,-0.9310451705932616,-7.237970893859863,4.417601338195801
1789799592671923700,11.235923828125,-1.2695254302978516,-7.697358337402343,5.621435860443115
1789799592681895400,11.2458955078125,-2.186504666137695,-7.601290995788574,7.9855603622436515
1789799592691866600,11.25586669921875,-2.731335181427002,-7.901464028930664,10.000580334472655
1789799592701837600,11.265837646484375,-4.2509050476074215,-7.69945326385498,12.715455379486084
1789799592711809500,11.2758095703125,-3.9790135215759275,-6.887968538665771,13.81529176712036
1789799592721780500,11.285780517578125,-0.7056909393310546,-5.742193406677246,13.808109162139893
1789799592731752700,11.295752685546875,2.5986066268920895,-4.011484881591796,14.131326386260985
1789799592741723600,11.3057236328125,3.4783260993957517,-3.359364204406738,13.873800070190429
1789799592751695600,11.315695556640625,3.1658827827453613,-3.660135787963867,12.55160220336914
1789799592761666600,11.32566650390625,2.990806786346435,-4.7248073387146,11.310956830596924
1789799592771638500,11.335638427734375,3.427748589324951,-6.7556888969421385,11.04505080871582
1789799592781609500,11.345609375,3.2185552192687985,-8.949226530456542,11.164910529327392
1789799592791580400,11.355580322265626,2.291550263977051,-11.923872455596923,11.499350573730467
1789799592801552600,11.365552734375,0.7564180870056152,-14.709077174377441,12.809876707458494
1789799592811523300,11.3755234375,0.9265560424804687,-15.471480765533446,14.286799856567383
1789799592821495600,11.38549560546875,2.405574118041992,-14.80439632797241,14.892682514190673
1789799592831466500,11.395466552734375,1.7079636093139647,-14.40845522842407,15.496619882965087
1789799592841438500,11.4054384765625,0.27787703018188475,-14.431798694610595,13.672836768341064
1789799592851409400,11.415409423828125,0.3987842140197754,-13.848960227966307,9.528024781799315
1789799592861380600,11.425380615234374,0.2587234169006348,-11.985672785949706,6.4558151390075675
1789799592871352300,11.435352294921875,-1.2153566177368162,-9.771485163116454,5.415235242462158
1789799592881323500,11.445323486328125,-2.4084172325134277,-7.33553461151123,5.266495464324951
1789799592891295500,11.45529541015625,-2.6090812591552734,-5.325751955413818,4.945073891448974
1789799592901266700,11.4652666015625,-2.605938869476318,-3.930680575561523,4.433762199401855
1789799592911238400,11.47523828125,-1.927332336425781,-2.8311434631347656,3.77954659576416
1789799592921209600,11.485209716796875,-0.7573159126281738,-2.0163667106628416,3.3131261848449705
1789799592931180500,11.4951806640625,0.1671452033996582,-1.645864003753662,2.9740473747253415
1789799592941152500,11.505152587890626,1.265934127807617,-1.5828665725708007,2.9707553474426267
1789799592951123500,11.51512353515625,2.279878530883789,-1.6792331893920898,3.4204163467407223
1789799592961095700,11.525095703125,2.7817630538940428,-1.8800468536376953,4.57097988204956
1789799592971066400,11.53506640625,3.214515003967285,-2.5374048469543458,5.842899514007568
1789799592981038600,11.54503857421875,3.5283050590515135,-2.8565818557739258,7.288099491119384
1789799592991009500,11.555009521484376,3.752761464691162,-2.1836615516662596,8.333018878173828
1789799593000981500,11.5649814453125,2.8974329216003416,-1.7521067024230956,8.657882115936278
1789799593010952400,11.574952392578124,-0.3404255485534668,-2.7858032691955565,9.571419686889648
1789799593020923600,11.584923583984375,-0.6049848320007324,-4.37300933227539,12.101941204071045
1789799593030895400,11.594895263671875,0.11776479415893554,-5.91831686630249,15.629797350311279
1789799593040866600,11.604866455078126,-2.152387292480469,-7.2653545753479,18.96761373977661
1789799593050838500,11.614838623046875,-4.342632898712158,-8.054393659973144,19.129222351837157
1789799593060809700,11.624809814453124,-1.4321815055847167,-7.868094843292236,14.986804566955566
1789799593070781400,11.634781494140626,1.9211971946716306,-7.522132703399658,10.21441247024536
1789799593080752600,11.644752685546875,1.2288240020751953,-6.604255641937256,8.486247784423828
1789799593090723600,11.6547236328125,-1.5159785636901855,-6.5391632843017575,7.429357389068603
1789799593100695600,11.664695556640625,1.9533692794799804,-8.49163473815918,5.129128144073486
1789799593110666500,11.67466650390625,6.508038662719726,-9.842563024902343,3.3366192886352537
1789799593120638700,11.684638671875,4.9163434715270995,-7.618349682617187,3.847182792663574
1789799593130609400,11.694609375,1.0992378372192382,-5.159354940032959,2.9508535461425778
1789799593140581600,11.70458154296875,-0.19602526092529296,-4.331110803222656,0.33533787002563475
1789799593150552600,11.714552490234375,0.7133224571228027,-2.7760768249511716,-1.7009306419372558
1789799593160523800,11.724523681640624,0.49155952835083006,-0.668431175994873,-1.228973639678955
1789799593170495500,11.73449560546875,-1.1390414398193358,0.8602665840148925,0.5895721588134766
1789799593180466700,11.744466796875,-2.6982652709960937,0.46252983322143554,1.8567033874511718
1789799593190438400,11.7544384765625,-3.1016882507324217,-0.9935936889648437,2.180369524383545
1789799593200409600,11.76440966796875,-1.403899998474121,-2.3505074798583983,1.5879542510986326
1789799593210381600,11.774381591796875,2.0459949562072755,-3.7693712387084957,-0.009726444244384765
1789799593220352800,11.784352783203126,-0.003591302490234375,-2.2234651542663575,5.383063157653808
1789799593230323500,11.794323486328125,-3.2357635437011716,-0.5475239921569824,10.67379991378784
1789799593240295700,11.804295654296874,-4.855889879608154,-0.9838672447204589,13.54190386505127
1789799593250266600,11.8142666015625,-1.0402806213378906,-4.4930186904907226,12.553098579406738
1789799593260238600,11.824238525390625,1.4651017784118652,-6.385784740447997,6.937797860717773
1789799593270209500,11.83420947265625,-1.7812860351562498,-4.293102851867675,6.981791316223144
1789799593280181800,11.844181640625,-1.5487491989135742,-4.106804035186768,5.5549967643737785
1789799593290152400,11.85415234375,-0.8684966522216796,-4.509329189300537,2.4199393280029295
1789799593300124700,11.864124755859375,-0.41060558471679687,-3.858704888153076,0.4421791191101074
1789799593310095600,11.874095703125,0.30750527572631836,-2.612074011230469,0.8038532073974609
1789799593320066600,11.884066650390626,0.16011223602294922,-1.4597148246765135,3.1572038017272948
1789799593330038500,11.89403857421875,0.29074586410522457,-0.8072948722839355,5.059845933532714
1789799593340009500,11.904009521484374,0.8876502655029296,-0.928950244140625,5.843348426818848
1789799593349981400,11.9139814453125,1.2514192802429198,-1.4342764320373533,6.476465128326415
1789799593359952400,11.923952392578125,0.021098902130126954,-2.6454431968688965,7.751676787567138
1789799593369924600,11.933924560546876,0.5687725318908691,-4.298190530395508,9.4098110748291
1789799593379895600,11.9438955078125,1.2879308555603026,-5.9682958259582515,11.95095686187744
1789799593389866500,11.953866455078124,0.023792378997802732,-7.34211866607666,14.879065492248534
1789799593399838500,11.96383837890625,-1.0975918235778808,-9.44183352203369,16.217723495483398
1789799593409809700,11.9738095703125,-0.45025954971313475,-13.06874976196289,15.57158832244873
1789799593419781400,11.983781494140626,1.643320164489746,-13.779079467010497,14.233379232025145
1789799593429752600,11.993752685546875,1.060481697845459,-11.553818661499022,11.73488016204834
1789799593439724500,12.003724609375,0.6694786392211913,-8.30518628387451,8.03134946899414
1789799593449695500,12.013695556640625,1.0793360359191895,-5.748627823638916,6.147262400054931
1789799593459666400,12.02366650390625,0.6423942329406738,-4.650587087249756,5.639093097686767
1789799593469638700,12.033638671875,0.448164623260498,-4.648492160797119,6.088005908966064
1789799593479609600,12.043609619140625,0.8245031967163086,-5.108029241943359,6.441150653839111
1789799593489581600,12.05358154296875,1.5770307060241697,-5.140051689147949,5.8277861160278315
1789799593499552500,12.063552490234375,1.6958429634094236,-4.925471365356445,5.351938536071777
1789799593509524500,12.0735244140625,1.319055477142334,-5.162946242523193,6.3055789848327635
1789799593519495400,12.083495361328126,1.1662754837036131,-6.400598863220215,8.377461246490478
1789799593529466600,12.093466552734375,0.8010100929260253,-8.77834038696289,11.234791290283203
1789799593539438600,12.1034384765625,0.3420715621948242,-11.226561222076416,12.616245648193358
1789799593549409500,12.113409423828125,1.07245270614624,-11.84950256652832,11.96322714538574
1789799593559381500,12.123381591796875,1.340004741668701,-10.14498062210083,10.432733734130858
1789799593569352700,12.133352783203126,-0.6133645378112793,-7.433846517181396,8.219743212127685
1789799593579324400,12.143324462890625,-2.6349685646057126,-5.389796849822997,6.366631127166747
1789799593589295600,12.153295654296874,-2.7349264839172363,-4.198831161499023,5.769128175354004
1789799593599266600,12.1632666015625,-0.8661024505615234,-3.844638953399658,5.721992330169678
1789799593609238300,12.17323828125,-0.04833294601440429,-4.981286191558838,5.959467207336425
1789799593619209500,12.18320947265625,0.04773439559936523,-7.171082884979247,7.470058817291259
1789799593629181400,12.193181396484375,1.6220716247558593,-10.383203687286377,9.311499169158935
1789799593639152600,12.203152587890624,4.29669415435791,-14.02014564666748,11.687594679260254
1789799593649124400,12.213124267578126,4.458003491210937,-13.851952980041503,13.849409140777587
1789799593659095600,12.223095458984375,2.7377695983886716,-9.495852696990966,13.676428070831298
1789799593669066500,12.23306640625,0.10354922180175781,-6.459406441497802,12.639738751983641
1789799593679038500,12.24303857421875,-1.6106991668701172,-5.430947190856934,11.845761626434326
1789799593689009400,12.253009521484374,-0.6968623207092285,-5.223250196838379,11.143063439178466
1789799593698981600,12.262981689453126,0.37828386230468747,-6.028899055480957,9.97783541870117
1789799593708952300,12.272952392578125,0.21951836471557615,-6.348524977111816,8.97047507019043
1789799593718923500,12.282923583984376,0.06419453201293945,-6.583755290222167,7.823652474975585
1789799593728895500,12.2928955078125,0.041748891448974604,-7.491606632232665,6.291213774871826
1789799593738866700,12.30286669921875,-0.9464578437805176,-8.551489779663086,6.137535955810547
1789799593748838400,12.31283837890625,-1.3344681503295899,-9.285013313293456,6.60141252746582
1789799593758809600,12.3228095703125,0.36212300109863277,-9.802609784698486,6.552331393432617
1789799593768781300,12.33278125,2.574814247894287,-9.401132093811034,6.516717643737793
1789799593778752500,12.34275244140625,3.437325395965576,-7.613561279296874,6.694936029815674
1789799593788723500,12.352723388671874,2.956539775085449,-5.57953733139038,6.60141252746582
1789799593798695700,12.36269580078125,1.689258908843994,-4.2411786033630365,5.852326683044433
1789799593808666400,12.372666259765625,0.5149029945373534,-3.6725557090759273,4.613776236724854
1789799593818638600,12.382638671875,0.5048772750854492,-3.842693664550781,3.1865327720642087
1789799593828609500,12.392609619140625,0.621145693206787,-4.391265119934082,2.56014976272583
1789799593838581500,12.40258154296875,-0.6144120010375976,-5.2253451232910155,4.198681523895264
1789799593848552400,12.412552490234376,-2.0892402236938477,-6.406734004974365,7.519888139343261
1789799593858523400,12.4225234375,-2.07487501373291,-8.071302709197997,10.66856259765625
1789799593868495400,12.432495361328124,-0.08738836059570312,-9.182810829925536,13.712041820526123
1789799593878466300,12.44246630859375,1.9683330398559569,-8.700678470611571,16.287454618835447
1789799593888438500,12.4524384765625,1.4405612113952635,-7.937377053833007,17.26339107055664
1789799593898409500,12.462409423828126,-0.3167828071594238,-7.350797647094726,15.429582236480712
1789799593908381400,12.47238134765625,-1.1119570335388183,-6.5312324913024895,9.957933617401123
1789799593918352400,12.482352294921874,-1.1278186195373534,-4.707599014282226,7.144746666717529
1789799593928323600,12.492323486328125,-1.5108908851623535,-3.5550901901245116,7.04838004989624
1789799593938295300,12.50229541015625,-2.179621336364746,-3.6477158668518066,7.218667642974853
1789799593948266500,12.5122666015625,-2.1193173820495605,-4.525490050506591,7.759457942962646
1789799593958238500,12.522238525390625,-0.47105917663574215,-6.115838503265381,7.8249992134094235
1789799593968209400,12.53220947265625,1.7682675636291503,-8.11514652709961,7.454646144104004
1789799593978180400,12.542180419921875,3.2365117317199705,-9.49914472427368,7.025934409332275
1789799593988152600,12.552152587890625,2.5781062751770016,-9.515904135894775,7.036857954406738
1789799593998123500,12.56212353515625,0.1785176612854004,-8.097788565063476,7.182156067657471
1789799594008095500,12.572095458984375,-0.953191535949707,-6.636427726745605,6.681169370269775
1789799594018066400,12.58206640625,-0.46731823654174803,-5.7891796142578125,5.98834726486206
1789799594028038400,12.592038330078125,-0.18180968856811522,-5.147982482147216,5.616048906707763
1789799594038009300,12.60200927734375,-0.41404724960327144,-4.422838654327393,5.752817676544189
1789799594047980500,12.61198046875,-0.4469675224304199,-3.8607998146057128,6.874201879119872
1789799594057952500,12.621952392578125,0.33010055389404297,-3.7823897102355954,9.375095150756835
1789799594067923500,12.63192333984375,1.0476128639221192,-4.467729935455322,12.433388496398925
1789799594077895400,12.6418955078125,0.8511386901855468,-5.779153894805908,14.731522814941405
1789799594087866600,12.65186669921875,-0.09950900650024413,-7.229890463256836,16.02903047714233
1789799594097838300,12.66183837890625,-0.833182177734375,-8.01863027267456,14.663138430023192
1789799594107809500,12.6718095703125,-0.4312555740356445,-7.1136220451354975,11.359589051818848
1789799594117780500,12.681780517578124,-0.09442132797241211,-5.47149898147583,9.962572383117676
1789799594127752400,12.69175244140625,-0.3298012786865234,-5.258265396118164,8.629301333618164
1789799594137723400,12.701723388671875,-0.7342717216491699,-5.219209981536865,7.291840431213378
1789799594147695600,12.711695556640626,-0.30690672531127927,-4.536712870788574,6.81180299835205
1789799594157666600,12.72166650390625,1.2392986343383787,-3.7859810127258298,6.1188312553405755
1789799594167637200,12.73163720703125,2.4727614021301267,-3.046322337341308,5.335927312469482
1789799594177609500,12.741609375,2.409464695739746,-2.685396437072754,4.559757061767578
