time,seconds_elapsed,z,y,x
1789799581480187600,0.044187744140625,-0.5850948691368103,-1.404450535774231,-0.49566274881362915
1789799581490159600,0.05415966796875,-0.5947227478027344,-1.2162374258041382,-0.649070143699646
1789799581500130600,0.064130615234375,-0.5676347017288208,-1.1130183935165405,-0.7832511067390442
1789799581510102500,0.0741025390625,-0.5166966319084167,-0.8835548162460327,-0.8621525764465332
1789799581520073700,0.08407373046875,-0.36488208174705505,-0.396369993686676,-1.0006282329559326
1789799581530044700,0.094044677734375,-0.1049804762005806,0.306790828704834,-1.2894418239593506
1789799581540016600,0.1040166015625,0.161465585231781,0.8427477478981018,-1.5553086996078491
1789799581549987600,0.113987548828125,0.4549717605113983,1.1013294458389282,-1.744201898574829
1789799581559959600,0.12395947265625,0.6934674382209778,1.345137357711792,-1.8649147748947144
1789799581569930500,0.133930419921875,0.9183740615844727,1.6781158447265625,-1.9171020984649658
1789799581579902700,0.14390283203125,1.1837037801742554,2.0611555576324463,-1.878082513809204
1789799581589873700,0.153873779296875,1.4821572303771973,2.435560941696167,-1.7479755878448486
1789799581599845600,0.163845703125,1.7402220964431763,2.7143757343292236,-1.5572291612625122
1789799581609816600,0.173816650390625,1.8747162818908691,2.844789505004883,-1.3149595260620117
1789799581619788500,0.18378857421875,1.7722461223602295,2.8707587718963623,-1.0480026006698608
1789799581629759500,0.193759521484375,1.369507908821106,2.8216638565063477,-0.739774227142334
1789799581639730700,0.203730712890625,0.8537327647209167,2.6394286155700684,-0.3333294987678528
1789799581649703000,0.213702880859375,0.3517705500125885,2.5149178504943848,0.21571071445941925
1789799581659673600,0.223673583984375,-0.08384989202022552,2.40303897857666,0.8839449882507324
1789799581669645800,0.233645751953125,-0.431641161441803,2.0031628608703613,1.5983914136886597
1789799581679616800,0.24361669921875,-0.7545906901359558,1.2425918579101562,2.223322868347168
1789799581689588700,0.253588623046875,-0.8978394865989685,-0.11850187927484512,2.6064112186431885
1789799581699559700,0.2635595703125,-1.165379285812378,-2.10333514213562,2.531771421432495
1789799581709532000,0.273531982421875,-1.718262791633606,-4.886263370513916,1.9532454013824463
1789799581719502600,0.283502685546875,-2.0038251876831055,-6.285158157348633,1.7461532354354858
1789799581729474800,0.293474853515625,-2.146056890487671,-7.147833824157715,1.70954430103302
1789799581739445800,0.30344580078125,-2.263920307159424,-8.368372917175293,1.3558491468429565
1789799581749416700,0.313416748046875,-2.2063581943511963,-9.858502388000488,0.4774150252342224
1789799581759388700,0.323388671875,-2.5277557373046875,-7.481343746185303,-0.8808924555778503
1789799581769359600,0.333359619140625,-2.7042183876037598,-5.451487064361572,-1.1493817567825317
1789799581779331600,0.34333154296875,-2.6825506687164307,-3.7935454845428467,-1.2413699626922607
1789799581789302500,0.353302490234375,-2.5153708457946777,-2.3839268684387207,-1.1765962839126587
1789799581799274800,0.363274658203125,-2.2812845706939697,-1.2019448280334473,-0.9838337302207947
1789799581809245700,0.37324560546875,-1.5267060995101929,-0.5171523094177246,-0.6493889093399048
1789799581819217700,0.3832177734375,-0.07538583129644394,-0.4635937511920929,-0.18465960025787354
1789799581829188600,0.393188720703125,0.8378051519393921,-0.5614244341850281,0.08838073164224625
1789799581839160600,0.40316064453125,0.927472710609436,-1.196457862854004,0.2264765501022339
1789799581849131500,0.413131591796875,0.7693188190460205,-1.761829137802124,0.4552503526210785
1789799581859103700,0.423103759765625,0.6584716439247131,-2.0892648696899414,0.7777215838432312
1789799581869074700,0.43307470703125,0.6652605533599854,-2.321673631668091,1.0575921535491943
1789799581879045600,0.443045654296875,0.7542546391487122,-2.2422122955322266,1.2268009185791016
1789799581889017600,0.453017578125,0.8787864446640015,-2.1162047386169434,1.2823336124420166
1789799581898988800,0.46298876953125,0.9959545731544495,-2.086148262023926,1.2907028198242188
1789799581908960500,0.47296044921875,1.2570980787277222,-2.311675786972046,1.3017762899398804
1789799581918931700,0.482931640625,1.6797581911087036,-2.6756515502929688,1.3403396606445312
1789799581928903700,0.492903564453125,2.0746355056762695,-2.9414689540863037,1.4055240154266357
1789799581938874600,0.50287451171875,2.108642578125,-2.946438789367676,1.4022760391235352
1789799581948846600,0.5128466796875,1.4883885383605957,-2.5292420387268066,1.148099660873413
1789799581958817800,0.52281787109375,0.6226771473884583,-1.9244734048843384,0.5089612603187561
1789799581968789500,0.53278955078125,0.5314385890960693,-1.6158255338668823,-0.17893671989440918
1789799581978760700,0.5427607421875,1.012190341949463,-1.2919681072235107,-0.5945879817008972
1789799581988731600,0.552731689453125,1.3835856914520264,-0.7658465504646301,-0.7811301946640015
1789799581998703600,0.56270361328125,1.5649170875549316,-0.47943076491355896,-0.7947319746017456
1789799582008674600,0.572674560546875,1.6159230470657349,-0.6033652424812317,-0.6576250195503235
1789799582018646800,0.582646728515625,1.5680444240570068,-0.938896656036377,-0.3543674051761627
1789799582028617700,0.59261767578125,1.507716178894043,-1.4173601865768433,0.11129243671894073
1789799582038589700,0.602589599609375,1.5040847063064575,-1.9642953872680664,0.6363929510116577
1789799582048560600,0.612560546875,1.5980808734893799,-2.4938015937805176,1.0915857553482056
1789799582058532600,0.62253271484375,1.794870138168335,-2.9267663955688477,1.2862356901168823
1789799582068503600,0.632503662109375,2.1155893802642822,-3.3326778411865234,1.2237966060638428
1789799582078475800,0.642475830078125,2.413283586502075,-3.5406904220581055,1.0944825410842896
1789799582088446700,0.65244677734375,2.6042745113372803,-3.54187273979187,1.0684561729431152
1789799582098417700,0.662417724609375,2.77107572555542,-3.573867082595825,1.1717288494110107
1789799582108389600,0.6723896484375,2.9234988689422607,-3.8751325607299805,1.3589909076690674
1789799582118360800,0.68236083984375,3.0362191200256348,-4.297516345977783,1.606129765510559
1789799582128332500,0.69233251953125,3.2053420543670654,-4.695940017700195,1.8073047399520874
1789799582138303700,0.7023037109375,3.444655179977417,-5.049299716949463,1.9407743215560913
1789799582148275700,0.712275634765625,3.7593374252319336,-4.9439802169799805,1.9711066484451294
1789799582158246700,0.72224658203125,4.094130516052246,-4.450746059417725,1.847014307975769
1789799582168218600,0.732218505859375,4.342233657836914,-3.800112724304199,1.6451025009155273
1789799582178189800,0.74218994140625,4.528774738311768,-3.2655279636383057,1.4148809909820557
1789799582188161500,0.75216162109375,4.716310024261475,-2.9577577114105225,1.1463541984558105
1789799582198132700,0.7621328125,4.821486949920654,-2.930598020553589,0.8859015703201294
1789799582208104700,0.772104736328125,4.936672687530518,-3.1107492446899414,0.6710923314094543
1789799582218075600,0.78207568359375,5.048008918762207,-3.2576353549957275,0.5123322606086731
1789799582228047600,0.792047607421875,5.056680202484131,-3.2719714641571045,0.4227014482021332
1789799582238018800,0.802018798828125,5.048297882080078,-3.392418622970581,0.25577157735824585
1789799582247989800,0.81198974609375,5.25342321395874,-3.425487995147705,-0.057795654982328415
1789799582257961700,0.821961669921875,5.517606258392334,-3.1116766929626465,-0.3575621247291565
1789799582267932700,0.8319326171875,5.443521499633789,-2.2965807914733887,-0.6652371287345886
1789799582277904600,0.841904541015625,5.416235446929932,-1.450713038444519,-1.0982064008712769
1789799582287875600,0.85187548828125,5.389452934265137,-0.9740633964538574,-1.5306270122528076
1789799582297847800,0.861847900390625,5.3371148109436035,-0.6210012435913086,-1.6796573400497437
1789799582307818800,0.87181884765625,5.3552985191345215,-0.03110412321984768,-1.4209327697753906
1789799582317790700,0.881790771484375,5.284345626831055,0.40130001306533813,-1.0169296264648438
1789799582327761700,0.89176171875,5.258511066436768,0.6671457886695862,-0.5595128536224365
1789799582337733600,0.901733642578125,4.8984832763671875,1.080285668373108,-0.1043383926153183
1789799582347704600,0.91170458984375,4.130524635314941,0.7415348291397095,0.24438923597335815
1789799582357675500,0.921675537109375,3.438103675842285,0.6636759638786316,0.7421846389770508
1789799582367647700,0.931647705078125,2.7938103675842285,0.9147782325744629,1.179490327835083
1789799582377618400,0.941618408203125,2.212005615234375,0.8027297258377075,1.4299284219741821
1789799582387590700,0.951590576171875,1.4458013772964478,0.5436350703239441,1.7053415775299072
1789799582397561600,0.9615615234375,0.6673578023910522,-0.40503671765327454,1.9113919734954834
1789799582407533600,0.971533447265625,0.48744291067123413,1.3504998683929443,0.900187611579895
1789799582417504800,0.9815048828125,0.33812984824180603,2.609881639480591,-0.8526488542556763
1789799582427476700,0.991476806640625,-0.222696453332901,2.858577251434326,-1.7064471244812012
1789799582437447700,1.00144775390625,-0.7093998193740845,2.2834553718566895,-1.6164194345474243
1789799582447419600,1.011419677734375,-1.197113037109375,0.9929108619689941,-1.3047707080841064
1789799582457390800,1.021390869140625,-1.7568546533584595,-0.3140266239643097,-0.7506558895111084
1789799582467361800,1.03136181640625,-2.3372256755828857,-0.8582444190979004,-0.08997462689876556
1789799582477333800,1.041333740234375,-2.6227781772613525,-1.979057788848877,0.783409059047699
1789799582487304700,1.0513046875,-2.488569498062134,-2.997316360473633,0.9323380589485168
1789799582497276700,1.061276611328125,-2.391343593597412,-3.3200855255126953,0.8016461133956909
1789799582507247600,1.07124755859375,-2.6866049766540527,-3.510755777359009,0.938075065612793
1789799582517219800,1.0812197265625,-3.235820770263672,-3.780512571334839,1.0586150884628296
1789799582527190800,1.091190673828125,-3.6596198081970215,-3.9726781845092773,1.1381902694702148
1789799582537162800,1.101162841796875,-4.001352787017822,-3.9087975025177,1.0837193727493286
1789799582547133700,1.1111337890625,-4.037370681762695,-3.562030076980591,0.9514797925949097
1789799582557105700,1.121105712890625,-3.909377336502075,-3.055593490600586,0.8398651480674744
1789799582567076600,1.13107666015625,-3.8518919944763184,-2.659043073654175,0.7246211171150208
1789799582577048800,1.141048828125,-3.9061074256896973,-2.291433811187744,0.7762022614479065
1789799582587019800,1.151019775390625,-4.067475318908691,-1.9992547035217285,0.7333541512489319
1789799582596990500,1.160990478515625,-4.369657039642334,-1.767128586769104,0.5313704013824463
1789799582606962700,1.170962646484375,-4.209258556365967,-1.7210692167282104,0.24854031205177307
1789799582616933600,1.18093359375,-3.623483419418335,-1.6095460653305054,-0.047145143151283264
1789799582626905600,1.190905517578125,-3.0145223140716553,-1.7966022491455078,-0.007692008279263973
1789799582636876500,1.20087646484375,-2.307107925415039,-1.9216971397399902,0.20859315991401672
1789799582646848800,1.210848876953125,-1.825278401374817,-1.6562601327896118,0.2702197730541229
1789799582656819500,1.2208193359375,-1.7475415468215942,-1.198184609413147,0.11151933670043945
1789799582666791700,1.230791748046875,-1.7543905973434448,-1.016598105430603,-0.1233283281326294
1789799582676762600,1.2407626953125,-1.6785962581634521,-0.9511657953262329,-0.27523529529571533
1789799582686734600,1.250734619140625,-1.3958359956741333,-0.913123369216919,-0.42218053340911865
1789799582696705500,1.26070556640625,-0.9506728649139404,-0.9553909301757812,-0.605591356754303
1789799582706677800,1.270677734375,-0.6548712849617004,-0.8442375063896179,-0.8045049905776978
1789799582716648700,1.280648681640625,-0.4860450029373169,-0.37508678436279297,-0.8109647631645203
1789799582726619600,1.29061962890625,-0.2666032016277313,-0.467244416475296,-0.7944180369377136
1789799582736591600,1.300591552734375,0.05381396412849426,-0.055147141218185425,-0.7347040772438049
1789799582746562800,1.310562744140625,0.25400882959365845,0.31721097230911255,-0.8360030055046082
1789799582756534500,1.320534423828125,0.4479932188987732,0.7876911163330078,-1.2283066511154175
1789799582766505700,1.330505615234375,0.6686752438545227,0.534527063369751,-1.5177890062332153
1789799582776477700,1.340477783203125,0.9879989624023438,0.5777413845062256,-1.477167010307312
1789799582786448600,1.35044873046875,1.295162320137024,0.7248535752296448,-1.6197595596313477
1789799582796420600,1.360420654296875,1.4755866527557373,0.7346558570861816,-1.8814897537231445
1789799582806391800,1.370391845703125,1.5319600105285645,0.9841898083686829,-2.125916004180908
1789799582816363500,1.380363525390625,1.6273990869522095,1.3150827884674072,-2.187497854232788
1789799582826334700,1.390334716796875,1.7765129804611206,1.6591222286224365,-1.8829286098480225
1789799582836306700,1.400306640625,2.0193798542022705,1.6479710340499878,-1.5944619178771973
1789799582846277600,1.410277587890625,2.033914804458618,1.4168757200241089,-1.439650058746338
1789799582856248600,1.42024853515625,2.180882692337036,1.7083461284637451,-1.4344760179519653
1789799582866220800,1.430220703125,2.502382516860962,2.3349928855895996,-1.533367395401001
1789799582876191700,1.440191650390625,2.608379364013672,2.6796677112579346,-1.423433780670166
1789799582886163700,1.450163818359375,2.735098123550415,2.950200319290161,-1.3447258472442627
1789799582896134700,1.460134765625,2.882124662399292,3.2374322414398193,-1.2895561456680298
1789799582906106600,1.470106689453125,3.201140880584717,3.9408950805664062,-1.5560994148254395
1789799582916077600,1.48007763671875,3.9580798149108887,4.471615791320801,-1.8687033653259277
1789799582926049800,1.4900498046875,4.43563985824585,4.318183422088623,-1.760481834411621
1789799582936020700,1.500020751953125,4.6944193840026855,3.3713109493255615,-1.4550457000732422
1789799582945992700,1.50999267578125,4.475198268890381,3.357084274291992,-1.111793041229248
1789799582955963600,1.519963623046875,3.506078004837036,2.382220983505249,-0.9778778553009033
1789799582965935600,1.529935546875,2.8922626972198486,1.350824236869812,-0.7518428564071655
1789799582975906600,1.539906494140625,2.551579236984253,1.3586164712905884,-0.6851924657821655
1789799582985878800,1.549878662109375,2.3247718811035156,1.7883267402648926,-0.660119354724884
1789799582995849700,1.559849609375,2.0598881244659424,2.207430839538574,-0.6314743757247925
1789799583005820700,1.569820556640625,1.7256572246551514,2.26129412651062,-0.640774130821228
1789799583015792600,1.579792724609375,1.4451284408569336,2.093102216720581,-0.5101388692855835
1789799583025763800,1.589763916015625,1.1742585897445679,1.6618762016296387,-0.16134148836135864
1789799583035735600,1.599735595703125,0.8668967485427856,1.166851282119751,0.2612779438495636
1789799583045706800,1.609706787109375,0.4824042022228241,0.7885848879814148,0.5404493808746338
1789799583055678700,1.6196787109375,0.3087221384048462,0.7556727528572083,0.49920421838760376
1789799583065649700,1.629649658203125,0.3000282645225525,1.0242557525634766,0.157578706741333
1789799583075621600,1.63962158203125,0.15645138919353485,1.2333208322525024,-0.37595099210739136
1789799583085592800,1.6495927734375,-0.13502173125743866,1.215576171875,-0.8506922125816345
1789799583095564500,1.659564453125,-0.5010977387428284,1.0216740369796753,-1.1234641075134277
1789799583105535700,1.66953564453125,-0.6406380534172058,0.3021950125694275,-1.3850488662719727
1789799583115507700,1.6795078125,0.2922654151916504,-1.4172980785369873,-1.8829014301300049
1789799583125478700,1.689478759765625,2.124746322631836,-3.165715456008911,-2.3334295749664307
1789799583135449600,1.69944970703125,2.7059202194213867,-2.9767277240753174,-2.387220859527588
1789799583145421800,1.709421875,2.4160962104797363,-1.699755311012268,-1.8883169889450073
1789799583155392800,1.719392822265625,1.578715443611145,0.8341816663742065,-1.4126026630401611
1789799583165364700,1.72936474609375,0.8583200573921204,1.079231858253479,-0.8451525568962097
1789799583175335700,1.739335693359375,0.7750608325004578,0.770941972732544,0.07264970242977142
1789799583185307600,1.7493076171875,1.0034455060958862,0.752623438835144,0.7396844625473022
1789799583195278600,1.759278564453125,1.1663622856140137,0.4838162064552307,0.8941217064857483
1789799583205250800,1.769250732421875,1.264798879623413,0.05992512032389641,0.6980206370353699
1789799583215221800,1.7792216796875,1.3352620601654053,-0.16425472497940063,0.3783222734928131
1789799583225193700,1.78919384765625,1.3626151084899902,-0.014021542854607105,0.0862475335597992
1789799583235164700,1.79916455078125,1.2236415147781372,0.21835923194885254,-0.11981961131095886
1789799583245136600,1.80913671875,0.8695545792579651,0.2906576693058014,-0.2278728485107422
1789799583255107600,1.819107666015625,0.6478405594825745,0.27655887603759766,-0.2580762803554535
1789799583265079800,1.829079833984375,0.684186577796936,0.09034214913845062,-0.3204483091831207
1789799583275050800,1.83905078125,1.1083048582077026,0.573746919631958,-0.9295313358306885
1789799583285021700,1.849021728515625,1.4942381381988525,0.47603896260261536,-1.1422326564788818
1789799583294993700,1.85899365234375,0.9791732430458069,0.333949476480484,-0.5636838674545288
1789799583304964900,1.86896484375,0.5246261954307556,0.38831526041030884,0.15210644900798798
1789799583314936600,1.8789365234375,0.6784155368804932,0.22097764909267426,0.4151569902896881
1789799583324907800,1.88890771484375,0.8801789879798889,0.09183617681264877,0.5443996787071228
1789799583334879700,1.898879638671875,0.8293677568435669,0.28272464871406555,0.6569530963897705
1789799583344850700,1.9088505859375,0.6153563857078552,0.04043903574347496,0.6554313898086548
1789799583354822700,1.91882275390625,0.29509714245796204,-0.004022971261292696,0.44379740953445435
1789799583364793900,1.9287939453125,0.0644165426492691,0.01991778239607811,-0.21856962144374847
1789799583374765600,1.938765625,-0.2823805510997772,0.1817178726196289,-0.5801475644111633
1789799583384736800,1.94873681640625,-0.560835599899292,0.25168362259864807,-0.6098785400390625
1789799583394708700,1.958708740234375,-0.5602529048919678,0.19939033687114716,-0.43449926376342773
1789799583404679700,1.9686796875,-0.35368937253952026,0.5028465986251831,-0.34025877714157104
1789799583414651600,1.978651611328125,0.04959871247410774,0.9613404273986816,-0.400597482919693
1789799583424622800,1.988622802734375,0.34970927238464355,0.7857004404067993,-0.3865509033203125
1789799583434594600,1.998594482421875,0.4233187735080719,0.4533970355987549,-0.39409831166267395
1789799583444565800,2.008565673828125,-0.21852008998394012,0.4492904543876648,-0.24498631060123444
1789799583454536700,2.01853662109375,-1.0066804885864258,0.4893398582935333,-0.006018743850290775
1789799583464508700,2.0285087890625,-0.9219149947166443,0.28477954864501953,0.12893934547901154
1789799583474479600,2.038479736328125,-0.827861487865448,0.15615497529506683,0.2950739860534668
1789799583484451800,2.048451904296875,-0.878373920917511,0.449835866689682,0.4222702980041504
1789799583494422800,2.0584228515625,-1.2480419874191284,0.9275813698768616,0.3569983243942261
1789799583504394800,2.068394775390625,-1.7117228507995605,1.1888782978057861,0.27460360527038574
1789799583514365700,2.07836572265625,-2.3629560470581055,1.2832976579666138,0.1981106847524643
1789799583524337700,2.088337646484375,-2.239763021469116,0.9354241490364075,0.17979159951210022
1789799583534308600,2.09830859375,-1.528506875038147,0.17010489106178284,-0.03464799001812935
1789799583544280800,2.10828076171875,-1.225296139717102,0.20692655444145203,-0.5639443397521973
1789799583554251800,2.118251708984375,-1.0464556217193604,0.45938941836357117,-1.0197443962097168
1789799583564223700,2.1282236328125,-1.0380765199661255,0.2776414752006531,-1.2920541763305664
1789799583574194700,2.138194580078125,-1.0715351104736328,-0.40110641717910767,-1.4036790132522583
1789799583584166100,2.148166259765625,-1.1911333799362183,-0.9997307062149048,-1.286324143409729
1789799583594137000,2.15813720703125,-1.1388823986053467,-1.1607624292373657,-1.2698553800582886
1789799583604108000,2.16810791015625,-1.0049678087234497,-0.9386721253395081,-1.2805333137512207
1789799583614080300,2.178080322265625,-0.9359306693077087,-0.5294387936592102,-1.2239627838134766
1789799583624051200,2.18805126953125,-0.9627854824066162,-0.1253454089164734,-1.0795775651931763
1789799583634023200,2.198023193359375,-1.177405834197998,-0.014288658276200294,-0.962726891040802
1789799583643994000,2.207994140625,-1.4097813367843628,-0.23049339652061462,-0.9346230626106262
1789799583653966000,2.217966064453125,-1.480383038520813,-0.5250914692878723,-0.9911209344863892
1789799583663937000,2.22793701171875,-1.4244718551635742,-0.5906150937080383,-1.0811201333999634
1789799583673909200,2.2379091796875,-1.3204290866851807,-0.5470553636550903,-1.1534829139709473
1789799583683880200,2.247880126953125,-1.2887827157974243,-0.39908507466316223,-1.1403841972351074
1789799583693852200,2.25785205078125,-1.3613102436065674,-0.4815639555454254,-1.0222663879394531
1789799583703823000,2.267822998046875,-1.532670259475708,-0.5377843379974365,-0.8165534138679504
1789799583713795000,2.277795166015625,-1.7102125883102417,-0.28243833780288696,-0.7045475244522095
1789799583723766000,2.28776611328125,-1.67913019657135,-0.024229438975453377,-0.7226886749267578
1789799583733738200,2.29773828125,-1.6063181161880493,-0.060085173696279526,-0.8383391499519348
1789799583743709200,2.307709228515625,-1.5765553712844849,-0.21795843541622162,-0.9016081094741821
1789799583753681200,2.31768115234375,-1.5558624267578125,-0.34212005138397217,-0.8549825549125671
1789799583763652000,2.327652099609375,-1.5929293632507324,-0.4044734537601471,-0.7647735476493835
1789799583773623300,2.337623291015625,-1.6779261827468872,-0.46384650468826294,-0.7305029630661011
1789799583783595000,2.347594970703125,-1.6774470806121826,-0.3828240633010864,-0.7541092038154602
1789799583793566200,2.357566162109375,-1.6105985641479492,-0.061281200498342514,-0.7367949485778809
1789799583803538200,2.3675380859375,-1.7059485912322998,0.5594412088394165,-0.6190866827964783
1789799583813509000,2.377509033203125,-1.6912343502044678,1.0545835494995117,-0.47276729345321655
1789799583823481000,2.387481201171875,-1.253688097000122,0.7291111946105957,-0.36156460642814636
1789799583833452300,2.397452392578125,-1.099987506866455,0.1827077567577362,-0.2609895169734955
1789799583843424000,2.407424072265625,-1.1239315271377563,-0.5083535313606262,-0.13013297319412231
1789799583853395200,2.417395263671875,-1.0994231700897217,-0.9577376842498779,-0.05305789038538933
1789799583863367200,2.4273671875,-1.0151828527450562,-1.1176475286483765,-0.18726283311843872
1789799583873338000,2.437338134765625,-0.939803421497345,-1.179134488105774,-0.2746294438838959
1789799583883310000,2.44731005859375,-0.8965451717376709,-0.9780240654945374,-0.251498281955719
1789799583893281300,2.45728125,-0.767792820930481,-0.6097856163978577,-0.2628153860569
1789799583903253000,2.4672529296875,-0.6247403025627136,-0.32757893204689026,-0.22760306298732758
1789799583913224200,2.47722412109375,-0.4842265844345093,0.022587601095438004,-0.13486513495445251
1789799583923196200,2.487196044921875,-0.3436364531517029,0.2835800349712372,-0.06287829577922821
1789799583933167000,2.4971669921875,-0.18776750564575195,0.4127654731273651,-0.020832045003771782
1789799583943138000,2.507137939453125,-0.031921714544296265,0.5518741011619568,0.012898221611976624
1789799583953110300,2.5171103515625,-0.00004900216299574822,0.5541604161262512,0.1563595086336136
1789799583963081200,2.527081298828125,-0.09443515539169312,0.34849032759666443,0.3273110091686249
1789799583973053200,2.53705322265625,-0.09960515052080154,0.14900732040405273,0.3318474590778351
1789799583983024000,2.547024169921875,0.05336282402276993,0.24411094188690186,0.2771280109882355
1789799583992996000,2.55699609375,0.31208813190460205,0.5356019139289856,0.2532956600189209
1789799584002967000,2.566967041015625,0.5503659248352051,0.5994735360145569,0.3303334414958954
1789799584012939300,2.576939208984375,0.6703588962554932,0.7392202615737915,0.3507857024669647
1789799584022910200,2.58691015625,0.8148617744445801,0.8727865815162659,0.2886424660682678
1789799584032882200,2.596882080078125,0.8950878977775574,0.8802266716957092,0.2550807595252991
1789799584042853000,2.60685302734375,0.9577414393424988,1.0758451223373413,0.1327095776796341
1789799584052825000,2.6168251953125,1.080560564994812,1.4166005849838257,0.03200480341911316
1789799584062796000,2.626796142578125,1.1313164234161377,1.5358785390853882,0.07371576875448227
1789799584072768300,2.636768310546875,1.1089898347854614,1.2767492532730103,0.1377304345369339
1789799584082739200,2.6467392578125,1.1374092102050781,0.886894702911377,0.13192127645015717
1789799584092711200,2.656711181640625,1.2226396799087524,0.7589431405067444,0.0015398397808894515
1789799584102682000,2.66668212890625,1.2971885204315186,0.7247920632362366,-0.09217120707035065
1789799584112653300,2.6766533203125,1.3863439559936523,0.5761967301368713,-0.10471416264772415
1789799584122625000,2.686625,1.5696308612823486,0.43362945318222046,-0.17611457407474518
1789799584132596200,2.69659619140625,1.8645679950714111,0.42083191871643066,-0.25729066133499146
1789799584142568200,2.706568115234375,2.10876727104187,0.5244256854057312,-0.31438323855400085
1789799584152539100,2.7165390625,2.1902449131011963,0.6890111565589905,-0.34289318323135376
1789799584162511000,2.726510986328125,2.059814929962158,0.6892297863960266,-0.39109399914741516
1789799584172482300,2.736482421875,1.998472809791565,0.7698447704315186,-0.5579053163528442
1789799584182454000,2.7464541015625,2.0984907150268555,0.8924026489257812,-0.6890111565589905
1789799584192425200,2.75642529296875,2.1595871448516846,0.931427001953125,-0.6776812672615051
1789799584202397200,2.766397216796875,2.04121732711792,1.000464916229248,-0.6104279160499573
1789799584212368100,2.7763681640625,1.8989605903625488,1.0891125202178955,-0.5846474766731262
1789799584222340000,2.786340087890625,1.9096148014068604,1.0635570287704468,-0.6368614435195923
1789799584232311300,2.796311279296875,1.9824965000152588,0.64809250831604,-0.7527496814727783
1789799584242283000,2.806282958984375,1.9990347623825073,0.19125650823116302,-0.7825435400009155
1789799584252254200,2.816254150390625,1.9633433818817139,0.17675372958183289,-0.6705455780029297
1789799584262226200,2.82622607421875,1.9177616834640503,0.3518408536911011,-0.6340043544769287
1789799584272197000,2.836197021484375,1.8336849212646484,0.36990270018577576,-0.6902239918708801
1789799584282168000,2.84616796875,1.7100313901901245,0.0816730260848999,-0.6483825445175171
1789799584292140300,2.856140380859375,1.5310217142105103,-0.01876969262957573,-0.4906187057495117
1789799584302111200,2.866111328125,1.3550059795379639,0.18529076874256134,-0.38501185178756714
1789799584312083200,2.876083251953125,1.2503656148910522,0.47377902269363403,-0.39481842517852783
1789799584322054100,2.88605419921875,1.2724767923355103,0.4066188931465149,-0.478341281414032
1789799584332026400,2.8960263671875,1.3460735082626343,0.018562499433755875,-0.4395076036453247
1789799584341997000,2.9059970703125,1.314873456954956,-0.19656231999397278,-0.37923333048820496
1789799584351969300,2.91596923828125,1.1867173910140991,-0.21539060771465302,-0.3667614758014679
1789799584361940200,2.925940185546875,0.9939109086990356,-0.18692967295646667,-0.3739682734012604
1789799584371912200,2.935912109375,0.7808105945587158,-0.15516109764575958,-0.3230670094490051
1789799584381883100,2.945883056640625,0.6173428297042847,0.015539278276264668,-0.2651565670967102
1789799584391855400,2.95585546875,0.5735921859741211,0.31136080622673035,-0.31396326422691345
1789799584401826000,2.965825927734375,0.49495169520378113,0.3966629207134247,-0.31868210434913635
1789799584411798300,2.97579833984375,0.35859304666519165,0.06830022484064102,-0.3666200637817383
1789799584421769200,2.985769287109375,0.20615236461162567,-0.2993161380290985,-0.4615090489387512
1789799584431741200,2.9957412109375,0.07235915213823318,-0.44579213857650757,-0.5382741093635559
1789799584441712000,3.005712158203125,-0.05600760877132416,-0.45744505524635315,-0.5749729871749878
1789799584451684400,3.015684326171875,-0.1633063703775406,-0.41893333196640015,-0.5483675003051758
1789799584461655000,3.025655029296875,-0.1881517916917801,-0.409604549407959,-0.46389442682266235
1789799584471627300,3.035627197265625,-0.17829729616641998,-0.35023897886276245,-0.41079577803611755
1789799584481598200,3.04559814453125,-0.20866532623767853,-0.1738804429769516,-0.39135125279426575
1789799584491569400,3.0555693359375,-0.2971331477165222,0.003722300287336111,-0.37147819995880127
1789799584501541000,3.065541015625,-0.39783045649528503,0.007864048704504967,-0.3378065228462219
1789799584511512300,3.07551220703125,-0.4358907639980316,-0.2878570854663849,-0.327452152967453
1789799584521484000,3.085484130859375,-0.46408218145370483,-0.5181919932365417,-0.3691820204257965
1789799584531455200,3.095455322265625,-0.54057776927948,-0.37989965081214905,-0.4560479521751404
1789799584541427200,3.10542724609375,-0.7303378582000732,0.17979532480239868,-0.45638883113861084
1789799584551398400,3.1153984375,-0.9716992974281311,0.6845223903656006,-0.3107061982154846
1789799584561370000,3.1253701171875,-1.140336036682129,0.7889502644538879,-0.1404559165239334
1789799584571341300,3.13534130859375,-1.1519676446914673,0.5672532916069031,-0.004354001954197884
1789799584581313000,3.14531298828125,-1.0852367877960205,0.33071693778038025,0.0745173767209053
1789799584591284200,3.1552841796875,-1.0030508041381836,-0.12512649595737457,0.1279451847076416
1789799584601256200,3.165256103515625,-0.9562551379203796,-1.0851446390151978,0.1387789249420166
1789799584611227400,3.175227294921875,-0.9410721659660339,-1.8524945974349976,0.08564912527799606
1789799584621199000,3.18519921875,-0.9691352248191833,-1.9472829103469849,-0.005351622123271227
1789799584631170300,3.19517041015625,-1.0490825176239014,-1.4769220352172852,-0.0011267834343016148
1789799584641142000,3.20514208984375,-1.098650336265564,-0.9265859127044678,0.05557937175035477
1789799584651113200,3.21511328125,-1.2186005115509033,-0.20149929821491241,0.015973640605807304
1789799584661085200,3.225085205078125,-1.4010123014450073,0.4166148006916046,-0.019399531185626984
1789799584671056400,3.235056396484375,-1.4876915216445923,0.5146755576133728,-0.023969780653715134
1789799584681028000,3.245028076171875,-1.4434980154037476,0.22927740216255188,-0.06996683031320572
1789799584690999300,3.254999267578125,-1.432549238204956,-0.2519206702709198,-0.19897061586380005
1789799584700970200,3.26497021484375,-1.5694741010665894,-0.5461258888244629,-0.34696781635284424
1789799584710942200,3.274942138671875,-1.81393301486969,-0.38311782479286194,-0.3856121301651001
1789799584720913200,3.2849130859375,-2.030607223510742,0.19209274649620056,-0.47231000661849976
1789799584730885400,3.294885498046875,-2.040642023086548,0.5389242172241211,-0.5862656235694885
1789799584740856000,3.30485595703125,-1.9134279489517212,0.3201353847980499,-0.5285834074020386
1789799584750828300,3.314828369140625,-1.7640163898468018,-0.031186148524284363,-0.3123805522918701
1789799584760799200,3.32479931640625,-1.658811092376709,-0.30132654309272766,-0.20891699194908142
1789799584770771200,3.334771240234375,-1.5827187299728394,-0.29357463121414185,-0.36098748445510864
1789799584780742100,3.3447421875,-1.4854649305343628,-0.1618400365114212,-0.5589285492897034
1789799584790714400,3.35471435546875,-1.4138554334640503,-0.12249475717544556,-0.6033801436424255
1789799584800685000,3.36468505859375,-1.4123512506484985,-0.21614588797092438,-0.5128305554389954
1789799584810657300,3.3746572265625,-1.4722909927368164,-0.4254527688026428,-0.41852161288261414
1789799584820628200,3.384628173828125,-1.4856688976287842,-0.2760179936885834,-0.46463292837142944
1789799584830600200,3.39460009765625,-1.5162649154663086,0.1897619366645813,-0.6485702395439148
1789799584840571100,3.404571044921875,-1.4992337226867676,0.33855780959129333,-0.7951293587684631
1789799584850543400,3.41454345703125,-1.5792460441589355,0.14034512639045715,-0.7557963132858276
1789799584860514000,3.42451416015625,-1.7821320295333862,-0.16703638434410095,-0.6050891280174255
1789799584870486300,3.434486328125,-1.8070107698440552,-0.17779690027236938,-0.5705108642578125
1789799584880457200,3.444457275390625,-1.5727061033248901,-0.15392272174358368,-0.5942654609680176
1789799584890429200,3.45442919921875,-1.4232540130615234,-0.6756205558776855,-0.5408533811569214
1789799584900400000,3.464400146484375,-1.4323105812072754,-1.280370831489563,-0.4287708103656769
1789799584910372400,3.474372314453125,-1.371586561203003,-1.3857630491256714,-0.37457361817359924
1789799584920343000,3.484343017578125,-1.1406347751617432,-1.184576392173767,-0.42665359377861023
1789799584930315300,3.494315185546875,-0.9210726022720337,-1.0105018615722656,-0.5335584878921509
1789799584940286200,3.5042861328125,-0.8241463303565979,-0.5651784539222717,-0.5723479390144348
1789799584950257200,3.514257080078125,-0.7544125318527222,0.15145343542099,-0.43762367963790894
1789799584960229000,3.52422900390625,-0.7353413701057434,0.3987135589122772,-0.2884019613265991
1789799584970200000,3.534199951171875,-0.6713237762451172,0.4238402247428894,-0.2457176148891449
1789799584980172000,3.544172119140625,-0.5027086734771729,0.5787504315376282,-0.2825049161911011
1789799584990143000,3.55414306640625,-0.39978548884391785,0.5181406140327454,-0.3039098083972931
1789799585000115200,3.564115234375,-0.31085455417633057,0.14826244115829468,-0.25014886260032654
1789799585010086100,3.574086181640625,-0.19354256987571716,-0.07389739155769348,-0.24850355088710785
1789799585020058000,3.58405810546875,-0.04213493689894676,-0.05979409068822861,-0.3277038335800171
1789799585030029000,3.594029052734375,0.03633883222937584,-0.2050841748714447,-0.2743133008480072
1789799585040001300,3.604001220703125,0.17843098938465118,-0.1997559815645218,-0.15989458560943604
1789799585049972000,3.613971923828125,0.4255816638469696,0.17677344381809235,-0.14616093039512634
1789799585059944200,3.623944091796875,0.6672741770744324,0.42065349221229553,-0.12406814843416214
1789799585069915100,3.6339150390625,0.7998684644699097,0.5020428895950317,-0.08270686119794846
1789799585079887000,3.64388720703125,0.9509572982788086,0.8493137359619141,-0.15734940767288208
1789799585089858000,3.653858154296875,1.0952532291412354,1.0988199710845947,-0.19417986273765564
1789799585099830300,3.663830322265625,1.1151083707809448,0.988359272480011,-0.10191624611616135
1789799585109801000,3.673801025390625,1.1567602157592773,0.6663010716438293,-0.07565641403198242
1789799585119773200,3.683773193359375,1.2076526880264282,0.36839452385902405,-0.08442060649394989
1789799585129744100,3.693744140625,1.3015973567962646,0.5081953406333923,-0.05662253126502037
1789799585139716000,3.703716064453125,1.4856047630310059,0.723110556602478,-0.03689383715391159
1789799585149687000,3.71368701171875,1.6955825090408325,0.5926713347434998,0.0032810145057737827
1789799585159659300,3.7236591796875,1.7236788272857666,0.2921575605869293,-0.005773467011749744
1789799585169630000,3.7336298828125,1.6582568883895874,0.373029500246048,-0.14228470623493195
1789799585179602200,3.743602294921875,1.7257275581359863,0.7543891072273254,-0.23054799437522888
1789799585189573400,3.753573486328125,1.7782349586486816,0.7846287488937378,-0.23769058287143707
1789799585199545000,3.763545166015625,1.902982473373413,0.7764691114425659,-0.2610427737236023
1789799585209516300,3.773516357421875,2.110132932662964,0.8316141366958618,-0.33776792883872986
1789799585219488300,3.78348828125,2.229329824447632,0.6654669642448425,-0.3369327485561371
1789799585229459200,3.793459228515625,2.1631836891174316,0.4211600124835968,-0.23061403632164001
1789799585239431200,3.80343115234375,2.052255868911743,0.21383745968341827,-0.13924869894981384
1789799585249402400,3.81340234375,2.0163238048553467,0.2985145151615143,-0.07538583129644394
1789799585259374000,3.8233740234375,2.0412096977233887,0.6453529000282288,-0.13654878735542297
1789799585269345300,3.83334521484375,2.1227517127990723,1.005190134048462,-0.32853153347969055
1789799585279316200,3.843316162109375,2.222672939300537,0.7970215082168579,-0.4771106243133545
1789799585289288200,3.8532880859375,2.289499521255493,0.3509684205055237,-0.4648193418979645
1789799585299259100,3.863259033203125,2.3383195400238037,0.2339339256286621,-0.2554043233394623
1789799585309231400,3.8732314453125,2.323930025100708,0.6019574999809265,-0.11457318067550659
1789799585319202300,3.883202392578125,2.259591817855835,1.1206456422805786,-0.1834917962551117
1789799585329174300,3.89317431640625,2.057481288909912,1.1281917095184326,-0.37380367517471313
1789799585339145200,3.903145263671875,1.8195323944091797,0.37527427077293396,-0.39384663105010986
1789799585349117200,3.9131171875,1.7410035133361816,-0.21218469738960266,-0.27013587951660156
1789799585359088000,3.923088134765625,1.772371530532837,-0.031031684949994087,-0.2592986822128296
1789799585369060400,3.933060302734375,1.7746682167053223,0.23463168740272522,-0.34592917561531067
1789799585379031300,3.94303125,1.5956941843032837,0.30129992961883545,-0.3836672306060791
1789799585389003300,3.953003173828125,1.3036277294158936,-0.09039460867643356,-0.3220036029815674
1789799585398974200,3.96297412109375,1.086913824081421,-0.8597938418388367,-0.18059533834457397
1789799585408946200,3.9729462890625,0.9551584124565125,-1.0780342817306519,-0.13859330117702484
1789799585418917000,3.982917236328125,0.9528172612190247,-0.7865933775901794,-0.17952954769134521
1789799585428889300,3.992889404296875,0.8519002199172974,-0.707266092300415,-0.16805052757263184
1789799585438860300,4.0028603515625,0.571662962436676,-0.5128318667411804,-0.06596250832080841
1789799585448832300,4.012832275390625,0.3134165108203888,-0.32475757598876953,-0.06815854460000992
1789799585458803200,4.02280322265625,0.25738680362701416,-0.25874394178390503,-0.1560596376657486
1789799585468775200,4.032775146484375,0.38295963406562805,-0.11134064197540283,-0.10621165484189987
1789799585478746000,4.04274609375,0.42171528935432434,-0.04993240535259247,0.010421748273074627
1789799585488718300,4.05271826171875,0.2508218288421631,-0.2718629240989685,0.059227105230093
1789799585498689300,4.062689208984375,0.10975925624370575,-0.3663977086544037,0.1304701268672943
1789799585508661200,4.0726611328125,0.07886099070310593,-0.22407197952270508,0.2414613515138626
1789799585518632200,4.082632080078125,0.07750225067138672,0.059909407049417496,0.3458564579486847
1789799585528604200,4.092604248046875,0.035475436598062515,-0.0398281067609787,0.35514718294143677
1789799585538575000,4.1025751953125,0.02744360826909542,-0.2609226703643799,0.3194560110569
1789799585548547300,4.11254736328125,0.021678397431969643,-0.41664037108421326,0.28146204352378845
1789799585558518300,4.122518310546875,-0.019956396892666817,-0.5115969777107239,0.19275666773319244
1789799585568490200,4.132490234375,-0.10641805082559586,-0.5540440082550049,0.12264096736907959
1789799585578461000,4.1424609375,-0.2230466604232788,-0.5607538819313049,0.1776387095451355
1789799585588433000,4.152432861328125,-0.3050805330276489,-0.42661282420158386,0.3454897403717041
1789799585598403800,4.16240380859375,-0.35850435495376587,-0.061045508831739426,0.5247226357460022
1789799585608375800,4.172375732421875,-0.3910447359085083,0.22687122225761414,0.5747421383857727
1789799585618347000,4.182346923828125,-0.42781710624694824,-0.09429587423801422,0.4502233564853668
1789799585628318700,4.192318603515625,-0.5589091181755066,-0.5293166041374207,0.3267892897129059
1789799585638290000,4.2022900390625,-0.8503723740577698,-0.8612021207809448,0.28231850266456604
1789799585648262000,4.212261962890625,-1.1968793869018555,-0.8757221698760986,0.35023391246795654
1789799585658232800,4.22223291015625,-1.5163344144821167,-0.35020196437835693,0.3118857145309448
1789799585668204800,4.232204833984375,-1.6788088083267212,0.2576754689216614,0.10773791372776031
1789799585678176000,4.242176025390625,-1.7456754446029663,0.2270456701517105,-0.19856342673301697
1789799585688147700,4.252147705078125,-1.8115298748016357,-0.09238452464342117,-0.3487505316734314
1789799585698119000,4.262118896484375,-1.9135699272155762,-0.3920620381832123,-0.3154256045818329
1789799585708091000,4.2720908203125,-1.9550156593322754,-0.6047298312187195,-0.25161200761795044
1789799585718061800,4.282061767578125,-1.9356498718261719,-0.5315799713134766,-0.1973293125629425
1789799585728033800,4.29203369140625,-1.839095950126648,-0.3372374176979065,-0.18640689551830292
1789799585738005000,4.3020048828125,-1.583642601966858,-0.35767585039138794,-0.1775212585926056
1789799585747976000,4.311975830078125,-1.3833316564559937,-0.28347671031951904,-0.09601414948701859
1789799585757948000,4.321947998046875,-1.2508087158203125,-0.22789175808429718,-0.00018082863243762404
1789799585767918800,4.3319189453125,-1.1038285493850708,-0.3574904799461365,-0.02570243366062641
1789799585777890800,4.341890869140625,-0.9959532618522644,-0.4116978049278259,-0.1375352293252945
1789799585787861800,4.35186181640625,-0.9626107811927795,-0.18945302069187164,-0.20402556657791138
1789799585797834000,4.361833984375,-0.9719403386116028,0.021163875237107277,-0.16890007257461548
1789799585807805000,4.371804931640625,-1.0354971885681152,-0.047872718423604965,-0.062251124531030655
1789799585817777000,4.38177685546875,-1.1757686138153076,-0.16466058790683746,0.05892430245876312
1789799585827747800,4.391747802734375,-1.3445152044296265,-0.20079009234905243,0.14138801395893097
1789799585837719800,4.4017197265625,-1.5418847799301147,-0.1883842945098877,0.14714817702770233
1789799585847690800,4.411690673828125,-1.6963297128677368,-0.16359052062034607,0.13213247060775757
1789799585857663000,4.4216630859375,-1.814802646636963,-0.2395191192626953,0.15148353576660156
1789799585867634000,4.431634033203125,-1.9169931411743164,-0.4202001988887787,0.1703174114227295
1789799585877606000,4.44160595703125,-2.0127575397491455,-0.5796008110046387,0.18331629037857056
1789799585887576800,4.451576904296875,-2.1070806980133057,-0.6326448321342468,0.12719550728797913
1789799585897548800,4.461548828125,-2.2229530811309814,-0.6228222846984863,0.05162297934293747
1789799585907519700,4.471519775390625,-2.2117021083831787,-0.6487804055213928,-0.022297581657767296
1789799585917492000,4.481491943359375,-2.169278144836426,-0.641142725944519,-0.09462451189756393
1789799585927463000,4.491462890625,-2.123971700668335,-0.44953492283821106,-0.11937432736158371
1789799585937435000,4.501434814453125,-2.043429136276245,-0.04272589087486267,-0.1118844598531723
1789799585947405800,4.51140576171875,-1.8521499633789062,0.13837198913097382,-0.12576565146446228
1789799585957377800,4.521377685546875,-1.6372528076171875,-0.2237100601196289,-0.03365702927112579
1789799585967348700,4.5313486328125,-1.508981466293335,-0.6475129723548889,0.07364599406719208
1789799585977321000,4.541321044921875,-1.3913341760635376,-0.7375872135162354,0.10211864858865738
1789799585987292000,4.5512919921875,-1.2709393501281738,-0.7043379545211792,0.062306784093379974
1789799585997264000,4.561263916015625,-1.18039071559906,-0.7490382790565491,-0.004316451493650675
1789799586007234800,4.57123486328125,-1.064131736755371,-0.7975085973739624,-0.04038204252719879
1789799586017206800,4.581206787109375,-0.9558439254760742,-0.7599431276321411,-0.08573407679796219
1789799586027177700,4.591177734375,-0.7183823585510254,-0.4674558639526367,-0.07257859408855438
1789799586037150000,4.60114990234375,-0.4914275109767914,-0.14909201860427856,-0.05207172408699989
1789799586047121000,4.611120849609375,-0.31603917479515076,0.1798906773328781,-0.03610900044441223
1789799586057092900,4.6210927734375,-0.12174081802368164,0.4543784260749817,-0.010728011839091778
1789799586067063800,4.631063720703125,-0.057545050978660583,0.38262033462524414,-0.07321269810199738
1789799586077035800,4.641035888671875,0.08244587481021881,0.14136378467082977,-0.22034595906734467
1789799586087006700,4.6510068359375,0.26806581020355225,0.08387039601802826,-0.3284878730773926
1789799586096979000,4.66097900390625,0.388193815946579,-0.013226056471467018,-0.2991046905517578
1789799586106950000,4.670949951171875,0.5485872030258179,0.034328147768974304,-0.2067023068666458
1789799586116921900,4.680921875,0.7208279371261597,0.23551131784915924,-0.08246957510709763
1789799586126892800,4.690892822265625,0.8966476917266846,0.3188517391681671,-0.01739470288157463
1789799586136865000,4.700864990234375,0.8970037698745728,0.3050509989261627,-0.0689907819032669
1789799586146835700,4.710835693359375,0.9132794141769409,0.49257907271385193,-0.18305423855781555
1789799586156808000,4.720807861328125,1.028556227684021,0.7017903327941895,-0.3002868592739105
1789799586166779000,4.73077880859375,1.1819130182266235,0.8832264542579651,-0.3034174144268036
1789799586176750800,4.740750732421875,1.4157662391662598,1.069783329963684,-0.2700338661670685
1789799586186721800,4.7507216796875,1.609946608543396,1.2515461444854736,-0.1594378650188446
1789799586196694000,4.760694091796875,1.647212266921997,1.2473524808883667,-0.09218292683362961
1789799586206664700,4.770664794921875,1.6029630899429321,1.0427570343017578,-0.08343417197465897
1789799586216637000,4.780636962890625,1.60416841506958,0.789234459400177,-0.1135268285870552
1789799586226607900,4.79060791015625,1.7009223699569702,0.598414421081543,-0.17981263995170593
1789799586236579800,4.800579833984375,1.8604166507720947,0.507777214050293,-0.17602989077568054
1789799586246550800,4.81055078125,2.0857317447662354,0.6874034404754639,-0.11265890300273895
1789799586256523000,4.82052294921875,2.2385897636413574,0.9607459902763367,-0.08321473002433777
1789799586266493700,4.83049365234375,2.2396090030670166,1.2080966234207153,-0.11069295555353165
1789799586276466000,4.8404658203125,2.1333365440368652,1.3226501941680908,-0.22442512214183807
1789799586286436900,4.850436767578125,2.0367250442504883,1.2345259189605713,-0.34648391604423523
1789799586296408800,4.860408935546875,2.0346438884735107,0.9438815116882324,-0.41107648611068726
1789799586306379800,4.8703798828125,2.1606788635253906,0.7544927000999451,-0.40616002678871155
1789799586316352000,4.88035205078125,2.1995441913604736,0.6616557240486145,-0.33914849162101746
1789799586326322700,4.89032275390625,2.2032384872436523,0.673504650592804,-0.29501327872276306
1789799586336295000,4.900294921875,2.251044511795044,0.8517271280288696,-0.30922362208366394
1789799586346265900,4.910265869140625,2.3651676177978516,0.9553477764129639,-0.3234233260154724
1789799586356237800,4.92023779296875,2.44193696975708,0.6556462645530701,-0.29471153020858765
1789799586366208800,4.930208740234375,2.2758536338806152,0.06451880186796188,-0.24981436133384705
1789799586376181000,4.940180908203125,2.008619785308838,-0.35445767641067505,-0.21154581010341644
1789799586386151700,4.950151611328125,1.850356101989746,-0.4019935131072998,-0.16974376142024994
1789799586396124000,4.9601240234375,1.7537461519241333,-0.19633276760578156,-0.15259087085723877
1789799586406094800,4.9700947265625,1.6426372528076172,0.12802694737911224,-0.18011091649532318
1789799586416066800,4.98006689453125,1.524449110031128,0.358377069234848,-0.27399665117263794
1789799586426037800,4.990037841796875,1.371659517288208,0.301370769739151,-0.2718892991542816
1789799586436010000,5.000010009765625,1.2336862087249756,0.027811124920845032,-0.13967373967170715
1789799586445980700,5.009980712890625,1.1295191049575806,-0.29651394486427307,-0.11493217945098877
1789799586455953000,5.019952880859375,0.9803167581558228,-0.5286055207252502,-0.15914411842823029
1789799586465923800,5.029923828125,0.7900067567825317,-0.6717581152915955,-0.1713499128818512
1789799586475895800,5.039895751953125,0.6630429625511169,-0.617689847946167,-0.12052987515926361
1789799586485866800,5.04986669921875,0.6158077716827393,-0.5743724703788757,-0.04300792142748833
1789799586495839000,5.0598388671875,0.6365370154380798,-0.5429533123970032,0.04757870361208916
1789799586505809700,5.0698095703125,0.6421645879745483,-0.4473783075809479,0.1313588172197342
1789799586515782000,5.079781982421875,0.5638468861579895,-0.36345863342285156,0.12464472651481628
1789799586525752800,5.0897529296875,0.4195978045463562,-0.2200186550617218,0.03254089877009392
1789799586535724800,5.099724853515625,0.27322542667388916,-0.03250255063176155,-0.01589161530137062
1789799586545695700,5.10969580078125,0.05890965461730957,0.12909220159053802,0.04722104221582413
1789799586555668000,5.11966796875,-0.15849749743938446,0.17167481780052185,0.13466539978981018
1789799586565638700,5.129638671875,-0.3406132459640503,0.12832681834697723,0.21861356496810913
1789799586575611000,5.13961083984375,-0.4607545733451843,0.015350726433098316,0.2823438048362732
1789799586585582600,5.14958251953125,-0.5452049970626831,-0.15280285477638245,0.3099743723869324
1789799586595554600,5.159554443359375,-0.6007561683654785,-0.20891620218753815,0.3022517263889313
1789799586605525500,5.169525390625,-0.6007705330848694,-0.32283878326416016,0.25924593210220337
1789799586615497500,5.17949755859375,-0.6174193024635315,-0.6435669660568237,0.177120178937912
1789799586625468400,5.189468505859375,-0.6446785926818848,-0.8548073172569275,0.14196886122226715
1789799586635440600,5.199440673828125,-0.7165138721466064,-0.7199941277503967,0.16678765416145325
1789799586645411600,5.20941162109375,-0.8383247256278992,-0.378627210855484,0.2078370898962021
1789799586655383600,5.219383544921875,-0.9479236602783203,0.17318882048130035,0.21619302034378052
1789799586665354500,5.2293544921875,-0.9831578135490417,0.6659402251243591,0.24539831280708313
1789799586675326500,5.239326416015625,-1.0004279613494873,0.6053234338760376,0.24777384102344513
1789799586685297400,5.24929736328125,-1.0110480785369873,0.2637823820114136,0.23150832951068878
1789799586695269600,5.25926953125,-0.9919518828392029,-0.04294693470001221,0.14524321258068085
1789799586705240600,5.269240478515625,-1.0099068880081177,-0.030308904126286507,-0.00882038939744234
1789799586715212500,5.279212646484375,-1.1185226440429688,0.3169420063495636,-0.1553214192390442
1789799586725183500,5.28918359375,-1.1794661283493042,0.5450063347816467,-0.28507593274116516
1789799586735155500,5.299155517578125,-1.1548765897750854,0.33631035685539246,-0.38029807806015015
1789799586745126400,5.30912646484375,-1.238438606262207,-0.04682556167244911,-0.41148555278778076
1789799586755098600,5.3190986328125,-1.450126051902771,-0.16928543150424957,-0.36369752883911133
1789799586765069600,5.329069580078125,-1.688753366470337,0.0901501327753067,-0.3779211938381195
1789799586775041500,5.33904150390625,-1.756363034248352,0.3766902983188629,-0.47091397643089294
1789799586785012500,5.349012451171875,-1.6483757495880127,0.36111053824424744,-0.4925476312637329
1789799586794984700,5.358984619140625,-1.6055409908294678,0.10486436635255814,-0.4012600779533386
1789799586804955400,5.368955322265625,-1.6484529972076416,-0.19715994596481323,-0.3263424336910248
1789799586814927600,5.378927734375,-1.5961765050888062,-0.3817846477031708,-0.3091655671596527
1789799586824898600,5.388898681640625,-1.4886162281036377,-0.38796183466911316,-0.33458784222602844
1789799586834870500,5.39887060546875,-1.462955117225647,-0.4452967643737793,-0.41696393489837646
1789799586844841500,5.408841552734375,-1.532760500907898,-0.5229985117912292,-0.5434728860855103
1789799586854813700,5.418813720703125,-1.657897710800171,-0.5596014857292175,-0.6330016851425171
1789799586864784400,5.428784423828125,-1.7681573629379272,-0.5672271847724915,-0.581078052520752
1789799586874756600,5.438756591796875,-1.8567920923233032,-0.6225831508636475,-0.34256160259246826
1789799586884727600,5.4487275390625,-1.8834530115127563,-0.6545363068580627,-0.06003590673208237
1789799586894699500,5.458699462890625,-1.859480619430542,-0.6465356349945068,0.024404142051935196
1789799586904670500,5.46867041015625,-1.8133457899093628,-0.42277148365974426,-0.10629288107156754
1789799586914642700,5.478642578125,-1.794632077217102,-0.22686883807182312,-0.3066187798976898
1789799586924613400,5.48861328125,-1.8476667404174805,-0.31800833344459534,-0.4056750535964966
1789799586934585600,5.498585693359375,-1.9044792652130127,-0.7712748646736145,-0.3289501965045929
1789799586944556500,5.508556640625,-1.984491229057312,-1.271976113319397,-0.1761784851551056
1789799586954528500,5.518528564453125,-2.077059030532837,-1.1807340383529663,-0.1442117691040039
1789799586964499500,5.52849951171875,-2.0150070190429688,-0.6477803587913513,-0.21428219974040985
1789799586974471700,5.5384716796875,-1.681274652481079,-0.5316804051399231,-0.2729300558567047
1789799586984442400,5.5484423828125,-1.3810594081878662,-0.6491425633430481,-0.16117823123931885
1789799586994414600,5.55841455078125,-1.1680704355239868,-0.7229936122894287,0.08646165579557419
1789799587004385500,5.568385498046875,-1.034003734588623,-0.4130711853504181,0.2679813802242279
1789799587014357500,5.578357421875,-0.863203227519989,-0.20389454066753387,0.35680365562438965
1789799587024328400,5.588328369140625,-0.7676780223846436,-0.40223559737205505,0.44063863158226013
1789799587034300700,5.59830078125,-0.7548338770866394,-0.7472212314605713,0.46204352378845215
1789799587044271400,5.608271240234375,-0.6726457476615906,-0.9167056083679199,0.47398728132247925
1789799587054243600,5.61824365234375,-0.6074241399765015,-0.8454843759536743,0.4913257956504822
1789799587064214500,5.628214599609375,-0.525775134563446,-0.6974214315414429,0.5269207954406738
1789799587074186500,5.6381865234375,-0.28405168652534485,-0.4167034924030304,0.46162861585617065
1789799587084157400,5.648157470703125,-0.045646581798791885,-0.16905400156974792,0.3981974422931671
1789799587094129700,5.658129638671875,0.11283174157142639,-0.09021591395139694,0.37443405389785767
1789799587104100400,5.668100341796875,0.23301434516906738,-0.004822452086955309,0.3367932140827179
1789799587114072600,5.678072509765625,0.34331953525543213,0.13524757325649261,0.26339834928512573
1789799587124043500,5.68804345703125,0.41038405895233154,0.2422374039888382,0.2557806372642517
1789799587134015500,5.698015380859375,0.47713300585746765,0.47244396805763245,0.24800874292850494
1789799587143986400,5.707986328125,0.6311542391777039,0.8417460918426514,0.1800352782011032
1789799587153958700,5.717958740234375,0.7037506699562073,0.84850013256073,0.1720346063375473
1789799587163929300,5.727929443359375,0.6853682398796082,0.7273188829421997,0.20034347474575043
1789799587173901600,5.737901611328125,0.777140200138092,0.7215462327003479,0.12418746203184128
1789799587183872500,5.74787255859375,0.898026168346405,0.7436012029647827,0.010210826061666012
1789799587193844500,5.757844482421875,1.0203810930252075,0.82204669713974,-0.06499604135751724
1789799587203815400,5.7678154296875,1.1959867477416992,1.0654233694076538,-0.10886256396770477
1789799587213787600,5.77778759765625,1.4121960401535034,1.2730876207351685,-0.12709642946720123
1789799587223758300,5.78775830078125,1.5222442150115967,1.2154076099395752,-0.12966851890087128
1789799587233730600,5.79773046875,1.5370543003082275,1.019587755203247,-0.13915443420410156
1789799587243701500,5.807701416015625,1.5438907146453857,0.8792372941970825,-0.1996483951807022
1789799587253673500,5.817673583984375,1.69428288936615,0.957501232624054,-0.33137181401252747
1789799587263644400,5.82764453125,1.9194581508636475,1.108642578125,-0.46102407574653625
1789799587273616600,5.83761669921875,2.0260798931121826,1.0217307806015015,-0.5266952514648438
1789799587283587300,5.84758740234375,2.045332431793213,0.7193477749824524,-0.4906613230705261
1789799587293559600,5.8575595703125,2.08192777633667,0.6910514235496521,-0.3933326303958893
1789799587303530500,5.867530517578125,2.113152027130127,0.6584969162940979,-0.39331719279289246
1789799587313502500,5.87750244140625,2.112473487854004,0.5773853063583374,-0.49195003509521484
1789799587323473400,5.887473388671875,2.1894211769104004,0.49350452423095703,-0.5768939256668091
1789799587333445600,5.897445556640625,2.3508975505828857,0.41000455617904663,-0.568446695804596
1789799587343416600,5.90741650390625,2.459928512573242,0.32128214836120605,-0.4831075370311737
1789799587353388500,5.917388427734375,2.380582332611084,0.24239292740821838,-0.3403908610343933
1789799587363359500,5.927359375,2.232414722442627,0.28362932801246643,-0.24856986105442047
1789799587373331500,5.93733154296875,2.1700212955474854,0.37889379262924194,-0.22155049443244934
1789799587383302400,5.947302490234375,2.1572935581207275,0.404818058013916,-0.2468944787979126
1789799587393274600,5.957274658203125,2.1133646965026855,0.35334473848342896,-0.29851558804512024
1789799587403245600,5.96724560546875,2.037668228149414,0.27730244398117065,-0.29189789295196533
1789799587413217500,5.977217529296875,1.9220960140228271,0.1748836636543274,-0.16387495398521423
1789799587423188500,5.9871884765625,1.7780523300170898,0.13351970911026,-0.03448021411895752
1789799587433160400,5.997160400390625,1.5841107368469238,0.1949082314968109,-0.011962919495999813
1789799587443131400,6.00713134765625,1.4089137315750122,0.15933772921562195,-0.045893989503383636
1789799587453103600,6.017103515625,1.2902610301971436,-0.10785083472728729,-0.05119980499148369
1789799587463074600,6.027074462890625,1.239284634590149,-0.4323503375053406,-0.011481153778731823
1789799587473046500,6.037046630859375,1.1794596910476685,-0.6556910276412964,0.07281641662120819
1789799587483017500,6.047017578125,1.0348162651062012,-0.7133647203445435,0.11310631781816483
1789799587492989400,6.056989501953125,0.8149557709693909,-0.6645380258560181,0.07188111543655396
1789799587502960400,6.06696044921875,0.6192094683647156,-0.5101439356803894,-0.008981777355074883
1789799587512932600,6.0769326171875,0.4953194558620453,-0.334736704826355,-0.0493510365486145
1789799587522903600,6.086903564453125,0.43561458587646484,-0.203661248087883,-0.055029429495334625
1789799587532875500,6.09687548828125,0.4280488193035126,-0.17899079620838165,-0.06958147138357162
1789799587542846500,6.106846435546875,0.273242712020874,-0.1385650634765625,-0.06251451373100281
1789799587552818400,6.116818359375,0.09787250310182571,-0.07373840361833572,-0.05649257078766823
1789799587562789400,6.126789306640625,-0.03287166357040405,-0.17798997461795807,-0.030581079423427582
1789799587572761600,6.13676171875,-0.12073361128568649,-0.3596108853816986,0.033425599336624146
1789799587582732300,6.146732177734375,-0.225141242146492,-0.5067220330238342,0.08508399873971939
1789799587592704300,6.156704345703125,-0.24880315363407135,-0.5502431392669678,0.13451093435287476
1789799587602675200,6.16667529296875,-0.33016112446784973,-0.4849211573600769,0.15716324746608734
1789799587612647200,6.176647216796875,-0.40660983324050903,-0.38363128900527954,0.17357924580574036
1789799587622618000,6.1866181640625,-0.40965303778648376,-0.15617255866527557,0.18362681567668915
1789799587632590300,6.19659033203125,-0.4507506489753723,-0.009342901408672333,0.18260683119297028
1789799587642561300,6.206561279296875,-0.5077436566352844,-0.08275586366653442,0.16465206444263458
1789799587652533200,6.216533203125,-0.4812113642692566,-0.1845991462469101,0.217429518699646
1789799587662504200,6.226504150390625,-0.4564301073551178,-0.17605865001678467,0.31431931257247925
1789799587672476400,6.236476318359375,-0.5231968760490417,-0.1266908347606659,0.40518316626548767
1789799587682447000,6.246447021484375,-0.643541693687439,-0.010393518954515457,0.4751042127609253
1789799587692419300,6.25641943359375,-0.6897467374801636,0.12279915809631348,0.49166613817214966
1789799587702390300,6.266390380859375,-0.7277036905288696,0.1906128227710724,0.43204647302627563
1789799587712362200,6.2763623046875,-0.8142181038856506,0.03411056473851204,0.32132503390312195
1789799587722333200,6.286333251953125,-0.9374971389770508,-0.3901882469654083,0.2504551112651825
1789799587732305400,6.296305419921875,-1.113378643989563,-0.6930255889892578,0.2173568159341812
1789799587742276000,6.306276123046875,-1.3258981704711914,-0.6208789944648743,0.20054668188095093
1789799587752248300,6.316248291015625,-1.5253742933273315,-0.25531166791915894,0.15672969818115234
1789799587762219300,6.32621923828125,-1.6170951128005981,-0.10301027446985245,0.04240764304995537
1789799587772191200,6.336191162109375,-1.6480159759521484,-0.26893186569213867,-0.1087520495057106
1789799587782162200,6.346162109375,-1.6417938470840454,-0.5015168786048889,-0.15851294994354248
1789799587792134400,6.356134521484375,-1.6728121042251587,-0.3853077292442322,-0.08652476966381073
1789799587802105000,6.36610498046875,-1.797402262687683,-0.042819369584321976,-0.0621589794754982
1789799587812077300,6.376077392578125,-1.8058842420578003,0.08365601301193237,-0.1776387095451355
1789799587822048300,6.38604833984375,-1.7378859519958496,-0.15075568854808807,-0.2799147367477417
1789799587832020200,6.396020263671875,-1.7012078762054443,-0.5045561194419861,-0.2937075197696686
1789799587841991200,6.4059912109375,-1.662535309791565,-0.5880456566810608,-0.295169860124588
1789799587851963400,6.41596337890625,-1.5795596837997437,-0.40685510635375977,-0.3254358768463135
1789799587861934000,6.42593408203125,-1.484133005142212,-0.21336287260055542,-0.31698593497276306
1789799587871906300,6.43590625,-1.4685287475585938,-0.15209871530532837,-0.20632068812847137
1789799587881877200,6.445877197265625,-1.5276967287063599,-0.09923364222049713,-0.11238832771778107
1789799587891849200,6.45584912109375,-1.5998932123184204,0.03912369906902313,-0.1015481948852539
1789799587901820200,6.465820068359375,-1.6348490715026855,0.17744562029838562,-0.07786870002746582
1789799587911792400,6.47579248046875,-1.6652040481567383,-0.07466624677181244,-0.01525698322802782
1789799587921763000,6.48576318359375,-1.7446554899215698,-0.6086058020591736,0.0754806399345398
1789799587931735300,6.4957353515625,-1.9067442417144775,-0.9381051659584045,0.11240936815738678
1789799587941706200,6.505706298828125,-1.9975687265396118,-0.8436201810836792,0.09365592151880264
1789799587951678200,6.51567822265625,-1.9769296646118164,-0.8275480270385742,0.11436652392148972
1789799587961649200,6.525649169921875,-1.8781919479370117,-1.0279748439788818,0.16633199155330658
1789799587971621400,6.535621337890625,-1.8040971755981445,-1.1267706155776978,0.18646149337291718
1789799587981592000,6.545592041015625,-1.6846706867218018,-1.107697606086731,0.19105038046836853
1789799587991564300,6.555564208984375,-1.495156168937683,-1.0532282590866089,0.19970352947711945
1789799588001535200,6.56553515625,-1.302616834640503,-0.8856582045555115,0.21370908617973328
1789799588011507200,6.575507080078125,-1.1125285625457764,-0.6650112867355347,0.2578805387020111
1789799588021478100,6.58547802734375,-0.9262916445732117,-0.6244305968284607,0.23687326908111572
1789799588031450400,6.595450439453125,-0.8190498352050781,-0.4590008556842804,0.19822600483894348
1789799588041421000,6.605421142578125,-0.7585633397102356,-0.2199464738368988,0.21488328278064728
1789799588051393300,6.615393310546875,-0.6562963724136353,-0.1632927805185318,0.19155345857143402
1789799588061364200,6.6253642578125,-0.5244835019111633,-0.22832931578159332,0.164488285779953
1789799588071336200,6.635336181640625,-0.5337778925895691,-0.30538442730903625,0.16778820753097534
1789799588081307100,6.64530712890625,-0.5448668003082275,-0.37785807251930237,0.18311601877212524
1789799588091279400,6.655279296875,-0.41432979702949524,-0.20410387217998505,0.22018375992774963
1789799588101250000,6.66525,-0.2437964230775833,0.09680856764316559,0.2253979742527008
1789799588111222300,6.67522216796875,-0.16493941843509674,0.33126235008239746,0.2727939784526825
1789799588121193200,6.685193115234375,-0.05933443084359169,0.3932577967643738,0.2261849343776703
1789799588131165200,6.695165283203125,0.09920967370271683,0.3281557857990265,0.09280264377593994
1789799588141136100,6.70513623046875,0.19239234924316406,0.15504764020442963,0.05933975428342819
1789799588151108400,6.7151083984375,0.3242470622062683,0.2236517369747162,0.045704104006290436
1789799588161079300,6.725079345703125,0.5597048401832581,0.34217706322669983,0.050096724182367325
1789799588171051300,6.73505126953125,0.7059121131896973,0.38714930415153503,0.1675967276096344
1789799588181022200,6.745022216796875,0.7195083498954773,0.30807021260261536,0.26549986004829407
1789799588190994200,6.754994140625,0.7638041973114014,0.22843264043331146,0.26860907673835754
1789799588200965000,6.764965087890625,0.844981849193573,0.20391690731048584,0.20941448211669922
1789799588210937300,6.774937255859375,0.9622517824172974,0.2628614604473114,0.1271457076072693
1789799588220908300,6.784908203125,1.1639471054077148,0.5184727311134338,0.11994265019893646
1789799588230880300,6.79488037109375,1.377720594406128,0.8758960962295532,0.14502589404582977
1789799588240851200,6.804851318359375,1.51857328414917,1.1017122268676758,0.1777644008398056
1789799588250822400,6.814822509765625,1.6458162069320679,1.2295910120010376,0.14101757109165192
1789799588260794000,6.824794189453125,1.7845107316970825,1.180383324623108,0.06853192299604416
1789799588270765300,6.834765380859375,1.925917387008667,1.0776337385177612,0.004658401478081942
1789799588280737300,6.8447373046875,2.0635948181152344,1.1227439641952515,-0.026128007099032402
1789799588290708200,6.854708251953125,2.1346373558044434,1.0830682516098022,-0.061398379504680634
1789799588300680200,6.86468017578125,2.1684505939483643,0.9697808027267456,-0.09226415306329727
1789799588310651400,6.8746513671875,2.2867136001586914,1.1624770164489746,-0.1335868239402771
1789799588320623000,6.884623046875,2.4197092056274414,1.2483136653900146,-0.13214871287345886
1789799588330594300,6.89459423828125,2.53517484664917,1.165076494216919,-0.11192174255847931
1789799588340566300,6.904566162109375,2.454806327819824,0.7352702617645264,-0.15808337926864624
1789799588350537200,6.914537109375,2.1815969944000244,0.310865193605423,-0.19794930517673492
1789799588360509200,6.92450927734375,2.122722625732422,0.26038578152656555,-0.14369192719459534
1789799588370480400,6.93448046875,2.2071855068206787,0.2587601840496063,-0.20163723826408386
1789799588380452000,6.9444521484375,2.2070460319519043,0.16936984658241272,-0.25663790106773376
1789799588390423300,6.95442333984375,2.172743082046509,0.21736347675323486,-0.24210265278816223
1789799588400395300,6.964395263671875,2.0897557735443115,0.2844439744949341,-0.18265768885612488
1789799588410366200,6.9743662109375,1.936983346939087,0.13368962705135345,-0.07791797071695328
1789799588420338200,6.984338134765625,1.83504319190979,-0.271675705909729,-0.009697102010250092
1789799588430309400,6.994309326171875,1.7552851438522339,-0.6257171630859375,0.016698019579052925
1789799588440281000,7.004281005859375,1.605686902999878,-0.6053311824798584,0.01128088403493166
1789799588450252300,7.014252197265625,1.3920058012008667,-0.24672536551952362,-0.022167885676026344
1789799588460224300,7.024224365234375,1.2266980409622192,0.017191236838698387,-0.07788414508104324
1789799588470195200,7.0341953125,1.1237980127334595,-0.03906058520078659,-0.03263410925865173
1789799588480167200,7.044167236328125,1.1560726165771484,-0.36963316798210144,0.07387528568506241
1789799588490138400,7.054138427734375,1.1928162574768066,-0.6649367213249207,0.08789123594760895
1789799588500110000,7.064110107421875,1.1387258768081665,-0.662304699420929,0.056715209037065506
1789799588510081300,7.074081298828125,1.0773807764053345,-0.3661172688007355,0.07488276064395905
1789799588520053200,7.08405322265625,1.069591760635376,-0.1325351446866989,0.12568841874599457
1789799588530024200,7.094024169921875,0.9718862771987915,-0.12674595415592194,0.16911818087100983
1789799588539996200,7.10399609375,0.7780606150627136,-0.22127805650234222,0.18759945034980774
1789799588549967400,7.11396728515625,0.6544926166534424,-0.1692047417163849,0.19094865024089813
1789799588559939000,7.12393896484375,0.5720121264457703,0.022910375148057938,0.1742120087146759
1789799588569910300,7.13391015625,0.48004570603370667,0.021997710689902306,0.13113059103488922
1789799588579882200,7.14388232421875,0.32468461990356445,-0.3262878358364105,0.0781661719083786
1789799588589853200,7.153853271484375,0.13044962286949158,-0.847821056842804,0.09669618308544159
1789799588599825400,7.163825439453125,-0.06024150177836418,-0.5936793088912964,0.24650351703166962
1789799588609796400,7.17379638671875,-0.31958651542663574,-0.05760124325752258,0.4201522767543793
1789799588619768300,7.183768310546875,-0.5651217103004456,0.15050029754638672,0.5021459460258484
1789799588629739300,7.1937392578125,-0.7159932255744934,0.03269163519144058,0.4930645525455475
1789799588639711500,7.20371142578125,-0.8894124627113342,0.15475842356681824,0.47329673171043396
1789799588649682200,7.21368212890625,-0.9828515648841858,0.2645736038684845,0.4425705075263977
1789799588659654400,7.223654296875,-1.0044947862625122,0.038952458649873734,0.40300339460372925
1789799588669625300,7.233625244140625,-1.0325493812561035,-0.31932657957077026,0.32175832986831665
1789799588679597300,7.243597412109375,-1.0118099451065063,-0.5300840735435486,0.21129173040390015
1789799588689568300,7.253568359375,-1.0284265279769897,-0.5828059315681458,0.12329503893852234
1789799588699540500,7.26354052734375,-1.098258376121521,-0.4024377167224884,0.05212045833468437
1789799588709511200,7.27351123046875,-1.123995065689087,0.08404030650854111,0.04836247116327286
1789799588719483400,7.2834833984375,-1.0459378957748413,0.5376831889152527,0.07790038734674454
1789799588729454300,7.293454345703125,-0.9064651727676392,0.5336855053901672,0.04015327990055084
1789799588739426300,7.30342626953125,-0.8769451379776001,0.4413188099861145,-0.0022309301421046257
1789799588749397200,7.313397216796875,-0.9122868776321411,0.4009692668914795,-0.026085928082466125
1789799588759369500,7.323369384765625,-1.0035014152526855,0.33869656920433044,-0.007101318798959255
1789799588769340200,7.333340087890625,-1.1371058225631714,0.38005438446998596,0.0030485205352306366
1789799588779312400,7.3433125,-1.2311034202575684,0.43997445702552795,-0.02967480570077896
1789799588789283300,7.353283447265625,-1.2719172239303589,0.30396148562431335,-0.14387354254722595
1789799588799255300,7.36325537109375,-1.3238472938537598,0.008191350847482681,-0.24437831342220306
1789799588809226200,7.373226318359375,-1.369483470916748,-0.36176034808158875,-0.30538973212242126
1789799588819198500,7.383198486328125,-1.427797555923462,-0.5271314382553101,-0.38531494140625
1789799588829169200,7.393169189453125,-1.4431509971618652,-0.34691882133483887,-0.5036492943763733
1789799588839141400,7.403141357421875,-1.4717997312545776,-0.08520304411649704,-0.5771543979644775
1789799588849112300,7.4131123046875,-1.5047142505645752,0.10082461684942245,-0.5450885891914368
1789799588859084300,7.423084228515625,-1.6272773742675781,0.270327627658844,-0.47279444336891174
1789799588869055200,7.43305517578125,-1.681312918663025,0.41182270646095276,-0.41254788637161255
1789799588879027500,7.44302734375,-1.6427993774414062,0.4276951551437378,-0.33822864294052124
1789799588888998100,7.452998046875,-1.6017340421676636,0.24240943789482117,-0.2740432620048523
1789799588898970400,7.462970458984375,-1.6600079536437988,-0.08389010280370712,-0.24595783650875092
1789799588908941300,7.47294140625,-1.8092727661132812,-0.3039260804653168,-0.22732342779636383
1789799588918913300,7.482913330078125,-1.9629987478256226,-0.395179808139801,-0.22980816662311554
1789799588928884200,7.49288427734375,-2.1055400371551514,-0.3871389329433441,-0.21086695790290833
1789799588938856400,7.5028564453125,-2.1437888145446777,-0.30772799253463745,-0.18456478416919708
1789799588948827400,7.512827392578125,-2.0861876010894775,-0.17700380086898804,-0.18589237332344055
1789799588958798300,7.52279833984375,-1.9783896207809448,-0.136735737323761,-0.2094445675611496
1789799588968770300,7.532770263671875,-1.9750322103500366,-0.2011520117521286,-0.19710135459899902
1789799588978741500,7.542741455078125,-1.9285483360290527,-0.39051157236099243,-0.1785212755203247
1789799588988713200,7.552713134765625,-1.9091743230819702,-0.8730949759483337,-0.1390548199415207
1789799588998684400,7.562684326171875,-1.8858280181884766,-1.2692055702209473,-0.08991257846355438
1789799589008656400,7.572656494140625,-1.7265912294387817,-1.453099012374878,-0.08480170369148254
1789799589018627300,7.58262744140625,-1.560327410697937,-1.640807867050171,-0.05079473555088043
1789799589028599300,7.592599365234375,-1.384206771850586,-1.5645339488983154,0.048357944935560226
1789799589038570500,7.602570556640625,-1.2230322360992432,-1.3394345045089722,0.13777810335159302
1789799589048542200,7.612542236328125,-1.0649560689926147,-1.084291934967041,0.16630375385284424
1789799589058513400,7.622513427734375,-0.8760876059532166,-0.6073660850524902,0.12466150522232056
1789799589068485400,7.6324853515625,-0.6773579716682434,-0.2551247179508209,0.19957250356674194
1789799589078456300,7.642456298828125,-0.5115780830383301,-0.04676830396056175,0.2676679193973541
1789799589088428300,7.65242822265625,-0.3315286636352539,0.136492058634758,0.252994179725647
1789799589098399500,7.6623994140625,-0.22316837310791016,0.42065533995628357,0.24480335414409637
1789799589108371200,7.67237109375,-0.161653071641922,0.7133846879005432,0.2489994317293167
1789799589118342400,7.68234228515625,-0.14489540457725525,0.9942507147789001,0.3406963348388672
1789799589128314400,7.692314453125,-0.09304605424404144,0.8264971375465393,0.45377281308174133
1789799589138285300,7.702285400390625,0.009615343064069748,0.1294914186000824,0.4076729714870453
1789799589148257300,7.71225732421875,0.08536390215158463,-0.0644514262676239,0.22447597980499268
1789799589158228500,7.722228515625,0.27648165822029114,-0.047079894691705704,0.1421600729227066
1789799589168200200,7.7322001953125,0.4153575301170349,0.11486586183309555,0.22059042751789093
1789799589178171400,7.74217138671875,0.5683755874633789,0.3385612666606903,0.40789321064949036
1789799589188143400,7.752143310546875,0.7018542885780334,0.4569787383079529,0.5503073334693909
1789799589198114300,7.7621142578125,0.7774134874343872,0.2880632281303406,0.5000220537185669
1789799589208086300,7.772086181640625,0.8239570260047913,-0.04657655581831932,0.2762065529823303
1789799589218057500,7.782057373046875,0.9947303533554077,0.35134339332580566,0.04844822734594345
1789799589228029200,7.792029296875,1.3026008605957031,0.9896389245986938,-0.0032687638886272907
1789799589238000400,7.80200048828125,1.4970935583114624,1.2788769006729126,0.05434020236134529
1789799589247972400,7.811972412109375,1.6117826700210571,1.2127074003219604,0.047511059790849686
1789799589257943300,7.821943359375,1.7118275165557861,1.0661736726760864,-0.04875315725803375
1789799589267915300,7.831915283203125,1.7858175039291382,0.8472926616668701,-0.1312650740146637
1789799589277886500,7.841886474609375,1.8022428750991821,0.8681244850158691,-0.1115422397851944
1789799589287858200,7.851858154296875,1.8630300760269165,1.2023948431015015,-0.041603900492191315
1789799589297829400,7.861829345703125,1.8538767099380493,1.2761476039886475,-0.09855932742357254
1789799589307801300,7.87180126953125,1.8959916830062866,1.2451473474502563,-0.24143259227275848
1789799589317772300,7.881772216796875,2.0256099700927734,1.1420234441757202,-0.3259221911430359
1789799589327744300,7.891744140625,2.2056214809417725,1.1109669208526611,-0.32085737586021423
1789799589337715500,7.901715576171875,2.3681914806365967,1.1209639310836792,-0.2938387989997864
1789799589347687200,7.911687255859375,2.2831714153289795,1.137191653251648,-0.3360017240047455
1789799589357658400,7.921658447265625,2.092724323272705,1.1380760669708252,-0.42313316464424133
1789799589367630300,7.93163037109375,2.1415209770202637,1.0213919878005981,-0.5024298429489136
1789799589377601300,7.941601318359375,2.363837957382202,0.7754459381103516,-0.527810275554657
1789799589387573200,7.9515732421875,2.4202322959899902,0.5426132082939148,-0.48162123560905457
1789799589397544400,7.96154443359375,2.2470462322235107,0.5518807172775269,-0.4687965214252472
1789799589407515400,7.971515380859375,2.06758713722229,0.6304141879081726,-0.46545344591140747
1789799589417487400,7.9814873046875,1.9865301847457886,0.5597178936004639,-0.4534947872161865
1789799589427458300,7.991458251953125,1.9484272003173828,0.290275514125824,-0.4298589527606964
1789799589437430300,8.00143017578125,1.914799451828003,0.03875138983130455,-0.41384562849998474
1789799589447401200,8.011401123046875,1.861720323562622,-0.07326755672693253,-0.3937707245349884
1789799589457373400,8.02137353515625,1.7979066371917725,-0.09748581051826477,-0.4389725625514984
1789799589467344400,8.031344482421876,1.7506102323532104,-0.07925514131784439,-0.5726214647293091
1789799589477316400,8.04131640625,1.7446857690811157,-0.09755132347345352,-0.6686733961105347
1789799589487287300,8.051287353515624,1.703768253326416,-0.15316371619701385,-0.6230899691581726
1789799589497259300,8.06125927734375,1.5472997426986694,-0.15736006200313568,-0.504266083240509
1789799589507230200,8.071230224609375,1.2966238260269165,-0.15357384085655212,-0.4561217129230499
1789799589517202400,8.081202392578126,1.0029568672180176,-0.000046871635277057067,-0.4774736166000366
1789799589527173400,8.09117333984375,0.8306716084480286,0.13578791916370392,-0.509947657585144
1789799589537145300,8.101145263671874,0.7606738805770874,0.04610544443130493,-0.5392608046531677
1789799589547116300,8.1111162109375,0.6344922780990601,-0.008386827073991299,-0.4540758728981018
1789799589557088300,8.121088134765625,0.5217071175575256,-0.07714911550283432,-0.33721503615379333
1789799589567059200,8.13105908203125,0.38031965494155884,-0.28811487555503845,-0.29304999113082886
1789799589577031400,8.141031494140625,0.22326664626598358,-0.5055286884307861,-0.26319247484207153
1789799589587003000,8.1510029296875,0.09067370742559433,-0.5795525908470154,-0.1923135221004486
1789799589596974800,8.160974853515626,-0.028391428291797638,-0.4108474552631378,-0.14733752608299255
1789799589606946000,8.170946044921875,-0.16407601535320282,-0.08156409859657288,-0.14005590975284576
1789799589616917800,8.180917724609374,-0.2813672423362732,0.053396910429000854,-0.14803446829319
1789799589626889000,8.190888916015625,-0.40749213099479675,-0.03184448182582855,-0.16000671684741974
1789799589636861000,8.20086083984375,-0.5327813625335693,-0.2099636197090149,-0.17989785969257355
1789799589646831900,8.210831787109376,-0.6142828464508057,-0.29066377878189087,-0.15426333248615265
1789799589656803800,8.220803955078125,-0.7211642861366272,-0.005950300954282284,-0.08497081696987152
1789799589666775000,8.230775146484374,-0.816507875919342,0.25038427114486694,-0.035949744284152985
1789799589676746800,8.240746826171875,-0.8685681223869324,0.3497990071773529,0.017829064279794693
1789799589686718000,8.250718017578125,-0.9028459787368774,0.42511773109436035,0.0691031739115715
1789799589696689000,8.26068896484375,-0.9548236727714539,0.35806387662887573,0.08002958446741104
1789799589706660900,8.270660888671875,-0.98588627576828,0.07218471169471741,0.06288522481918335
1789799589716631800,8.2806318359375,-1.001754641532898,-0.2854839563369751,0.09852364659309387
1789799589726604000,8.29060400390625,-1.0170681476593018,-0.42785388231277466,0.16821138560771942
1789799589736575000,8.300574951171875,-1.0964401960372925,-0.36616894602775574,0.23267212510108948
1789799589746547000,8.310546875,-1.2229722738265991,-0.19277557730674744,0.2743029296398163
1789799589756518000,8.320517822265625,-1.3521976470947266,-0.039575640112161636,0.26966264843940735
1789799589766489900,8.33048974609375,-1.4735286235809326,-0.01654062792658806,0.2155197709798813
1789799589776460800,8.340460693359375,-1.5702764987945557,-0.12940406799316406,0.1528920829296112
1789799589786433000,8.35043310546875,-1.6406654119491577,-0.24934032559394836,0.13852618634700775
1789799589796404000,8.360404052734374,-1.6949392557144165,-0.2615746259689331,0.09419813752174377
1789799589806376000,8.3703759765625,-1.7191368341445923,-0.16445046663284302,0.0019507654942572117
1789799589816347000,8.380346923828125,-1.7060202360153198,-0.20827198028564453,-0.08165065199136734
1789799589826319000,8.390319091796876,-1.688755989074707,-0.43448302149772644,-0.08524219691753387
1789799589836289800,8.400289794921875,-1.649599552154541,-0.7572354674339294,-0.02009887620806694
1789799589846262000,8.410261962890624,-1.6059622764587402,-0.914384126663208,0.030101709067821503
1789799589856233000,8.42023291015625,-1.5912952423095703,-0.7274730801582336,0.07385984063148499
1789799589866205000,8.430204833984375,-1.6318479776382446,-0.2432621866464615,0.05227518826723099
1789799589876176000,8.44017578125,-1.5949733257293701,0.29084089398384094,-0.02382810041308403
1789799589886148000,8.450148193359375,-1.5250799655914307,0.5225750803947449,-0.05157797411084175
1789799589896118800,8.460118896484374,-1.4911401271820068,0.288929283618927,0.003486344125121832
1789799589906091000,8.470091064453126,-1.4793756008148193,-0.3361034393310547,0.09814547747373581
1789799589916062000,8.48006201171875,-1.4686577320098877,-0.8574917912483215,0.14567890763282776
1789799589926034000,8.490033935546874,-1.4000413417816162,-0.970425009727478,0.10562549531459808
1789799589936004900,8.5000048828125,-1.3278342485427856,-1.054636001586914,0.05345390364527702
1789799589945976000,8.50997607421875,-1.2011394500732422,-1.2693661451339722,0.014688132330775261
1789799589955947800,8.51994775390625,-1.0699172019958496,-1.4341354370117188,-0.032278046011924744
1789799589965919000,8.5299189453125,-0.9725203514099121,-1.4587332010269165,-0.06402186304330826
1789799589975891000,8.539890869140624,-0.9511964321136475,-1.3256821632385254,-0.08339741826057434
1789799589985862100,8.549862060546875,-0.9623252749443054,-0.972825288772583,-0.12466549873352051
1789799589995833900,8.559833740234374,-0.9969702959060669,-0.6097304821014404,-0.09791218489408493
1789799590005805000,8.56980517578125,-1.0374112129211426,-0.2841009497642517,-0.06281597912311554
1789799590015776800,8.57977685546875,-1.0991137027740479,0.07113835960626602,-0.0496533066034317
1789799590025748000,8.589748046875,-1.2013496160507202,0.4386380612850189,-0.03279682993888855
1789799590035720000,8.599719970703125,-1.2487809658050537,0.6165226101875305,0.07559222728013992
1789799590045691100,8.609691162109375,-1.3285813331604004,0.7271460294723511,0.1762184351682663
1789799590055662800,8.619662841796876,-1.4473813772201538,0.7381283640861511,0.17922887206077576
1789799590065634000,8.629634033203125,-1.5044636726379395,0.5753945708274841,0.2665430009365082
1789799590075605800,8.639605712890624,-1.4249991178512573,0.2996061444282532,0.4257134795188904
1789799590085577000,8.649576904296875,-1.23650324344635,0.19093559682369232,0.6136863231658936
1789799590095549000,8.659548828125,-1.0649265050888062,-0.09136852622032166,0.7165466547012329
1789799590105520000,8.66952001953125,-1.016095519065857,-0.7266315221786499,0.6186184883117676
1789799590115491800,8.679491943359375,-0.9801045060157776,-1.1089285612106323,0.41101551055908203
1789799590125463000,8.689463134765624,-0.7894112467765808,-1.1517359018325806,0.26505351066589355
1789799590135434800,8.699434814453125,-0.5664604902267456,-1.1278172731399536,0.23450970649719238
1789799590145406000,8.709406005859375,-0.23725488781929016,-0.9322813153266907,0.2614284157752991
1789799590155378000,8.7193779296875,0.1513756662607193,-0.6884194016456604,0.22398489713668823
1789799590165349000,8.72934912109375,0.5219031572341919,-0.32271626591682434,0.13944843411445618
1789799590175320800,8.73932080078125,0.935751736164093,0.2195264995098114,0.06614705920219421
1789799590185292000,8.7492919921875,1.2417696714401245,0.8149941563606262,0.09180635213851929
1789799590195263000,8.759262939453125,1.3114848136901855,0.9041396975517273,0.11544164270162582
1789799590205235000,8.76923486328125,1.2199277877807617,0.8990480303764343,0.04043983295559883
1789799590215206000,8.779205810546875,1.2336283922195435,1.1658538579940796,-0.07099561393260956
1789799590225178000,8.78917822265625,1.331302523612976,1.5497863292694092,-0.1487324833869934
1789799590235148800,8.799148681640625,1.4668041467666626,2.0755105018615723,-0.1800539195537567
1789799590245121000,8.80912109375,1.569888949394226,2.3210620880126953,-0.1855379045009613
1789799590255092000,8.819092041015624,1.7423135042190552,2.035918951034546,-0.16281288862228394
1789799590265064000,8.82906396484375,1.9490629434585571,1.2593958377838135,-0.0373644158244133
1789799590275035000,8.839034912109375,2.1488277912139893,0.5258345007896423,0.1028752475976944
1789799590285007000,8.849007080078126,2.3962879180908203,0.5216565132141113,0.029457490891218185
1789799590294977800,8.858977783203125,2.4621119499206543,0.928208589553833,-0.06990691274404526
1789799590304950000,8.868949951171874,2.2440130710601807,1.1356011629104614,-0.28725627064704895
1789799590314921000,8.8789208984375,1.7506728172302246,1.0429357290267944,-0.5755890011787415
1789799590324893000,8.888892822265625,1.630417823791504,0.9629146456718445,-0.6097009181976318
1789799590334864000,8.89886376953125,1.715149998664856,0.7393355965614319,-0.4464709758758545
1789799590344836000,8.908836181640625,1.8600624799728394,0.2982117235660553,-0.2891708314418793
1789799590354806800,8.918806884765624,2.076577663421631,-0.10446435958147049,-0.2000151127576828
1789799590364777700,8.92877783203125,2.264822244644165,-0.28161942958831787,-0.0933656319975853
1789799590374750000,8.93875,2.4043312072753906,-0.40897151827812195,0.04650837928056717
1789799590384721000,8.948720947265626,2.530819892883301,-0.3931635320186615,0.14570127427577972
1789799590394692900,8.95869287109375,2.633178949356079,-0.17754176259040833,0.21787400543689728
1789799590404663800,8.968663818359374,2.6849186420440674,0.09237360954284668,0.2490987777709961
1789799590414635800,8.9786357421875,2.6330490112304688,0.11030600219964981,0.2789061963558197
1789799590424606700,8.988606689453125,2.4992411136627197,0.10764949768781662,0.3406665027141571
1789799590434579000,8.998578857421874,2.3013434410095215,0.32971450686454773,0.4092378318309784
1789799590444550100,9.008550048828125,2.1297149658203125,0.6756290793418884,0.39484983682632446
1789799590454521900,9.01852197265625,2.006977081298828,0.9762296080589294,0.24899384379386902
1789799590464493000,9.0284931640625,1.8513009548187256,0.9835360050201416,0.020258933305740356
1789799590474464800,9.03846484375,1.660374641418457,0.6520510315895081,-0.19690640270709991
1789799590484436000,9.04843603515625,1.4538127183914185,0.11456999182701111,-0.29832038283348083
1789799590494408000,9.058407958984375,1.2263803482055664,-0.3348914384841919,-0.20521840453147888
1789799590504379100,9.068379150390625,0.9857352375984192,-0.6741605997085571,-0.13049648702144623
1789799590514350800,9.078350830078126,0.6942144632339478,-0.9135734438896179,-0.2076525241136551
1789799590524322000,9.088322021484375,0.3675660192966461,-0.9399589896202087,-0.3587099611759186
1789799590534294000,9.0982939453125,0.04620105028152466,-0.7857694029808044,-0.47109028697013855
1789799590544265000,9.108264892578125,-0.26939764618873596,-0.3695569932460785,-0.4703539311885834
1789799590554236000,9.11823583984375,-0.4627615213394165,0.11039255559444427,-0.44411274790763855
1789799590564208000,9.1282080078125,-0.5129935145378113,0.3856406509876251,-0.48203349113464355
1789799590574178800,9.1381787109375,-0.5358991026878357,0.48208463191986084,-0.56238853931427
1789799590584150300,9.148150390625,-0.4326270520687103,0.32589635252952576,-0.5432342290878296
1789799590594121500,9.15812158203125,-0.36764565110206604,0.1253187656402588,-0.4051738679409027
1789799590604093400,9.168093505859375,-0.3788663446903229,-0.023813987150788307,-0.25075018405914307
1789799590614064400,9.178064453125,-0.4231986701488495,-0.1233602836728096,-0.14742140471935272
1789799590624036400,9.188036376953125,-0.4476643204689026,-0.05797142535448074,-0.10051142424345016
1789799590634007600,9.198007568359374,-0.4527725279331207,-0.15596270561218262,-0.09010060131549835
1789799590643979300,9.207979248046875,-0.4395371675491333,-0.5051319003105164,-0.08805449306964874
1789799590653950500,9.217950439453125,-0.39521417021751404,-0.7867984771728516,-0.05480119585990906
1789799590663922400,9.22792236328125,-0.3763089179992676,-0.8615427017211914,-0.02972673624753952
1789799590673893400,9.237893310546875,-0.4174281358718872,-0.7621575593948364,0.03225940093398094
1789799590683865300,9.247865234375,-0.5249854922294617,-0.3454703092575073,0.17796440422534943
1789799590693836500,9.25783642578125,-0.6204164028167725,0.18224650621414185,0.32218095660209656
1789799590703808300,9.267808349609375,-0.7378509044647217,0.49887531995773315,0.35071781277656555
1789799590713779500,9.277779541015626,-0.9114407896995544,0.5249524712562561,0.32245954871177673
1789799590723750400,9.28775048828125,-1.1013380289077759,0.3627590239048004,0.30731385946273804
1789799590733722400,9.297722412109374,-1.2416977882385254,0.0872558057308197,0.32604601979255676
1789799590743693300,9.307693359375,-1.3159682750701904,-0.17178906500339508,0.3409655690193176
1789799590753665500,9.31766552734375,-1.3160223960876465,-0.3806946277618408,0.27680736780166626
1789799590763636200,9.32763623046875,-1.1856169700622559,-0.5590134859085083,0.1469431072473526
1789799590773608400,9.3376083984375,-1.0582510232925415,-0.6317270994186401,0.05329171568155289
1789799590783579400,9.347579345703124,-1.0267324447631836,-0.6934149861335754,0.005356948357075453
1789799590793551400,9.35755126953125,-1.0593719482421875,-0.8628748655319214,0.000013315805517777335
1789799590803522300,9.367522216796875,-1.1469656229019165,-0.9889163970947266,0.05826304107904434
1789799590813494500,9.37749462890625,-1.2657711505889893,-0.8066264986991882,0.12511876225471497
1789799590823465500,9.387465576171875,-1.3435688018798828,-0.2617266774177551,0.06268628686666489
1789799590833437400,9.3974375,-1.3487582206726074,0.11971494555473328,-0.17546716332435608
1789799590843408400,9.407408447265626,-1.292763113975525,0.039503734558820724,-0.4668007493019104
1789799590853380400,9.41738037109375,-1.2603683471679688,-0.24751712381839752,-0.5560120940208435
1789799590863351300,9.427351318359374,-1.3218914270401,-0.4848202168941498,-0.4022931158542633
1789799590873322500,9.437322509765625,-1.5006054639816284,-0.32611340284347534,-0.21322892606258392
1789799590883294500,9.44729443359375,-1.723567008972168,0.15604498982429504,-0.1549014300107956
1789799590893265400,9.457265380859376,-1.849561095237732,0.5587527751922607,-0.21550431847572327
1789799590903237400,9.4672373046875,-1.8435004949569702,0.7042289972305298,-0.22747336328029633
1789799590913208600,9.47720849609375,-1.7925212383270264,0.5515816807746887,-0.1393435150384903
1789799590923180300,9.48718017578125,-1.7331650257110596,0.16096732020378113,-0.05211912840604782
1789799590933151500,9.4971513671875,-1.6800516843795776,-0.2869097888469696,-0.0033771544694900513
1789799590943123500,9.50712353515625,-1.6075007915496826,-0.6244332194328308,0.02906893566250801
1789799590953094400,9.517094482421875,-1.6025952100753784,-0.8486788868904114,0.058168765157461166
1789799590963066400,9.52706640625,-1.7180923223495483,-0.9369157552719116,0.09249264746904373
1789799590973037600,9.53703759765625,-1.7773369550704956,-1.0694341659545898,0.06827066838741302
1789799590983009300,9.54700927734375,-1.7891545295715332,-1.2461708784103394,0.02473144605755806
1789799590992980500,9.55698046875,-1.8204703330993652,-1.3608993291854858,0.017471667379140854
1789799591002951400,9.566951416015625,-1.8377652168273926,-1.3372893333435059,0.07506066560745239
1789799591012923400,9.57692333984375,-1.8039581775665283,-1.2032321691513062,0.11627068370580673
1789799591022894300,9.586894287109375,-1.7280948162078857,-1.0163371562957764,0.11053662747144699
1789799591032866600,9.596866455078125,-1.6487486362457275,-0.8617603182792664,0.17836467921733856
1789799591042837500,9.60683740234375,-1.5464822053909302,-0.623210072517395,0.31095680594444275
1789799591052809500,9.6168095703125,-1.4241424798965454,-0.18176473677158356,0.38798582553863525
1789799591062780400,9.626780517578124,-1.2708479166030884,0.25117629766464233,0.34519892930984497
1789799591072752400,9.63675244140625,-1.0668500661849976,0.36164823174476624,0.29493284225463867
1789799591082723300,9.646723388671875,-0.8399612903594971,0.1274394541978836,0.40287208557128906
1789799591092695600,9.656695556640624,-0.6898537874221802,-0.037284787744283676,0.5061681270599365
1789799591102666500,9.66666650390625,-0.5394608378410339,-0.16873788833618164,0.49584490060806274
1789799591112638500,9.676638427734375,-0.35334181785583496,-0.22608879208564758,0.470863401889801
1789799591122609400,9.686609375,-0.13478870689868927,-0.08107966929674149,0.43281668424606323
1789799591132581400,9.696581298828125,0.060088369995355606,0.07514534890651703,0.3850227892398834
1789799591142552300,9.70655224609375,0.17273715138435364,0.14080026745796204,0.3803694546222687
1789799591152523500,9.7165234375,0.24970410764217377,0.1315194070339203,0.3385378420352936
1789799591162495500,9.72649560546875,0.3846227824687958,0.39868906140327454,0.251382440328598
1789799591172466400,9.736466552734376,0.4928637742996216,0.5542600154876709,0.21771074831485748
1789799591182438400,9.7464384765625,0.5861380696296692,0.6167923808097839,0.21132422983646393
1789799591192409600,9.75640966796875,0.7314169406890869,0.588688850402832,0.15928952395915985
1789799591202381300,9.76638134765625,0.8589363098144531,0.47404053807258606,0.10582762956619263
1789799591212352500,9.7763525390625,0.945399820804596,0.2967075705528259,0.09500214457511902
1789799591222324500,9.786324462890626,1.0062665939331055,0.13006532192230225,0.08299688249826431
1789799591232295400,9.79629541015625,1.0626270771026611,0.033372871577739716,0.07486385107040405
1789799591242267400,9.806267333984374,1.143255352973938,0.12026169896125793,0.07171573489904404
1789799591252238600,9.816238525390625,1.268790602684021,0.44059497117996216,0.036001142114400864
1789799591262210300,9.826210205078125,1.4476783275604248,0.8501438498497009,0.019884224981069565
1789799591272181500,9.836181396484376,1.5259555578231812,1.0007842779159546,-0.001088966615498066
1789799591282153500,9.846153564453125,1.5908807516098022,1.0361281633377075,-0.11526267975568771
1789799591292124400,9.85612451171875,1.758416771888733,1.1760790348052979,-0.2722315192222595
1789799591302095400,9.866095458984375,1.9261327981948853,1.305470585823059,-0.36799293756484985
1789799591312067600,9.876067626953125,2.050542116165161,1.3782402276992798,-0.38824599981307983
1789799591322038500,9.88603857421875,2.134986639022827,1.4042593240737915,-0.38957837224006653
1789799591332010500,9.896010498046875,2.19027042388916,1.417694091796875,-0.38079899549484253
1789799591341981400,9.9059814453125,2.208951473236084,1.337294578552246,-0.3254249691963196
1789799591351953400,9.915953369140626,2.195960283279419,1.2532449960708618,-0.2617035210132599
1789799591361924400,9.92592431640625,2.1706080436706543,1.2174206972122192,-0.2502055764198303
1789799591371896600,9.935896484375,2.111283302307129,1.0891984701156616,-0.3218885660171509
1789799591381867500,9.945867431640625,2.049569606781006,0.7694032192230225,-0.4246346354484558
1789799591391839500,9.955839599609375,2.0183510780334473,0.48219913244247437,-0.4156046509742737
1789799591401810400,9.965810546875,2.096283435821533,0.5137168169021606,-0.3440369963645935
1789799591411781400,9.975781494140625,2.193943738937378,0.6333234310150146,-0.35771098732948303
1789799591421753300,9.98575341796875,2.2001683712005615,0.5320188999176025,-0.38902443647384644
1789799591431724300,9.995724365234375,2.0430521965026855,0.3486053943634033,-0.37405696511268616
1789799591441696500,10.005696533203125,1.8461247682571411,0.14098188281059265,-0.32485851645469666
1789799591451667200,10.015667236328126,1.6739578247070312,-0.1853160560131073,-0.2833861708641052
1789799591461639400,10.025639404296875,1.4662758111953735,-0.4154616594314575,-0.24627076089382172
1789799591471610400,10.0356103515625,1.2637697458267212,-0.5064408183097839,-0.23133628070354462
1789799591481582300,10.045582275390625,1.1164735555648804,-0.5942193865776062,-0.18225209414958954
1789799591491553300,10.05555322265625,1.0215965509414673,-0.6660006642341614,-0.0627501979470253
1789799591501525500,10.065525390625,1.0151541233062744,-0.6211439967155457,0.020018981769680977
1789799591511496200,10.07549609375,1.0274558067321777,-0.4346065819263458,0.060694240033626556
1789799591521467400,10.08546728515625,0.9918698668479919,-0.2630763649940491,0.07424493879079819
1789799591531439400,10.095439453125,0.8821321725845337,-0.12009098380804062,0.09615982323884964
1789799591541410600,10.10541064453125,0.7852985262870789,-0.034513503313064575,0.1124703511595726
1789799591551382300,10.11538232421875,0.7156918048858643,-0.05444459989666939,0.09379760175943375
1789799591561353500,10.125353515625,0.6439781785011292,-0.017486315220594406,0.10818932205438614
1789799591571325200,10.1353251953125,0.5504154562950134,-0.08125676959753036,0.13971315324306488
1789799591581296400,10.14529638671875,0.4394242465496063,-0.09747462719678879,0.15431979298591614
1789799591591268000,10.15526806640625,0.33649972081184387,-0.12025956809520721,0.14983557164669037
1789799591601239300,10.1652392578125,0.1948871910572052,-0.27114176750183105,0.1219882220029831
1789799591611211000,10.1752109375,0.046182941645383835,-0.43012234568595886,0.11005246639251709
1789799591621182200,10.18518212890625,-0.057547714561223984,-0.496648907661438,0.11493457853794098
1789799591631154200,10.195154296875,-0.1524238884449005,-0.4746282994747162,0.13431119918823242
1789799591641125000,10.205125,-0.24360492825508118,-0.20659951865673065,0.16397589445114136
1789799591651096000,10.215095947265626,-0.31801870465278625,0.03335502743721008,0.15607641637325287
1789799591661068300,10.225068359375,-0.42529404163360596,0.03882622346282005,0.11685418337583542
1789799591671039200,10.235039306640624,-0.5846490859985352,0.23282739520072937,0.13028104603290558
1789799591681011200,10.24501123046875,-0.7148044109344482,0.590721070766449,0.1531570553779602
1789799591690982100,10.254982177734375,-0.7751466035842896,0.629787802696228,0.10990892350673676
1789799591700954000,10.2649541015625,-0.8381713628768921,0.2757037580013275,0.007470166776329279
1789799591710925000,10.274925048828125,-0.9251629710197449,0.021757492795586586,-0.05794452503323555
1789799591720897300,10.284897216796875,-1.0059814453125,0.01455763727426529,-0.06004469469189644
1789799591730868200,10.2948681640625,-1.062337875366211,0.14957670867443085,-0.03665468469262123
1789799591740839200,10.304839111328125,-1.076836347579956,0.04741305485367775,-0.0630229040980339
1789799591750811100,10.31481103515625,-1.1155760288238525,-0.13508112728595734,-0.12437015771865845
1789799591760782300,10.3247822265625,-1.1612963676452637,-0.03274596109986305,-0.2017594873905182
1789799591770754000,10.334754150390625,-1.1890268325805664,0.31324154138565063,-0.3095863461494446
1789799591780725200,10.344725341796876,-1.2389893531799316,0.6573475003242493,-0.3695935010910034
1789799591790697200,10.354697265625,-1.251815676689148,0.732976496219635,-0.29989510774612427
1789799591800668200,10.364668212890624,-1.2430293560028076,0.4468216896057129,-0.17920491099357605
1789799591810640100,10.37464013671875,-1.2282917499542236,0.06311345845460892,-0.15743516385555267
1789799591820611300,10.384611328125,-1.1508322954177856,-0.1291302889585495,-0.2604571580886841
1789799591830583000,10.3945830078125,-1.065698504447937,-0.004673315212130547,-0.40009787678718567
1789799591840554200,10.40455419921875,-1.114485740661621,0.21687771379947662,-0.5285988450050354
1789799591850525200,10.414525146484374,-1.226261854171753,0.301299124956131,-0.5986711382865906
1789799591860497200,10.4244970703125,-1.344320297241211,0.08415136486291885,-0.6167830228805542
1789799591870468000,10.434468017578125,-1.4514914751052856,-0.20944297313690186,-0.6217349171638489
1789799591880440300,10.4444404296875,-1.4767556190490723,-0.216608464717865,-0.5738092064857483
1789799591890411300,10.454411376953125,-1.430458664894104,0.014849253930151463,-0.38795173168182373
1789799591900383200,10.46438330078125,-1.3797858953475952,0.40797391533851624,-0.20156720280647278
1789799591910354200,10.474354248046875,-1.4045884609222412,0.6563717126846313,-0.1550005078315735
1789799591920326100,10.484326171875,-1.4556447267532349,0.6414644122123718,-0.1649351567029953
1789799591930297000,10.494297119140626,-1.4768093824386597,0.21200279891490936,-0.15392112731933594
1789799591940269300,10.504269287109375,-1.5024948120117188,-0.3650253713130951,-0.10520578175783157
1789799591950240300,10.514240234375,-1.550614356994629,-0.7505994439125061,-0.09056425094604492
1789799591960211200,10.524211181640625,-1.5759916305541992,-0.9710494875907898,-0.12799285352230072
1789799591970183200,10.53418310546875,-1.6045100688934326,-1.1143784523010254,-0.08947049081325531
1789799591980154400,10.544154296875,-1.6448071002960205,-1.1165268421173096,-0.030661772936582565
1789799591990126000,10.5541259765625,-1.6211705207824707,-0.9411951899528503,0.028130438178777695
1789799592000097300,10.56409716796875,-1.5201003551483154,-0.687471866607666,0.06512041389942169
1789799592010069200,10.5740693359375,-1.4866126775741577,-0.6867208480834961,0.07318233698606491
1789799592020040200,10.584040283203125,-1.655435562133789,-1.0776773691177368,-0.012675847858190536
1789799592030012200,10.59401220703125,-1.5951507091522217,-1.2794851064682007,-0.08711306750774384
1789799592039983400,10.6039833984375,-1.4566375017166138,-1.2939774990081787,-0.10077907145023346
1789799592049955000,10.613955078125,-1.287603735923767,-1.241355538368225,-0.06712763756513596
1789799592059926300,10.62392626953125,-1.10215163230896,-1.1032572984695435,0.009258213452994823
1789799592069897200,10.633897216796875,-0.9669042825698853,-0.9939900040626526,0.06649007648229599
1789799592079869200,10.643869140625,-0.7876810431480408,-0.8425410985946655,0.048107076436281204
1789799592089840000,10.653840087890625,-0.5398933291435242,-0.7168859243392944,-0.06283754855394363
1789799592099812400,10.663812255859375,-0.326734721660614,-0.34059619903564453,-0.162343367934227
1789799592109783300,10.673783203125,-0.18917684257030487,0.3771646022796631,-0.06849410384893417
1789799592119755300,10.68375537109375,-0.06936389207839966,1.2186195850372314,0.16066505014896393
1789799592129726200,10.693726318359374,-0.06366659700870514,2.071143865585327,0.5412408709526062
1789799592139698200,10.7036982421875,-0.0643496960401535,2.247993230819702,0.6411888003349304
1789799592149669000,10.713669189453125,-0.2284613996744156,1.4503122568130493,0.298679381608963
1789799592159640000,10.72364013671875,-0.4300301969051361,0.8041872978210449,0.2214205414056778
1789799592169612300,10.7336123046875,-0.31045001745224,0.5299951434135437,0.48976969718933105
1789799592179583000,10.7435830078125,-0.19024956226348877,-0.4371001124382019,0.816502034664154
1789799592189555200,10.75355517578125,-0.04303055629134178,-1.5078647136688232,0.858579158782959
1789799592199526100,10.763526123046875,0.0722438395023346,-1.6660789251327515,0.6609009504318237
1789799592209498000,10.773498046875,0.22026924788951874,-1.1944029331207275,0.4314051866531372
1789799592219469000,10.783468994140625,0.5186657905578613,-0.5597743391990662,0.2721971571445465
1789799592229441300,10.793441162109374,0.8398893475532532,0.002222141483798623,0.21177057921886444
1789799592239412000,10.803411865234375,1.0795749425888062,0.2027326077222824,0.21768172085285187
1789799592249383200,10.813383056640625,1.2887574434280396,0.4577292203903198,0.17743124067783356
1789799592259355100,10.823355224609376,1.5122402906417847,1.0411524772644043,0.02744440734386444
1789799592269326300,10.833326416015625,1.6594678163528442,1.523480772972107,-0.1889134645462036
1789799592279298000,10.843298095703124,1.7130669355392456,1.5422104597091675,-0.394022673368454
1789799592289269200,10.853269287109375,1.6994969844818115,1.1880981922149658,-0.502784013748169
1789799592299241000,10.863240966796875,1.7523224353790283,0.8654759526252747,-0.5167938470840454
1789799592309212200,10.873212158203126,2.0162057876586914,0.5869503021240234,-0.486377090215683
1789799592319184100,10.88318408203125,2.504865884780884,0.5576044321060181,-0.3652605414390564
1789799592329155300,10.8931552734375,3.0957109928131104,1.2470227479934692,-0.07216820120811462
1789799592339126000,10.9031259765625,3.215543508529663,3.2920114994049072,0.09857184439897537
1789799592349098200,10.91309814453125,2.6053059101104736,2.9857306480407715,-0.17727172374725342
1789799592359069200,10.923069091796876,2.118993043899536,1.1986116170883179,-0.7364620566368103
1789799592369041200,10.933041259765625,1.883614182472229,0.19183334708213806,-0.5595762133598328
1789799592379012000,10.94301220703125,2.5296790599823,0.8507167100906372,-0.23340396583080292
1789799592388984300,10.952984375,2.1504688262939453,1.1288961172103882,-0.14955326914787292
1789799592398955000,10.962955078125,1.1583051681518555,0.7682921290397644,-0.14915698766708374
1789799592408927200,10.97292724609375,0.47574734687805176,0.5137472152709961,-0.6056219935417175
1789799592418898200,10.982898193359375,0.602377712726593,0.6542704701423645,-0.952430009841919
1789799592428869000,10.992869140625,0.7694500684738159,0.19501475989818573,-1.1460516452789307
1789799592438841000,11.002841064453126,0.8909112811088562,-0.7152923345565796,-1.069220781326294
1789799592448812300,11.012812255859375,1.1916306018829346,-1.566138744354248,-0.6699509024620056
1789799592458784000,11.022783935546874,1.6104291677474976,-1.4040371179580688,-0.18457970023155212
1789799592468755200,11.032755126953125,1.8773341178894043,-0.6004155278205872,-0.05433807149529457
1789799592478727200,11.04272705078125,2.0736083984375,0.05872749537229538,-0.2280113250017166
1789799592488698400,11.052698486328126,2.264932155609131,0.3574201762676239,-0.45037809014320374
1789799592498670000,11.062670166015625,2.334177255630493,0.19219261407852173,-0.5128233432769775
1789799592508641300,11.072641357421874,2.2139105796813965,0.11229351907968521,-0.34702587127685547
1789799592518612200,11.0826123046875,2.020200252532959,0.21987883746623993,-0.005131645128130913
1789799592528584200,11.092584228515625,1.9163281917572021,0.3845471441745758,0.2628382742404938
1789799592538555100,11.10255517578125,1.945429801940918,0.7520260810852051,0.2627972662448883
1789799592548527400,11.11252734375,1.8934931755065918,0.6573102474212646,0.011907259002327919
1789799592558498000,11.122498046875,1.459893822669983,0.14578409492969513,-0.2773812711238861
1789799592568470300,11.13247021484375,0.9273425340652466,-0.11276862770318985,-0.5443857908248901
1789799592578441200,11.142441162109375,0.6032930612564087,-0.42009633779525757,-0.6899121403694153
1789799592588413400,11.152413330078126,0.3766234517097473,-0.646310567855835,-0.6201586127281189
1789799592598384600,11.162384521484375,0.19755089282989502,-0.41349729895591736,-0.48253709077835083
1789799592608355600,11.17235546875,0.005281314719468355,-0.028249481692910194,-0.3126455247402191
1789799592618327600,11.18232763671875,-0.2317189872264862,0.28923872113227844,-0.11705391854047775
1789799592628298500,11.192298583984375,-0.3955222964286804,0.5583348870277405,-0.012677712365984917
1789799592638270700,11.202270751953124,-0.5266497135162354,0.6450200080871582,0.02887638844549656
1789799592648241400,11.212241455078125,-0.6718108654022217,0.5418688654899597,-0.05096837505698204
1789799592658213600,11.222213623046875,-0.7243414521217346,0.5258222222328186,-0.2137969732284546
1789799592668184600,11.2321845703125,-0.7725622653961182,0.6236582398414612,-0.37241536378860474
1789799592678156500,11.242156494140625,-0.861033022403717,0.4045261740684509,-0.295017272233963
1789799592688127500,11.25212744140625,-0.8018801808357239,-0.14555001258850098,-0.014577078633010387
1789799592698098700,11.2620986328125,-0.7112107276916504,-0.9324328899383545,0.05559508502483368
1789799592708070400,11.2720703125,-0.6490898728370667,-1.4165276288986206,-0.0865522027015686
1789799592718041600,11.28204150390625,-0.6738167405128479,-1.3436577320098877,-0.23861603438854218
1789799592728013600,11.292013671875,-0.8530850410461426,-1.030640959739685,-0.3046451210975647
1789799592737984800,11.30198486328125,-1.0350886583328247,-0.847211480140686,-0.28411242365837097
1789799592747956500,11.31195654296875,-1.1730263233184814,-0.7529318332672119,-0.20688952505588531
1789799592757927700,11.321927734375,-1.3566683530807495,-0.5171020030975342,-0.17165830731391907
1789799592767899400,11.3318994140625,-1.5315988063812256,-0.17125163972377777,-0.190567284822464
1789799592777870600,11.34187060546875,-1.6461440324783325,0.20967839658260345,-0.22337982058525085
1789799592787841500,11.351841552734374,-1.6636325120925903,0.43339991569519043,-0.23155945539474487
1789799592797813800,11.361813720703125,-1.6318511962890625,0.32363104820251465,-0.16689977049827576
1789799592807784400,11.371784423828124,-1.724240779876709,0.3027747869491577,-0.040590304881334305
1789799592817756700,11.381756591796876,-1.8853025436401367,0.5215582847595215,0.06748823076486588
1789799592827727600,11.3917275390625,-2.009385108947754,0.5944125056266785,0.12712332606315613
1789799592837699600,11.401699462890624,-1.9240001440048218,0.37037405371665955,0.17904405295848846
1789799592847670500,11.41167041015625,-1.6895887851715088,0.14814738929271698,0.27560868859291077
1789799592857641500,11.421641357421874,-1.43247652053833,-0.039078958332538605,0.367125540971756
1789799592867613400,11.431613525390626,-1.193026065826416,-0.42210277915000916,0.3873666226863861
1789799592877584400,11.44158447265625,-1.0218796730041504,-0.8259623646736145,0.3542520999908447
1789799592887556600,11.451556640625,-0.9309244751930237,-1.0829739570617676,0.28301385045051575
1789799592897527600,11.461527587890625,-0.8902361392974854,-1.245039463043213,0.175977423787117
1789799592907499500,11.47149951171875,-0.8875383734703064,-1.231710433959961,0.08564965426921844
1789799592917470500,11.481470458984376,-0.9153806567192078,-1.1419110298156738,0.05795091763138771
1789799592927441700,11.491441650390625,-0.9165812134742737,-1.1199241876602173,0.08685660362243652
1789799592937413400,11.501413330078124,-0.9150394797325134,-1.0219438076019287,0.14526930451393127
1789799592947384600,11.511384521484375,-0.9471535086631775,-0.7947839498519897,0.22380992770195007
1789799592957356500,11.5213564453125,-1.0477298498153687,-0.5487089157104492,0.28249692916870117
1789799592967327500,11.531327392578126,-1.1762607097625732,-0.2866983413696289,0.3175603747367859
1789799592977299500,11.541299560546875,-1.3533382415771484,-0.15770627558231354,0.32288509607315063
1789799592987270700,11.551270751953124,-1.637203335762024,-0.06468791514635086,0.3560135066509247
1789799592997242400,11.561242431640625,-1.9838813543319702,0.1441614329814911,0.22863984107971191
1789799593007213600,11.571213623046875,-2.186058521270752,0.38567978143692017,-0.08063865453004837
1789799593017184500,11.5811845703125,-2.1389636993408203,0.4731036424636841,-0.03580273687839508
1789799593027156500,11.591156494140625,-1.9564510583877563,0.2304033786058426,0.38373035192489624
1789799593037127400,11.60112744140625,-1.8297431468963623,-0.19182030856609344,0.7153415679931641
1789799593047099600,11.611099609375,-1.7704284191131592,-1.0141279697418213,0.6839679479598999
1789799593057070600,11.621070556640625,-1.5587550401687622,-1.2810736894607544,0.5452305674552917
1789799593067042600,11.63104248046875,-1.0493615865707397,-1.0075284242630005,0.49769127368927
1789799593077013500,11.641013427734375,-0.6796730756759644,-0.8348038196563721,0.4471718966960907
1789799593086984700,11.650984619140624,-0.5582057237625122,-1.1126610040664673,0.36275315284729004
1789799593096956400,11.660956298828125,-0.480695515871048,-0.8505414724349976,0.503083348274231
1789799593106927600,11.670927734375,-0.38207146525382996,-0.3801838159561157,0.7563782334327698
1789799593116899600,11.680899658203124,-0.42360424995422363,-0.27805984020233154,0.8189460039138794
1789799593126870500,11.69087060546875,-0.4068838655948639,-0.07452749460935593,0.5816429257392883
1789799593136842500,11.700842529296875,-0.23878301680088043,0.28319868445396423,0.34969356656074524
1789799593146813700,11.710813720703126,-0.07925860583782196,0.6718260645866394,0.3386867046356201
1789799593156784600,11.72078466796875,-0.08249940723180771,0.8443626761436462,0.42713481187820435
1789799593166756600,11.730756591796874,-0.14892689883708954,0.6991130709648132,0.4278474748134613
1789799593176727600,11.7407275390625,-0.11810027807950974,0.3137935996055603,0.32791927456855774
1789799593186699500,11.750699462890625,-0.06539978086948395,-0.04639706015586853,0.2136952430009842
1789799593196670500,11.76067041015625,0.06310786306858063,0.03413400053977966,0.21785403788089752
1789799593206642700,11.770642578125,0.14179974794387817,0.8223234415054321,0.27447736263275146
1789799593216613600,11.780613525390624,0.005685050040483475,0.8385133147239685,0.3496837019920349
1789799593226584300,11.790584228515625,0.05054759606719017,0.6112229228019714,0.4501940608024597
1789799593236556500,11.800556640625,0.24317510426044464,0.16344670951366425,0.14804565906524658
1789799593246527500,11.810527587890626,0.2564474940299988,0.4958731234073639,-0.003739610780030489
1789799593256499500,11.82049951171875,0.35248827934265137,0.8547013401985168,0.011000453494489193
1789799593266470400,11.830470458984376,0.41772881150245667,0.7798023223876953,0.0544416718184948
1789799593276442600,11.840442626953125,0.5465040802955627,0.6516278386116028,0.1982254683971405
1789799593286413300,11.850413330078124,0.7046548128128052,0.6913608908653259,0.25186607241630554
1789799593296385500,11.860385498046876,0.9521685242652893,0.7246666550636292,0.21947349607944489
1789799593306356500,11.8703564453125,1.1806719303131104,0.7275068759918213,0.15725113451480865
1789799593316327700,11.88032763671875,1.2806718349456787,0.7861465215682983,-0.00230816169641912
1789799593326299400,11.89029931640625,1.3327701091766357,1.0148228406906128,-0.1662188023328781
1789799593336270600,11.9002705078125,1.444978952407837,1.206180214881897,-0.24996136128902435
1789799593346242300,11.9102421875,1.6987282037734985,1.4668323993682861,-0.25607892870903015
1789799593356213500,11.920213623046875,1.9624357223510742,1.50571608543396,-0.272681325674057
1789799593366185500,11.930185546875,2.1386234760284424,1.4984840154647827,-0.23317359387874603
1789799593376156700,11.94015673828125,2.180464029312134,1.3395836353302002,-0.21366727352142334
1789799593386127400,11.95012744140625,2.110759735107422,1.1619640588760376,-0.3191862404346466
1789799593396099600,11.960099609375,2.0480659008026123,0.8868446350097656,-0.4780539274215698
1789799593406070500,11.970070556640625,2.151658058166504,0.4932592511177063,-0.5184825658798218
1789799593416042500,11.98004248046875,2.253185510635376,0.2339477837085724,-0.4789178669452667
1789799593426013400,11.990013427734375,2.2953338623046875,0.059596218168735504,-0.5287812948226929
1789799593435985700,11.999985595703125,2.3234195709228516,-0.10639328509569168,-0.5151059627532959
1789799593445956400,12.009956298828126,2.263470411300659,-0.18557465076446533,-0.41499534249305725
1789799593455927600,12.019927490234375,2.1371817588806152,-0.310525119304657,-0.32189467549324036
1789799593465899500,12.0298994140625,1.9342445135116577,-0.34518057107925415,-0.28741127252578735
1789799593475870700,12.03987060546875,1.7819290161132812,-0.09388840943574905,-0.32992225885391235
1789799593485842400,12.049842529296875,1.784773349761963,0.2943804860115051,-0.3637193441390991
1789799593495813600,12.059813720703126,1.8386503458023071,0.5997334718704224,-0.3685937523841858
1789799593505785300,12.069785400390625,1.8115417957305908,0.6889544129371643,-0.33214011788368225
1789799593515756500,12.079756591796874,1.6415905952453613,0.6252121925354004,-0.2824133038520813
1789799593525727500,12.0897275390625,1.3581833839416504,0.524067223072052,-0.29333680868148804
1789799593535699700,12.09969970703125,1.2104711532592773,0.5300947427749634,-0.4317229092121124
1789799593545670400,12.10967041015625,1.2306331396102905,0.6496528387069702,-0.5001307129859924
1789799593555642600,12.119642578125,1.1896822452545166,0.4547629952430725,-0.41499826312065125
1789799593565613600,12.129613525390624,1.0865710973739624,-0.099148690700531,-0.34185880422592163
1789799593575585500,12.13958544921875,0.9944858551025391,-0.6613467931747437,-0.4092932343482971
1789799593585556500,12.149556396484375,0.9219892621040344,-0.9596418738365173,-0.5700658559799194
1789799593595527400,12.15952734375,0.766451895236969,-0.7614014744758606,-0.6589030623435974
1789799593605499400,12.16949951171875,0.6097946166992188,-0.39782699942588806,-0.6992470026016235
1789799593615470300,12.17947021484375,0.47417449951171875,0.08903586864471436,-0.7040750980377197
1789799593625442600,12.189442626953126,0.4719265103340149,0.5998368263244629,-0.5622521638870239
1789799593635413500,12.19941357421875,0.4940374195575714,0.7202516198158264,-0.316352903842926
1789799593645385500,12.209385498046874,0.33599451184272766,0.47440433502197266,-0.26368942856788635
1789799593655356400,12.2193564453125,0.04911801218986511,0.08515830338001251,-0.2579103708267212
1789799593665327600,12.22932763671875,-0.1450706422328949,-0.4929599165916443,-0.1692153960466385
1789799593675299300,12.23929931640625,-0.2961445748806,-0.9012435078620911,-0.07936699688434601
1789799593685270500,12.2492705078125,-0.49339213967323303,-0.6886545419692993,0.0007486145477741957
1789799593695242500,12.259242431640626,-0.663490891456604,-0.41846808791160583,0.030341926962137222
1789799593705213400,12.26921337890625,-0.7982212901115417,-0.24260997772216797,0.007861651480197906
1789799593715184400,12.279184326171874,-0.9170254468917847,-0.10337299108505249,-0.04140123724937439
1789799593725156600,12.289156494140625,-0.916187584400177,-0.10494985431432724,-0.03977084904909134
1789799593735127600,12.29912744140625,-0.7976457476615906,-0.49962472915649414,-0.005340436939150095
1789799593745099500,12.309099609375,-0.6465728878974915,-0.7988321781158447,0.028546422719955444
1789799593755070500,12.319070556640625,-0.5096725821495056,-0.7236892580986023,0.0694725513458252
1789799593765042400,12.32904248046875,-0.4158238470554352,-0.4447321891784668,0.170170396566391
1789799593775013400,12.339013427734375,-0.3951478600502014,-0.2800883650779724,0.3232763409614563
1789799593784984300,12.348984375,-0.47318193316459656,-0.17108546197414398,0.445499986410141
1789799593794956500,12.35895654296875,-0.5481014251708984,-0.1806909441947937,0.48023852705955505
1789799593804927200,12.36892724609375,-0.5733492970466614,-0.1756698340177536,0.4344971179962158
1789799593814899500,12.3788994140625,-0.5896121263504028,0.006674414500594139,0.38933950662612915
1789799593824870400,12.388870361328125,-0.6838148236274719,0.19963374733924866,0.37977316975593567
1789799593834842400,12.39884228515625,-0.7872543931007385,-0.11083943396806717,0.3089567720890045
1789799593844813300,12.408813232421876,-0.8506338596343994,-0.5617054104804993,0.19697538018226624
1789799593854784500,12.418784423828125,-0.8768178224563599,-0.5472540259361267,0.11030174046754837
1789799593864756200,12.428756103515624,-0.9711677432060242,-0.06732817739248276,0.07437755912542343
