time,seconds_elapsed,z,y,x
1789799581486419500,0.05041943359375,-0.6017313003540039,-1.2606334686279297,-0.5877375602722168
1789799581496390700,0.060390625,-0.5790222883224487,-1.1552252769470215,-0.7358502149581909
1789799581506362400,0.0703623046875,-0.5442832112312317,-0.9946938753128052,-0.8296244144439697
1789799581516333600,0.08033349609375,-0.439098984003067,-0.6071523427963257,-0.9301669001579285
1789799581526305500,0.090305419921875,-0.2095147967338562,0.04212548956274986,-1.1682285070419312
1789799581536276500,0.1002763671875,0.052860625088214874,0.6886815428733826,-1.4608896970748901
1789799581546248400,0.11024853515625,0.346924751996994,1.0224156379699707,-1.6783010959625244
1789799581556219600,0.1202197265625,0.6088013648986816,1.2442339658737183,-1.8224802017211914
1789799581566191400,0.13019140625,0.8297348022460938,1.5473450422286987,-1.9033857583999634
1789799581576162600,0.14016259765625,1.076646089553833,1.9170995950698853,-1.9004427194595337
1789799581586133800,0.1501337890625,1.3689199686050415,2.2998178005218506,-1.79961359500885
1789799581596105500,0.16010546875,1.6523503065109253,2.627892255783081,-1.6291333436965942
1789799581606076700,0.17007666015625,1.8449082374572754,2.8145956993103027,-1.4054690599441528
1789799581616048600,0.180048583984375,1.8451251983642578,2.8692610263824463,-1.1450796127319336
1789799581626019800,0.190019775390625,1.5502607822418213,2.849323272705078,-0.856552243232727
1789799581635991600,0.199991455078125,1.0448696613311768,2.721338987350464,-0.4985400438308716
1789799581645962800,0.209962646484375,0.5360240936279297,2.5458693504333496,-0.003322605974972248
1789799581655934500,0.2199345703125,0.06472712010145187,2.4666783809661865,0.6276488900184631
1789799581665905700,0.22990576171875,-0.30234065651893616,2.193934679031372,1.336607575416565
1789799581675877600,0.239877685546875,-0.6733770370483398,1.596602201461792,2.0172343254089355
1789799581685848800,0.249848876953125,-0.8416720032691956,0.4515816569328308,2.501525402069092
1789799581695819500,0.259819580078125,-1.0377744436264038,-1.2623217105865479,2.6417791843414307
1789799581705791700,0.269791748046875,-1.520511507987976,-3.929560899734497,2.171095371246338
1789799581715762700,0.2797626953125,-1.9317693710327148,-5.89315128326416,1.7819569110870361
1789799581725734700,0.289734619140625,-2.0941317081451416,-6.816962718963623,1.7412570714950562
1789799581735705600,0.29970556640625,-2.230839252471924,-7.831008434295654,1.551430344581604
1789799581745677800,0.309677734375,-2.2466115951538086,-9.418135643005371,0.9059634804725647
1789799581755648500,0.3196484375,-2.3738198280334473,-8.5525541305542,-0.6187577247619629
1789799581765620700,0.329620849609375,-2.6707239151000977,-6.158906936645508,-1.038703441619873
1789799581775591700,0.339591796875,-2.712301254272461,-4.400898456573486,-1.2230700254440308
1789799581785563600,0.349563720703125,-2.5905988216400146,-2.8700191974639893,-1.2177058458328247
1789799581795534600,0.35953466796875,-2.385510206222534,-1.6267293691635132,-1.061143159866333
1789799581805505800,0.369505859375,-1.9447181224822998,-0.6555644869804382,-0.7953299283981323
1789799581815477500,0.3794775390625,-0.6097024083137512,-0.4675902724266052,-0.34820693731307983
1789799581825448700,0.38944873046875,0.6122653484344482,-0.462115079164505,0.0201399065554142
1789799581835420700,0.399420654296875,0.9454087018966675,-0.926530659198761,0.1771615743637085
1789799581845392000,0.409391845703125,0.8317862749099731,-1.583687424659729,0.35741549730300903
1789799581855363600,0.419363525390625,0.6844313740730286,-1.9756799936294556,0.6586130857467651
1789799581865334800,0.429334716796875,0.6498614549636841,-2.2585790157318115,0.9684612154960632
1789799581875306500,0.439306396484375,0.7105650305747986,-2.298675537109375,1.1813483238220215
1789799581885277700,0.449277587890625,0.8319183588027954,-2.1526241302490234,1.2748806476593018
1789799581895249700,0.459249755859375,0.9516738057136536,-2.079681158065796,1.2935506105422974
1789799581905220900,0.469220947265625,1.1302094459533691,-2.1905152797698975,1.2987706661224365
1789799581915192600,0.479192626953125,1.5093649625778198,-2.540280818939209,1.3223204612731934
1789799581925163800,0.489163818359375,1.9464086294174194,-2.8631772994995117,1.385621428489685
1789799581935134700,0.499134765625,2.160447835922241,-2.9888172149658203,1.4248392581939697
1789799581945106700,0.509106689453125,1.799395203590393,-2.7383229732513428,1.2950623035430908
1789799581955077600,0.51907763671875,0.8978387713432312,-2.12208890914917,0.785386323928833
1789799581965049900,0.5290498046875,0.45512205362319946,-1.7088682651519775,0.059963323175907135
1789799581975020500,0.5390205078125,0.8181895017623901,-1.438538670539856,-0.46671923995018005
1789799581984992800,0.54899267578125,1.2723573446273804,-0.9621281623840332,-0.7260485887527466
1789799581994963700,0.558963623046875,1.5050426721572876,-0.5270428657531738,-0.8063504099845886
1789799582004935700,0.568935791015625,1.6140575408935547,-0.5141105651855469,-0.7230278253555298
1789799582014906600,0.57890673828125,1.5900486707687378,-0.7965498566627502,-0.48640090227127075
1789799582024878800,0.58887890625,1.528125286102295,-1.217140555381775,-0.07264872640371323
1789799582034849500,0.598849609375,1.4905221462249756,-1.7593837976455688,0.44222408533096313
1789799582044821800,0.60882177734375,1.5511950254440308,-2.304744243621826,0.9448276162147522
1789799582054792700,0.618792724609375,1.7064162492752075,-2.766530752182007,1.255813717842102
1789799582064764000,0.628763916015625,1.984481692314148,-3.190420389175415,1.2705011367797852
1789799582074735600,0.638735595703125,2.315279960632324,-3.4891765117645264,1.14278244972229
1789799582084706800,0.648706787109375,2.5383706092834473,-3.5508763790130615,1.0660152435302734
1789799582094678500,0.658678466796875,2.7053141593933105,-3.542348861694336,1.125433087348938
1789799582104649700,0.668649658203125,2.8700196743011475,-3.7218716144561768,1.2852741479873657
1789799582114621700,0.67862158203125,2.989805221557617,-4.146152973175049,1.5164928436279297
1789799582124593000,0.688593017578125,3.131758213043213,-4.540004253387451,1.744880199432373
1789799582134564600,0.698564697265625,3.3435776233673096,-4.947207927703857,1.900604248046875
1789799582144535800,0.708535888671875,3.632948637008667,-5.042705535888672,1.9835883378982544
1789799582154507500,0.718507568359375,3.9734530448913574,-4.665378093719482,1.9119157791137695
1789799582164478700,0.728478759765625,4.261912822723389,-4.042463302612305,1.7293933629989624
1789799582174449700,0.73844970703125,4.455109596252441,-3.442314863204956,1.5084971189498901
1789799582184422000,0.748421875,4.654598236083984,-3.0374996662139893,1.254978060722351
1789799582194392600,0.758392578125,4.783755779266357,-2.9125101566314697,0.983637273311615
1789799582204364800,0.76836474609375,4.8900628089904785,-3.0311741828918457,0.7521808743476868
1789799582214335700,0.778335693359375,5.010627269744873,-3.223240852355957,0.5720939040184021
1789799582224307700,0.7883076171875,5.072274208068848,-3.2654993534088135,0.45600906014442444
1789799582234278700,0.798278564453125,5.029571056365967,-3.3298981189727783,0.3465210199356079
1789799582244251000,0.8082509765625,5.155120372772217,-3.450547933578491,0.06992725282907486
1789799582254221600,0.8182216796875,5.432109832763672,-3.2647290229797363,-0.24653297662734985
1789799582264193800,0.82819384765625,5.5053629875183105,-2.674509286880493,-0.5345855355262756
1789799582274164700,0.838164794921875,5.416848182678223,-1.727742075920105,-0.9223654866218567
1789799582284136700,0.84813671875,5.402491569519043,-1.100943922996521,-1.3744206428527832
1789799582294107600,0.858107666015625,5.348148345947266,-0.7850150465965271,-1.6799904108047485
1789799582304078600,0.86807861328125,5.350275993347168,-0.27425825595855713,-1.544199824333191
1789799582314050600,0.878050537109375,5.30452299118042,0.318473756313324,-1.1633720397949219
1789799582324021500,0.888021484375,5.278021812438965,0.5162872076034546,-0.7387757301330566
1789799582333993700,0.89799365234375,5.09975528717041,1.0130293369293213,-0.24722766876220703
1789799582343964700,0.907964599609375,4.448794364929199,0.9000157117843628,0.10300809144973755
1789799582353936600,0.9179365234375,3.6648335456848145,0.5878171920776367,0.5421645641326904
1789799582363907600,0.927907470703125,3.0353872776031494,0.8761768341064453,1.0480830669403076
1789799582373879600,0.937879638671875,2.4253427982330322,0.8420311808586121,1.3430383205413818
1789799582383850500,0.9478505859375,1.7648601531982422,0.7258585095405579,1.6130703687667847
1789799582393822700,0.95782275390625,0.904512882232666,-0.1308687925338745,1.842961072921753
1789799582403793700,0.967793701171875,0.4921537935733795,0.46145740151405334,1.494625210762024
1789799582413765600,0.977765625,0.46555522084236145,2.319978952407837,-0.2465122938156128
1789799582423736600,0.987736572265625,-0.012086448259651661,2.871237277984619,-1.5180878639221191
1789799582433707800,0.997707763671875,-0.527245044708252,2.5890419483184814,-1.7112199068069458
1789799582443679500,1.007679443359375,-1.0062452554702759,1.5704128742218018,-1.4271093606948853
1789799582453650700,1.017650634765625,-1.5496201515197754,0.06425924599170685,-0.9832337498664856
1789799582463622700,1.02762255859375,-2.1427741050720215,-0.6512980461120605,-0.3409287929534912
1789799582473593600,1.037593505859375,-2.5592267513275146,-1.4701154232025146,0.43125542998313904
1789799582483565600,1.047565673828125,-2.558931827545166,-2.6775548458099365,0.9977854490280151
1789799582493536800,1.057536865234375,-2.4122836589813232,-3.234837055206299,0.833878755569458
1789799582503508500,1.067508544921875,-2.51855206489563,-3.436634063720703,0.8675312995910645
1789799582513479700,1.077479736328125,-3.0241072177886963,-3.662013530731201,1.0289541482925415
1789799582523451600,1.08745166015625,-3.5317726135253906,-3.935688018798828,1.122911810874939
1789799582533422600,1.097422607421875,-3.891582489013672,-3.9482924938201904,1.1269670724868774
1789799582543393500,1.1073935546875,-4.060765266418457,-3.723102331161499,1.0072624683380127
1789799582553365800,1.11736572265625,-3.9733340740203857,-3.270725727081299,0.8936615586280823
1789799582563336700,1.127336669921875,-3.8781259059906006,-2.7474541664123535,0.7403787970542908
1789799582573308700,1.13730859375,-3.8757567405700684,-2.447870969772339,0.7705467939376831
1789799582583279600,1.147279541015625,-3.996950149536133,-2.086060047149658,0.7754024863243103
1789799582593251600,1.15725146484375,-4.267431735992432,-1.8352375030517578,0.6300392746925354
1789799582603222500,1.167222412109375,-4.336041450500488,-1.727169394493103,0.35566338896751404
1789799582613194800,1.17719482421875,-3.882082462310791,-1.565949559211731,0.033043161034584045
1789799582623165700,1.187165771484375,-3.205956220626831,-1.7300742864608765,-0.05068742111325264
1789799582633137700,1.1971376953125,-2.607823371887207,-1.8805491924285889,0.14467787742614746
1789799582643108600,1.207108642578125,-1.9511808156967163,-1.805376410484314,0.28638574481010437
1789799582653080600,1.21708056640625,-1.7511963844299316,-1.3567949533462524,0.18268167972564697
1789799582663051500,1.227051513671875,-1.755221962928772,-1.0277049541473389,-0.02257373183965683
1789799582673022700,1.237022705078125,-1.7318873405456543,-0.991352915763855,-0.2242404818534851
1789799582682994700,1.24699462890625,-1.5212063789367676,-0.9271332025527954,-0.36289849877357483
1789799582692965600,1.256965576171875,-1.12968111038208,-0.9217364192008972,-0.5192601680755615
1789799582702937600,1.2669375,-0.7295984625816345,-0.9724280834197998,-0.7435438632965088
1789799582712908800,1.27690869140625,-0.5580426454544067,-0.48099029064178467,-0.8217349648475647
1789799582722880500,1.286880615234375,-0.3543311059474945,-0.45374321937561035,-0.7822525501251221
1789799582732851700,1.296851806640625,-0.0793168768286705,-0.20304802060127258,-0.719476580619812
1789799582742823700,1.30682373046875,0.20911677181720734,0.17418208718299866,-0.7848044037818909
1789799582752794600,1.316794677734375,0.3454647660255432,0.6978219747543335,-1.0342235565185547
1789799582762766600,1.3267666015625,0.5959172248840332,0.6339183449745178,-1.4641270637512207
1789799582772737800,1.33673779296875,0.8517098426818848,0.5254259705543518,-1.4740649461746216
1789799582782709500,1.34670947265625,1.181698203086853,0.6760889887809753,-1.5475788116455078
1789799582792680700,1.3566806640625,1.4305460453033447,0.726940393447876,-1.7763758897781372
1789799582802651600,1.366651611328125,1.4979277849197388,0.8663574457168579,-2.029695510864258
1789799582812623600,1.37662353515625,1.581238865852356,1.1849619150161743,-2.198357343673706
1789799582822594600,1.386594482421875,1.708693504333496,1.535478115081787,-2.015713691711426
1789799582832566800,1.39656689453125,1.9487825632095337,1.7359029054641724,-1.6756421327590942
1789799582842537700,1.406537841796875,2.039334535598755,1.4707775115966797,-1.4867992401123047
1789799582852509700,1.416509765625,2.092209815979004,1.548200249671936,-1.4076902866363525
1789799582862480600,1.426480712890625,2.364816665649414,2.056199312210083,-1.488741159439087
1789799582872452600,1.43645263671875,2.6021900177001953,2.5820181369781494,-1.4846560955047607
1789799582882423600,1.446423583984375,2.6655242443084717,2.8985278606414795,-1.361112356185913
1789799582892395800,1.456395751953125,2.842585563659668,3.0741660594940186,-1.2778432369232178
1789799582902366700,1.46636669921875,3.000767469406128,3.6394457817077637,-1.3926081657409668
1789799582912338700,1.476338623046875,3.6633923053741455,4.340843677520752,-1.7862401008605957
1789799582922309600,1.4863095703125,4.290045261383057,4.454883575439453,-1.826580286026001
1789799582932280800,1.49628076171875,4.61213493347168,3.8367667198181152,-1.6314384937286377
1789799582942252500,1.50625244140625,4.646190643310547,3.2887465953826904,-1.1538476943969727
1789799582952223700,1.5162236328125,3.8958232402801514,2.9648659229278564,-1.06565523147583
1789799582962195700,1.52619580078125,3.051316261291504,1.5970903635025024,-0.803922176361084
1789799582972166700,1.536166748046875,2.657712459564209,1.284899353981018,-0.7029420733451843
1789799582982138600,1.546138671875,2.4074721336364746,1.6082097291946411,-0.6622170209884644
1789799582992109800,1.55610986328125,2.1646482944488525,2.084052562713623,-0.6368016600608826
1789799583002081500,1.56608154296875,1.8488473892211914,2.269094467163086,-0.6312696933746338
1789799583012052700,1.576052734375,1.542467474937439,2.184109687805176,-0.5841001868247986
1789799583022024700,1.586024658203125,1.2770483493804932,1.8490240573883057,-0.30651894211769104
1789799583031995600,1.59599560546875,0.9835129380226135,1.3609023094177246,0.11157684773206711
1789799583041967600,1.605967529296875,0.6314733624458313,0.8963412046432495,0.466878741979599
1789799583051938800,1.615938720703125,0.3321540057659149,0.7304170727729797,0.5641928315162659
1789799583061910500,1.62591064453125,0.30685290694236755,0.9032064080238342,0.3076939284801483
1789799583071881700,1.6358818359375,0.23073312640190125,1.196698784828186,-0.15694770216941833
1789799583081852700,1.645852783203125,-0.01593950018286705,1.2359989881515503,-0.6964324712753296
1789799583091825000,1.655824951171875,-0.3582773804664612,1.1299324035644531,-1.0285638570785522
1789799583101795600,1.665795654296875,-0.6939547061920166,0.6924024224281311,-1.271760106086731
1789799583111767800,1.675767822265625,-0.18977707624435425,-0.7393904328346252,-1.6967933177947998
1789799583121738800,1.68573876953125,1.5276073217391968,-2.755908966064453,-2.2017712593078613
1789799583131710700,1.695710693359375,2.6231513023376465,-3.2074477672576904,-2.424513816833496
1789799583141681700,1.705681640625,2.5871591567993164,-2.2915842533111572,-2.1181373596191406
1789799583151654000,1.71565380859375,1.9295324087142944,-0.03664245828986168,-1.560912013053894
1789799583161624600,1.72562451171875,1.0722118616104126,1.2561622858047485,-1.114546775817871
1789799583171596800,1.7355966796875,0.7343196272850037,0.8313101530075073,-0.2648298442363739
1789799583181567700,1.745567626953125,0.9115487337112427,0.7692276239395142,0.5466095209121704
1789799583191539700,1.755539794921875,1.1196759939193726,0.625899612903595,0.8969239592552185
1789799583201510700,1.7655107421875,1.2280184030532837,0.21047548949718475,0.8008602857589722
1789799583211481600,1.775481689453125,1.3083292245864868,-0.12062303721904755,0.5044184327125549
1789799583221453600,1.78545361328125,1.361579179763794,-0.10315483063459396,0.19126637279987335
1789799583231424500,1.795424560546875,1.302153468132019,0.15326634049415588,-0.048077501356601715
1789799583241396700,1.805396728515625,1.010769009590149,0.27504390478134155,-0.19362963736057281
1789799583251367700,1.81536767578125,0.6940698623657227,0.298256516456604,-0.24651053547859192
1789799583261339600,1.825339599609375,0.6610615849494934,0.17015527188777924,-0.2847628593444824
1789799583271310600,1.835310546875,0.9335669279098511,0.37806451320648193,-0.6670846939086914
1789799583281282600,1.845282470703125,1.4251432418823242,0.6341351270675659,-1.1719534397125244
1789799583291253500,1.85525341796875,1.263690710067749,0.29193148016929626,-0.8366168141365051
1789799583301225700,1.865225830078125,0.600785493850708,0.41292741894721985,-0.06306490302085876
1789799583311196700,1.87519677734375,0.590995192527771,0.2870204448699951,0.3594702482223511
1789799583321168600,1.885168701171875,0.8281494379043579,0.11472458392381668,0.4911971092224121
1789799583331139600,1.8951396484375,0.8745690584182739,0.2010382115840912,0.6354191303253174
1789799583341111600,1.905111572265625,0.7125953435897827,0.1553245186805725,0.6855337023735046
1789799583351082500,1.91508251953125,0.4224644601345062,-0.04361092299222946,0.5743178725242615
1789799583361053700,1.9250537109375,0.14562274515628815,0.020498022437095642,0.040198780596256256
1789799583371025700,1.935025634765625,-0.14103379845619202,0.12682393193244934,-0.5002745389938354
1789799583380996600,1.94499658203125,-0.48265475034713745,0.2248559445142746,-0.6234156489372253
1789799583390968600,1.954968505859375,-0.5807685256004333,0.2311510592699051,-0.5072111487388611
1789799583400939800,1.964939697265625,-0.4681335985660553,0.3039318025112152,-0.31911131739616394
1789799583410911500,1.974911376953125,-0.11053367704153061,0.845207929611206,-0.39733436703681946
1789799583420882700,1.984882568359375,0.2674189507961273,0.9140018820762634,-0.3618437349796295
1789799583430854700,1.994854736328125,0.4257076680660248,0.5444675087928772,-0.41589879989624023
1789799583440825600,2.00482568359375,0.14163705706596375,0.40323102474212646,-0.3207800090312958
1789799583450797600,2.014797607421875,-0.8152158856391907,0.5150574445724487,-0.08625528961420059
1789799583460768800,2.024768798828125,-0.9808748960494995,0.39458373188972473,0.10202060639858246
1789799583470740500,2.034740478515625,-0.8600786924362183,0.15870529413223267,0.2247379571199417
1789799583480711700,2.044711669921875,-0.8284803032875061,0.29812389612197876,0.4041860103607178
1789799583490683600,2.05468359375,-1.0860506296157837,0.7494311928749084,0.40602022409439087
1789799583500654600,2.064654541015625,-1.518871784210205,1.1376450061798096,0.29915449023246765
1789799583510626600,2.07462646484375,-2.114955186843872,1.2642943859100342,0.23329411447048187
1789799583520597800,2.08459765625,-2.484438180923462,1.187570333480835,0.18456332385540009
1789799583530568700,2.094568603515625,-1.7472429275512695,0.37891194224357605,0.09273313730955124
1789799583540540700,2.104540771484375,-1.3165158033370972,0.11605661362409592,-0.34100818634033203
1789799583550511600,2.11451171875,-1.0959224700927734,0.39882320165634155,-0.8752875924110413
1789799583560483600,2.124483642578125,-1.0419870615005493,0.4248151183128357,-1.1838041543960571
1789799583570454500,2.13445458984375,-1.0424352884292603,-0.11913512647151947,-1.3985565900802612
1789799583580426200,2.14442626953125,-1.1564886569976807,-0.8220226764678955,-1.325876235961914
1789799583590397200,2.154397216796875,-1.182796597480774,-1.1437718868255615,-1.2597440481185913
1789799583600369200,2.164369140625,-1.0580171346664429,-1.049146056175232,-1.27090322971344
1789799583610340000,2.174340087890625,-0.9486645460128784,-0.6976931095123291,-1.2547855377197266
1789799583620312300,2.184312255859375,-0.936596155166626,-0.2563820481300354,-1.1285436153411865
1789799583630283000,2.194282958984375,-1.074302077293396,-0.0049356985837221146,-0.9965730905532837
1789799583640255200,2.204255126953125,-1.3366641998291016,-0.13192588090896606,-0.9289608001708984
1789799583650226200,2.21422607421875,-1.4764524698257446,-0.4280345141887665,-0.9583911895751953
1789799583660198100,2.2241982421875,-1.4582945108413696,-0.5938732624053955,-1.0439505577087402
1789799583670169000,2.234169189453125,-1.3572834730148315,-0.5684541463851929,-1.1228735446929932
1789799583680140300,2.244140380859375,-1.3024876117706299,-0.4313644766807556,-1.1574498414993286
1789799583690112000,2.254112060546875,-1.3190854787826538,-0.42937105894088745,-1.0784118175506592
1789799583700083200,2.264083251953125,-1.4590548276901245,-0.5503323674201965,-0.8832768201828003
1789799583710055200,2.27405517578125,-1.6602723598480225,-0.394050657749176,-0.7234082221984863
1789799583720026400,2.2840263671875,-1.7110822200775146,-0.09460695832967758,-0.6951310634613037
1789799583729998000,2.293998046875,-1.6270285844802856,-0.017819084227085114,-0.7879777550697327
1789799583739969300,2.30396923828125,-1.586777925491333,-0.15651731193065643,-0.8881887793540955
1789799583749941000,2.31394091796875,-1.5611673593521118,-0.30019164085388184,-0.8777052760124207
1789799583759912200,2.323912109375,-1.5725458860397339,-0.3861300051212311,-0.7949608564376831
1789799583769884200,2.33388427734375,-1.6524685621261597,-0.4422602951526642,-0.7296596765518188
1789799583779855400,2.34385546875,-1.6943011283874512,-0.4379428029060364,-0.738760232925415
1789799583789827000,2.3538271484375,-1.6280361413955688,-0.21681739389896393,-0.7491645812988281
1789799583799798300,2.36379833984375,-1.6527656316757202,0.30331286787986755,-0.6667261719703674
1789799583809770000,2.37377001953125,-1.7435005903244019,0.9460190534591675,-0.5247189998626709
1789799583819741200,2.3837412109375,-1.4341251850128174,0.9354137778282166,-0.3917769193649292
1789799583829713200,2.393713134765625,-1.1091629266738892,0.39826294779777527,-0.29466360807418823
1789799583839684400,2.403684326171875,-1.1166315078735352,-0.24513813853263855,-0.18083451688289642
1789799583849655000,2.413655029296875,-1.1277053356170654,-0.8422538638114929,-0.0557401105761528
1789799583859627300,2.423627197265625,-1.0537166595458984,-1.0719860792160034,-0.11789775639772415
1789799583869598200,2.43359814453125,-0.9556881189346313,-1.1643670797348022,-0.25974544882774353
1789799583879570200,2.443570068359375,-0.9274644255638123,-1.1022789478302002,-0.2559363543987274
1789799583889541000,2.453541015625,-0.8207556009292603,-0.7274479269981384,-0.25321054458618164
1789799583899513300,2.463513427734375,-0.6778301000595093,-0.43632522225379944,-0.25067228078842163
1789799583909484000,2.473484130859375,-0.540758490562439,-0.10727950185537338,-0.16152362525463104
1789799583919456300,2.483456298828125,-0.39365193247795105,0.20994161069393158,-0.08324453979730606
1789799583929427200,2.49342724609375,-0.2533629834651947,0.36676114797592163,-0.028897196054458618
1789799583939399200,2.503399169921875,-0.0786590725183487,0.512351393699646,-0.000324406661093235
1789799583949370000,2.5133701171875,-0.005482345353811979,0.5564060211181641,0.08501651883125305
1789799583959342300,2.52334228515625,-0.030083561316132545,0.4682343304157257,0.2891177237033844
1789799583969313000,2.53331298828125,-0.1260061115026474,0.199438214302063,0.34815552830696106
1789799583979285200,2.54328515625,-0.014489966444671154,0.15905776619911194,0.30261439085006714
1789799583989256200,2.553256103515625,0.20339922606945038,0.45060086250305176,0.25540879368782043
1789799583999228200,2.563228271484375,0.47708216309547424,0.5912703275680542,0.299817830324173
1789799584009199000,2.57319921875,0.6267531514167786,0.665350079536438,0.3655815124511719
1789799584019170300,2.58317041015625,0.757168710231781,0.8484368324279785,0.31211215257644653
1789799584029142000,2.59314208984375,0.8946700692176819,0.8785360455513,0.27633410692214966
1789799584039113200,2.60311328125,0.9185538291931152,0.9694526791572571,0.19414468109607697
1789799584049085200,2.613085205078125,1.0354080200195312,1.2948020696640015,0.05635187029838562
1789799584059056400,2.623056396484375,1.1237144470214844,1.5459072589874268,0.050066810101270676
1789799584069028000,2.633028076171875,1.1173465251922607,1.4059793949127197,0.12192225456237793
1789799584078999300,2.642999267578125,1.116279125213623,1.0213960409164429,0.15266606211662292
1789799584088971300,2.65297119140625,1.1869436502456665,0.7760132551193237,0.06278225779533386
1789799584098942200,2.662942138671875,1.2708284854888916,0.750959038734436,-0.06627985090017319
1789799584108914200,2.6729140625,1.3452343940734863,0.6467868089675903,-0.09530617296695709
1789799584118885400,2.682885498046875,1.48475182056427,0.4779331088066101,-0.13639715313911438
1789799584128857000,2.692857177734375,1.7407249212265015,0.40835657715797424,-0.22818392515182495
1789799584138828300,2.702828369140625,2.033651351928711,0.469826340675354,-0.29215624928474426
1789799584148800300,2.71280029296875,2.1857197284698486,0.645466148853302,-0.3311487138271332
1789799584158771200,2.722771240234375,2.1193509101867676,0.706369936466217,-0.3540082275867462
1789799584168743200,2.7327431640625,1.9936647415161133,0.7149406671524048,-0.48309633135795593
1789799584178714400,2.74271435546875,2.0531020164489746,0.8643589019775391,-0.6504136323928833
1789799584188685000,2.75268505859375,2.151390552520752,0.915066659450531,-0.6911579966545105
1789799584198657300,2.7626572265625,2.106205940246582,0.9728532433509827,-0.6312634944915771
1789799584208628200,2.772628173828125,1.9315569400787354,1.058887004852295,-0.5813210010528564
1789799584218600200,2.78260009765625,1.892335057258606,1.1131702661514282,-0.6035983562469482
1789799584228571100,2.792571044921875,1.955877423286438,0.8450897336006165,-0.7035122513771057
1789799584238543400,2.80254345703125,2.0014402866363525,0.32276633381843567,-0.7902402281761169
1789799584248514000,2.81251416015625,1.9797409772872925,0.13998425006866455,-0.7137117981910706
1789799584258486300,2.822486328125,1.9355531930923462,0.2900930643081665,-0.6252053380012512
1789799584268457200,2.832457275390625,1.8741493225097656,0.40209290385246277,-0.6663166284561157
1789799584278429200,2.84242919921875,1.7602225542068481,0.20784085988998413,-0.6812529563903809
1789799584288400100,2.852400146484375,1.604766845703125,-0.03077528439462185,-0.5464805364608765
1789799584298372400,2.862372314453125,1.4112772941589355,0.08598754554986954,-0.40781930088996887
1789799584308343300,2.87234326171875,1.275341510772705,0.38393935561180115,-0.37020376324653625
1789799584318315300,2.882315185546875,1.250375747680664,0.49466079473495483,-0.45386162400245667
1789799584328286200,2.8922861328125,1.3239617347717285,0.16908703744411469,-0.45826008915901184
1789799584338258200,2.902258056640625,1.3370198011398315,-0.14709623157978058,-0.39157986640930176
1789799584348229000,2.91222900390625,1.236989140510559,-0.21307680010795593,-0.36082619428634644
1789799584358201300,2.922201416015625,1.074629545211792,-0.19400164484977722,-0.3692284822463989
1789799584368172300,2.93217236328125,0.8559996485710144,-0.17526286840438843,-0.34833481907844543
1789799584378144300,2.942144287109375,0.6613888740539551,-0.06614198535680771,-0.26824212074279785
1789799584388115200,2.952115234375,0.5795493721961975,0.19955949485301971,-0.2907024323940277
1789799584398086100,2.962086181640625,0.5383518934249878,0.41498419642448425,-0.3210344910621643
1789799584408058000,2.97205810546875,0.4103345274925232,0.23451319336891174,-0.3345308005809784
1789799584418029000,2.982029052734375,0.2619280219078064,-0.18851928412914276,-0.42235493659973145
1789799584428001300,2.992001220703125,0.11809255927801132,-0.41002702713012695,-0.5072960257530212
1789799584437972000,3.001971923828125,-0.009100538678467274,-0.4569726884365082,-0.560957133769989
1789799584447944200,3.011944091796875,-0.13000458478927612,-0.4332728981971741,-0.5646448135375977
1789799584457915100,3.0219150390625,-0.1912679374217987,-0.4018513262271881,-0.48896411061286926
1789799584467887000,3.03188720703125,-0.1812584549188614,-0.3922770619392395,-0.42090708017349243
1789799584477858000,3.041858154296875,-0.1934003382921219,-0.2446039766073227,-0.3918863534927368
1789799584487830300,3.051830322265625,-0.255205363035202,-0.059338029474020004,-0.37786728143692017
1789799584497801000,3.061801025390625,-0.3672376275062561,0.05344684049487114,-0.34482091665267944
1789799584507773200,3.071773193359375,-0.4254641830921173,-0.162803053855896,-0.3214505910873413
1789799584517744000,3.081744140625,-0.4542343318462372,-0.4588911831378937,-0.34056752920150757
1789799584527716000,3.091716064453125,-0.50246661901474,-0.48634907603263855,-0.4200257956981659
1789799584537687000,3.10168701171875,-0.6455494165420532,-0.05444055050611496,-0.4705992341041565
1789799584547659300,3.1116591796875,-0.8822360038757324,0.5329232215881348,-0.37262624502182007
1789799584557630000,3.1216298828125,-1.094457745552063,0.802108108997345,-0.19539794325828552
1789799584567602200,3.131602294921875,-1.1743160486221313,0.6784068942070007,-0.0430125817656517
1789799584577573000,3.141572998046875,-1.1107945442199707,0.40539324283599854,0.051516853272914886
1789799584587544300,3.15154443359375,-1.033949613571167,0.12250477820634842,0.11795862764120102
1789799584597516000,3.16151611328125,-0.9685921669006348,-0.7015352845191956,0.14574632048606873
1789799584607487200,3.1714873046875,-0.9464807510375977,-1.6278020143508911,0.11936057358980179
1789799584617459000,3.181458984375,-0.949660062789917,-1.9989114999771118,0.028549974784255028
1789799584627430100,3.19143017578125,-1.0236680507659912,-1.6767829656600952,-0.01774824783205986
1789799584637402000,3.201402099609375,-1.0833848714828491,-1.140830397605896,0.049131184816360474
1789799584647373300,3.211373291015625,-1.1557828187942505,-0.4983818829059601,0.038748063147068024
1789799584657345000,3.221344970703125,-1.3394147157669067,0.252745658159256,-0.0061080907471477985
1789799584667316200,3.231316162109375,-1.4746040105819702,0.52718585729599,-0.018781045451760292
1789799584677288000,3.241287841796875,-1.4649641513824463,0.3748045861721039,-0.03718934953212738
1789799584687259100,3.251259033203125,-1.4256434440612793,-0.06288983672857285,-0.13694335520267487
1789799584697231000,3.261231201171875,-1.4979418516159058,-0.4840293526649475,-0.2959796190261841
1789799584707202300,3.271202392578125,-1.7162842750549316,-0.4989098906517029,-0.37344124913215637
1789799584717174000,3.281174072265625,-1.9683129787445068,-0.037568919360637665,-0.42136192321777344
1789799584727145200,3.291145263671875,-2.0614497661590576,0.48331642150878906,-0.5515609383583069
1789799584737117000,3.301116943359375,-1.967539668083191,0.4432552754878998,-0.5729064345359802
1789799584747088100,3.311088134765625,-1.818483829498291,0.09989260137081146,-0.3923676013946533
1789799584757060000,3.32106005859375,-1.6954023838043213,-0.21982067823410034,-0.21267879009246826
1789799584767031300,3.33103125,-1.6111359596252441,-0.3276028335094452,-0.2783876061439514
1789799584777003000,3.3410029296875,-1.523853063583374,-0.20209366083145142,-0.49355849623680115
1789799584786974200,3.35097412109375,-1.4345632791519165,-0.12522593140602112,-0.6033337712287903
1789799584796946200,3.3609462890625,-1.4051116704940796,-0.1628233790397644,-0.5514087677001953
1789799584806917000,3.370917236328125,-1.451467752456665,-0.3534403145313263,-0.4424505829811096
1789799584816888000,3.38088818359375,-1.4874497652053833,-0.3951707184314728,-0.42074528336524963
1789799584826860300,3.3908603515625,-1.504188060760498,0.01946224458515644,-0.5682778358459473
1789799584836831000,3.4008310546875,-1.506537675857544,0.34547922015190125,-0.7519246339797974
1789799584846803200,3.41080322265625,-1.5362417697906494,0.2604663074016571,-0.7871697545051575
1789799584856774100,3.420774169921875,-1.7005457878112793,-0.07331939041614532,-0.6546042561531067
1789799584866746000,3.43074609375,-1.8571630716323853,-0.21979889273643494,-0.5598198175430298
1789799584876717000,3.440717041015625,-1.6617627143859863,-0.11063350737094879,-0.5878099203109741
1789799584886689300,3.450689208984375,-1.4608008861541748,-0.4231068193912506,-0.5659716129302979
1789799584896660000,3.460659912109375,-1.41900634765625,-1.0898007154464722,-0.46699821949005127
1789799584906632200,3.470632080078125,-1.4276764392852783,-1.4286150932312012,-0.3794379234313965
1789799584916603100,3.48060302734375,-1.2328523397445679,-1.2447445392608643,-0.38870760798454285
1789799584926575000,3.4905751953125,-0.9875181913375854,-1.0858595371246338,-0.48769667744636536
1789799584936546000,3.500546142578125,-0.8545851707458496,-0.7834924459457397,-0.5733521580696106
1789799584946518300,3.510518310546875,-0.7850034832954407,-0.10154863446950912,-0.4994724690914154
1789799584956489000,3.520489013671875,-0.7367222309112549,0.37141117453575134,-0.33012688159942627
1789799584966461200,3.530461181640625,-0.6997455358505249,0.38673827052116394,-0.25297996401786804
1789799584976432000,3.54043212890625,-0.5728099942207336,0.5225064754486084,-0.2614608108997345
1789799584986404000,3.550404052734375,-0.4333260953426361,0.5857997536659241,-0.30347639322280884
1789799584996375000,3.560375,-0.34704527258872986,0.30464425683021545,-0.264871746301651
1789799585006347300,3.57034716796875,-0.24249383807182312,-0.03638211265206337,-0.23093172907829285
1789799585016318200,3.580318115234375,-0.09637285023927689,-0.042022954672575,-0.2975938618183136
1789799585026290200,3.590290283203125,0.009209759533405304,-0.15320968627929688,-0.3104186952114105
1789799585036261000,3.60026123046875,0.11476068943738937,-0.23652775585651398,-0.18865707516670227
1789799585046233000,3.610233154296875,0.32166698575019836,0.008919784799218178,-0.13960574567317963
1789799585056204000,3.6202041015625,0.595334529876709,0.3746356964111328,-0.13702274858951569
1789799585066176300,3.63017626953125,0.7470529079437256,0.46317315101623535,-0.08671870827674866
1789799585076147200,3.640147216796875,0.881811261177063,0.6802495718002319,-0.11135374754667282
1789799585086118100,3.6501181640625,1.0578533411026,1.070706844329834,-0.1982492059469223
1789799585096090000,3.660090087890625,1.1110279560089111,1.0542303323745728,-0.13485051691532135
1789799585106061300,3.670061279296875,1.134891152381897,0.809014081954956,-0.06804519146680832
1789799585116033000,3.680032958984375,1.1861716508865356,0.4463467001914978,-0.08376237004995346
1789799585126004200,3.690004150390625,1.2552785873413086,0.4108388125896454,-0.06245484575629234
1789799585135976200,3.69997607421875,1.4078425168991089,0.6810311675071716,-0.039418768137693405
1789799585145947100,3.709947021484375,1.6172868013381958,0.6734419465065002,-0.009025976993143559
1789799585155919000,3.719919189453125,1.7454516887664795,0.40437451004981995,0.017139848321676254
1789799585165890300,3.729890380859375,1.6570957899093628,0.26389551162719727,-0.0819675400853157
1789799585175862000,3.739862060546875,1.701635479927063,0.6402973532676697,-0.2069646120071411
1789799585185833200,3.749833251953125,1.7559847831726074,0.8112112879753113,-0.23371721804141998
1789799585195805200,3.75980517578125,1.8389817476272583,0.7551597356796265,-0.23695002496242523
1789799585205776100,3.769776123046875,2.031480550765991,0.8328118920326233,-0.3080507516860962
1789799585215748000,3.779748046875,2.2077524662017822,0.7513359785079956,-0.3487952649593353
1789799585225719300,3.78971923828125,2.200896739959717,0.5089371800422668,-0.2718736529350281
1789799585235691000,3.79969091796875,2.0885684490203857,0.2776064872741699,-0.16518263518810272
1789799585245662200,3.809662109375,2.0192816257476807,0.22657820582389832,-0.08424704521894455
1789799585255634200,3.81963427734375,2.02362060546875,0.49172544479370117,-0.09212334454059601
1789799585265605000,3.829605224609375,2.0870537757873535,0.9151831865310669,-0.24599014222621918
1789799585275577000,3.8395771484375,2.186640977859497,0.945514440536499,-0.4309141933917999
1789799585285548300,3.84954833984375,2.2669436931610107,0.5006369352340698,-0.49349820613861084
1789799585295520000,3.85952001953125,2.3260884284973145,0.2281675785779953,-0.3385770618915558
1789799585305491200,3.8694912109375,2.333867311477661,0.4256229102611542,-0.14316236972808838
1789799585315463200,3.879463134765625,2.2944693565368652,0.9397886991500854,-0.1256944239139557
1789799585325434000,3.88943408203125,2.1444883346557617,1.2274322509765625,-0.3006065785884857
1789799585335406000,3.899406005859375,1.9030932188034058,0.7134369015693665,-0.41774916648864746
1789799585345377300,3.909377197265625,1.739126205444336,-0.0956583321094513,-0.30380165576934814
1789799585355349000,3.919348876953125,1.7623870372772217,-0.1364089548587799,-0.24080587923526764
1789799585365320200,3.9293203125,1.7854002714157104,0.14483219385147095,-0.30740341544151306
1789799585375292200,3.939292236328125,1.6840426921844482,0.31636345386505127,-0.373721718788147
1789799585385263000,3.94926318359375,1.4174429178237915,0.12461914122104645,-0.3555586636066437
1789799585395235000,3.959235107421875,1.1517434120178223,-0.5692358016967773,-0.23003749549388885
1789799585405206300,3.969206298828125,0.9938957095146179,-1.1071856021881104,-0.13178063929080963
1789799585415178000,3.979177978515625,0.9460080862045288,-0.8767797946929932,-0.16077233850955963
1789799585425149200,3.989149169921875,0.9137473702430725,-0.7159150838851929,-0.18152467906475067
1789799585435121200,3.99912109375,0.6812171936035156,-0.6160063147544861,-0.1006399542093277
1789799585445092000,4.009092041015625,0.39121973514556885,-0.36493685841560364,-0.0434589721262455
1789799585455064000,4.01906396484375,0.25737297534942627,-0.27996575832366943,-0.12477246671915054
1789799585465035300,4.02903515625,0.3296263813972473,-0.18446901440620422,-0.14322896301746368
1789799585475007000,4.039007080078125,0.4325312077999115,-0.01939697563648224,-0.020975500345230103
1789799585484978200,4.048978271484375,0.3211420774459839,-0.19194893538951874,0.04461438208818436
1789799585494949000,4.05894921875,0.1451617330312729,-0.34930819272994995,0.10275384783744812
1789799585504921000,4.068921142578125,0.07709001004695892,-0.31478652358055115,0.2014188915491104
1789799585514892000,4.07889208984375,0.08552370965480804,-0.011701494455337524,0.3176514804363251
1789799585524864300,4.0888642578125,0.04739788919687271,0.03410160914063454,0.3665570318698883
1789799585534835200,4.098835205078125,0.026255585253238678,-0.17615042626857758,0.33602389693260193
1789799585544807200,4.10880712890625,0.024628927931189537,-0.3734590411186218,0.30459538102149963
1789799585554778000,4.118778076171875,0.001975015038624406,-0.47813114523887634,0.23552417755126953
1789799585564750000,4.12875,-0.07222411781549454,-0.552976131439209,0.14370952546596527
1789799585574721000,4.138720947265625,-0.1833897829055786,-0.5472711324691772,0.1428796797990799
1789799585584692700,4.148692626953125,-0.2777647376060486,-0.5082697868347168,0.2801491320133209
1789799585594664000,4.158663818359375,-0.34206703305244446,-0.2221483439207077,0.46948444843292236
1789799585604636000,4.168635986328125,-0.38186508417129517,0.17489980161190033,0.5819924473762512
1789799585614606800,4.17860693359375,-0.41550400853157043,0.09066081047058105,0.5130677223205566
1789799585624579000,4.1885791015625,-0.4866524636745453,-0.39333102107048035,0.36809462308883667
1789799585634549800,4.1985498046875,-0.7336918115615845,-0.7406559586524963,0.2913481891155243
1789799585644522000,4.20852197265625,-1.0652801990509033,-0.9287643432617188,0.3284802734851837
1789799585654493000,4.218492919921875,-1.4112471342086792,-0.6034062504768372,0.35125935077667236
1789799585664465000,4.22846484375,-1.6344053745269775,0.07947772741317749,0.20827317237854004
1789799585674435800,4.238435791015625,-1.733657956123352,0.3134172558784485,-0.0843895971775055
1789799585684408000,4.248407958984375,-1.7822762727737427,0.027314312756061554,-0.3182331621646881
1789799585694378800,4.258378662109375,-1.8799327611923218,-0.27769699692726135,-0.3346148133277893
1789799585704351000,4.26835107421875,-1.9490174055099487,-0.5459097027778625,-0.2728022634983063
1789799585714322000,4.278322021484375,-1.955138921737671,-0.6009708046913147,-0.21133971214294434
1789799585724294000,4.2882939453125,-1.8734419345855713,-0.37160101532936096,-0.17588746547698975
1789799585734264800,4.298264892578125,-1.6922630071640015,-0.3521847128868103,-0.1855403631925583
1789799585744237000,4.308237060546875,-1.4445505142211914,-0.31769001483917236,-0.1308620125055313
1789799585754207700,4.318207763671875,-1.3031272888183594,-0.22775746881961823,-0.023092668503522873
1789799585764180000,4.328179931640625,-1.1576380729675293,-0.3028485178947449,0.002086108783259988
1789799585774151000,4.33815087890625,-1.028615117073059,-0.41352149844169617,-0.08788985013961792
1789799585784123000,4.348122802734375,-0.971397340297699,-0.3001827895641327,-0.18642224371433258
1789799585794093800,4.35809375,-0.9620874524116516,-0.02604977786540985,-0.18558095395565033
1789799585804066000,4.368066162109375,-1.0082226991653442,0.004602352157235146,-0.10447127372026443
1789799585814036700,4.37803662109375,-1.1127960681915283,-0.13113629817962646,0.016235703602433205
1789799585824009000,4.388009033203125,-1.2792054414749146,-0.1998121738433838,0.12221428006887436
1789799585833980000,4.39797998046875,-1.470801830291748,-0.18188883364200592,0.1568569391965866
1789799585843951900,4.407951904296875,-1.6463373899459839,-0.17393280565738678,0.14086061716079712
1789799585853922800,4.4179228515625,-1.7735505104064941,-0.19051630795001984,0.14379462599754333
1789799585863895000,4.42789501953125,-1.8729097843170166,-0.3418240249156952,0.1698414385318756
1789799585873865700,4.43786572265625,-1.9867033958435059,-0.5301771759986877,0.19056269526481628
1789799585883838000,4.447837890625,-2.066784620285034,-0.6154866814613342,0.1577124148607254
1789799585893809000,4.457808837890625,-2.1948659420013428,-0.6311708688735962,0.08604542911052704
1789799585903780900,4.46778076171875,-2.2287495136260986,-0.6280024647712708,0.008218547329306602
1789799585913751800,4.477751708984375,-2.1852359771728516,-0.6553283333778381,-0.06678778678178787
1789799585923724000,4.48772412109375,-2.144995927810669,-0.5520220398902893,-0.11242170631885529
1789799585933694700,4.49769482421875,-2.0835506916046143,-0.1943294107913971,-0.1079702377319336
1789799585943667000,4.5076669921875,-1.9368113279342651,0.1343601495027542,-0.12166222184896469
1789799585953638000,4.517637939453125,-1.710402488708496,-0.04139355570077896,-0.07434424012899399
1789799585963609900,4.52760986328125,-1.5508953332901,-0.5185753107070923,0.04815280809998512
1789799585973580800,4.537580810546875,-1.4457029104232788,-0.7418259382247925,0.10122667998075485
1789799585983553000,4.547552978515625,-1.304111361503601,-0.7046460509300232,0.08992663025856018
1789799585993523700,4.557523681640625,-1.2163718938827515,-0.7292267680168152,0.01915552467107773
1789799586003496000,4.567495849609375,-1.0984265804290771,-0.7767328023910522,-0.02157166600227356
1789799586013467000,4.577466796875,-1.0116914510726929,-0.8024362921714783,-0.06705153733491898
1789799586023438800,4.58743896484375,-0.8125317692756653,-0.5903784036636353,-0.0809510126709938
1789799586033409800,4.597409912109375,-0.574062168598175,-0.2662157416343689,-0.051686063408851624
1789799586043382000,4.607382080078125,-0.3728116452693939,0.05625944957137108,-0.04571002349257469
1789799586053353000,4.61735302734375,-0.1975111961364746,0.38416409492492676,-0.0105589609593153
1789799586063323600,4.62732373046875,-0.06897079944610596,0.46186569333076477,-0.03209226205945015
1789799586073296000,4.6372958984375,0.013272407464683056,0.18629270792007446,-0.1636526882648468
1789799586083267800,4.647267822265625,0.20543812215328217,0.1268138289451599,-0.29657986760139465
1789799586093238800,4.65723876953125,0.34119516611099243,0.014273428358137608,-0.31974804401397705
1789799586103211000,4.6672109375,0.482300341129303,-0.0060623097233474255,-0.24022653698921204
1789799586113182000,4.677181884765625,0.6516914963722229,0.16298982501029968,-0.1277141124010086
1789799586123152600,4.687152587890625,0.8394054770469666,0.31242236495018005,-0.019650449976325035
1789799586133124900,4.697124755859375,0.912081778049469,0.30070099234580994,-0.038662225008010864
1789799586143095800,4.707095703125,0.8876712918281555,0.39873209595680237,-0.127237930893898
1789799586153067800,4.71706787109375,0.9822582006454468,0.6420952081680298,-0.2646791338920593
1789799586163038700,4.727038818359375,1.1115981340408325,0.8054425120353699,-0.3071575462818146
1789799586173011000,4.737010986328125,1.32211434841156,0.9996402263641357,-0.28504478931427
1789799586182981600,4.746981689453125,1.553074598312378,1.2006508111953735,-0.20316389203071594
1789799586192953900,4.756953857421875,1.6500589847564697,1.2761677503585815,-0.10324554890394211
1789799586202924800,4.7669248046875,1.6184237003326416,1.1387319564819336,-0.08109346032142639
1789799586212896800,4.776896728515625,1.5920957326889038,0.8804682493209839,-0.09115755558013916
1789799586222867700,4.78686767578125,1.655042052268982,0.6657814979553223,-0.15281860530376434
1789799586232840000,4.79683984375,1.7901215553283691,0.5191720724105835,-0.18488307297229767
1789799586242810600,4.806810546875,1.9968997240066528,0.5952122211456299,-0.1339925080537796
1789799586252782800,4.816782958984375,2.1961328983306885,0.8636553883552551,-0.08542629331350327
1789799586262753800,4.82675390625,2.2564189434051514,1.1226763725280762,-0.08466833084821701
1789799586272725800,4.836725830078125,2.1707847118377686,1.303199291229248,-0.16903355717658997
1789799586282696700,4.84669677734375,2.0722451210021973,1.306973934173584,-0.30189141631126404
1789799586292669000,4.8566689453125,2.0119736194610596,1.0538420677185059,-0.3890633285045624
1789799586302639600,4.8666396484375,2.1148955821990967,0.8129711151123047,-0.4155605435371399
1789799586312611800,4.87661181640625,2.195650339126587,0.6897788643836975,-0.36283794045448303
1789799586322582800,4.886582763671875,2.198659896850586,0.6498690247535706,-0.30093488097190857
1789799586332554800,4.8965546875,2.2261483669281006,0.7752327919006348,-0.2932383418083191
1789799586342525700,4.906525634765625,2.312039375305176,0.9492943286895752,-0.32009732723236084
1789799586352498000,4.916497802734375,2.4336788654327393,0.8269631266593933,-0.3039606809616089
1789799586362468600,4.926468505859375,2.369521379470825,0.29125553369522095,-0.26132237911224365
1789799586372440800,4.93644091796875,2.1008787155151367,-0.2396024912595749,-0.2218729853630066
1789799586382411800,4.946411865234375,1.8933932781219482,-0.42220163345336914,-0.18172799050807953
1789799586392383700,4.9563837890625,1.7910906076431274,-0.29197120666503906,-0.1529029905796051
1789799586402354700,4.966354736328125,1.683921217918396,0.009580726735293865,-0.15436778962612152
1789799586412327000,4.976326904296875,1.5680482387542725,0.2979232966899872,-0.23074164986610413
1789799586422297900,4.9862978515625,1.4298086166381836,0.36371326446533203,-0.29376479983329773
1789799586432269800,4.996269775390625,1.2765237092971802,0.14115476608276367,-0.18303591012954712
1789799586442241000,5.006240966796875,1.1700183153152466,-0.1882188320159912,-0.10761773586273193
1789799586452212700,5.016212646484375,1.0468095541000366,-0.445597380399704,-0.13881215453147888
1789799586462184000,5.026183837890625,0.8565163016319275,-0.632188081741333,-0.1677621454000473
1789799586472156000,5.036156005859375,0.7029421925544739,-0.6454825401306152,-0.1416967213153839
1789799586482126800,5.046126953125,0.6203831434249878,-0.5856101512908936,-0.0690404400229454
1789799586492098800,5.056098876953125,0.6195460557937622,-0.5638558864593506,0.016512278467416763
1789799586502070000,5.066070068359375,0.6464067697525024,-0.47966909408569336,0.11203222721815109
1789799586512041700,5.076041748046875,0.6076082587242126,-0.40286245942115784,0.14178505539894104
1789799586522013000,5.086012939453125,0.4687528610229492,-0.2770529091358185,0.07021012157201767
1789799586531985000,5.09598486328125,0.3425546884536743,-0.09470787644386292,-0.006944588385522366
1789799586541955800,5.105955810546875,0.13856162130832672,0.07605791836977005,0.017120392993092537
1789799586551927800,5.115927734375,-0.07915978133678436,0.1805686056613922,0.10896696150302887
1789799586561899000,5.12589892578125,-0.2831243872642517,0.1471594274044037,0.19142816960811615
1789799586571870700,5.13587060546875,-0.4206444323062897,0.07377362996339798,0.26700788736343384
1789799586581842700,5.1458427734375,-0.5175057053565979,-0.09553675353527069,0.30841249227523804
1789799586591814400,5.155814453125,-0.5870972871780396,-0.1971544623374939,0.3128677010536194
1789799586601785600,5.16578564453125,-0.6072017550468445,-0.25586602091789246,0.2841782569885254
1789799586611757600,5.175757568359375,-0.6082121729850769,-0.5018031001091003,0.21458934247493744
1789799586621728800,5.185728759765625,-0.6318501234054565,-0.8243572115898132,0.15177598595619202
1789799586631700500,5.195700439453125,-0.6857783198356628,-0.7941977381706238,0.15721309185028076
1789799586641671700,5.205671630859375,-0.7900834083557129,-0.5260894298553467,0.1983586549758911
1789799586651643400,5.215643310546875,-0.9134442210197449,-0.06392686814069748,0.21769505739212036
1789799586661614600,5.225614501953125,-0.9800629615783691,0.5426411628723145,0.23881888389587402
1789799586671586600,5.235586669921875,-0.9907405972480774,0.6835495233535767,0.2552759051322937
1789799586681557800,5.245557861328125,-1.0125607252120972,0.40615952014923096,0.24512572586536407
1789799586691529500,5.255529541015625,-1.0089685916900635,0.054701339453458786,0.19736966490745544
1789799586701500700,5.265500732421875,-0.988217294216156,-0.08551793545484543,0.05312535911798477
1789799586711472400,5.275472412109375,-1.0768427848815918,0.16644611954689026,-0.09347394108772278
1789799586721443600,5.285443603515625,-1.1748732328414917,0.5100739598274231,-0.23541440069675446
1789799586731415600,5.29541552734375,-1.1613065004348755,0.45911386609077454,-0.34516194462776184
1789799586741386800,5.30538671875,-1.1915030479431152,0.09519519656896591,-0.4075210690498352
1789799586751358500,5.3153583984375,-1.3588097095489502,-0.1699608415365219,-0.3838636577129364
1789799586761329700,5.32532958984375,-1.6052874326705933,-0.03689991310238838,-0.35204464197158813
1789799586771301600,5.335301513671875,-1.764029622077942,0.2965984046459198,-0.4319485127925873
1789799586781272600,5.3452724609375,-1.6997545957565308,0.408803254365921,-0.4978807270526886
1789799586791244500,5.35524462890625,-1.6016024351119995,0.22024241089820862,-0.43853113055229187
1789799586801215700,5.3652158203125,-1.6370760202407837,-0.08615007251501083,-0.34053489565849304
1789799586811187500,5.3751875,-1.6335866451263428,-0.3349321782588959,-0.30620276927948
1789799586821158700,5.38515869140625,-1.521269679069519,-0.39403900504112244,-0.3126589357852936
1789799586831130600,5.395130615234375,-1.4638229608535767,-0.41062572598457336,-0.37436142563819885
1789799586841101600,5.4051015625,-1.4981231689453125,-0.49464988708496094,-0.4891732633113861
1789799586851073500,5.415073486328125,-1.6078022718429565,-0.5501810312271118,-0.6090565919876099
1789799586861044700,5.425044677734375,-1.7263238430023193,-0.557017982006073,-0.617743194103241
1789799586871016400,5.435016357421875,-1.8306382894515991,-0.6014360189437866,-0.44439613819122314
1789799586880987600,5.444987548828125,-1.8842926025390625,-0.6409188508987427,-0.1514272391796112
1789799586890959600,5.454959716796875,-1.8714226484298706,-0.6576203107833862,0.028862375766038895
1789799586900930600,5.4649306640625,-1.8373056650161743,-0.535668134689331,-0.03585559129714966
1789799586910902500,5.474902587890625,-1.7893184423446655,-0.2657032310962677,-0.2323838174343109
1789799586920873700,5.484873779296875,-1.8300548791885376,-0.2433563470840454,-0.38272973895072937
1789799586930845400,5.494845458984375,-1.8797028064727783,-0.5609840750694275,-0.3732589781284332
1789799586940816600,5.504816650390625,-1.9519020318984985,-1.1269855499267578,-0.22418414056301117
1789799586950788600,5.51478857421875,-2.0484848022460938,-1.2970765829086304,-0.13252826035022736
1789799586960759600,5.524759521484375,-2.0845518112182617,-0.8339640498161316,-0.1761448085308075
1789799586970731500,5.5347314453125,-1.8204628229141235,-0.5040830969810486,-0.2561165988445282
1789799586980702700,5.54470263671875,-1.4802659749984741,-0.6176984906196594,-0.22382210195064545
1789799586990674400,5.55467431640625,-1.2393505573272705,-0.7171204686164856,-0.0027973069809377193
1789799587000645600,5.564645751953125,-1.0586669445037842,-0.5708187222480774,0.20985622704029083
1789799587010617600,5.57461767578125,-0.9461992383003235,-0.20763012766838074,0.33657073974609375
1789799587020588500,5.584588623046875,-0.7778414487838745,-0.3145100772380829,0.4172821044921875
1789799587030560500,5.594560546875,-0.7705150842666626,-0.6052926182746887,0.4630914032459259
1789799587040531700,5.60453173828125,-0.7083818912506104,-0.8984821438789368,0.4755209982395172
1789799587050503400,5.61450341796875,-0.630096435546875,-0.8786357641220093,0.48528146743774414
1789799587060474600,5.624474609375,-0.5675683617591858,-0.7688572406768799,0.5274090766906738
1789799587070446600,5.634446533203125,-0.39063218235969543,-0.5254789590835571,0.49654117226600647
1789799587080417500,5.64441748046875,-0.12791666388511658,-0.24886949360370636,0.42286980152130127
1789799587090389500,5.654389404296875,0.057491809129714966,-0.09913166612386703,0.38131117820739746
1789799587100360700,5.664360595703125,0.18801891803741455,-0.04815074801445007,0.3629392683506012
1789799587110332400,5.67433251953125,0.3061503469944,0.08106183260679245,0.29172447323799133
1789799587120303600,5.6843037109375,0.38649311661720276,0.2137196958065033,0.2532285749912262
1789799587130275600,5.694275634765625,0.446654736995697,0.35012227296829224,0.2669065594673157
1789799587140246500,5.70424658203125,0.5648018717765808,0.7200241088867188,0.20703770220279694
1789799587150218500,5.714218505859375,0.7002614140510559,0.8983113169670105,0.17190128564834595
1789799587160189700,5.724189697265625,0.6868734359741211,0.7590733170509338,0.1996121108531952
1789799587170161400,5.734161376953125,0.7257406711578369,0.7169905304908752,0.16996020078659058
1789799587180132600,5.744132568359375,0.8549215793609619,0.7362621426582336,0.051801327615976334
1789799587190104600,5.7541044921875,0.9704300761222839,0.7786844372749329,-0.03728806599974632
1789799587200075500,5.764075439453125,1.1217234134674072,0.9589627385139465,-0.09101464599370956
1789799587210047500,5.774047607421875,1.3321235179901123,1.2296254634857178,-0.12032859027385712
1789799587220018700,5.784018798828125,1.4962667226791382,1.2603137493133545,-0.12288189679384232
1789799587229990400,5.793990478515625,1.5353672504425049,1.101868748664856,-0.13086365163326263
1789799587239961600,5.803961669921875,1.534419059753418,0.9137403964996338,-0.16044823825359344
1789799587249933600,5.81393359375,1.6153829097747803,0.9072638154029846,-0.2727587819099426
1789799587259904500,5.823904541015625,1.8401159048080444,1.0627232789993286,-0.41370898485183716
1789799587269876500,5.83387646484375,2.003805160522461,1.112329125404358,-0.505565881729126
1789799587279847700,5.84384765625,2.041999101638794,0.8120073676109314,-0.5159337520599365
1789799587289819400,5.8538193359375,2.06130313873291,0.6885709166526794,-0.4180138409137726
1789799587299790600,5.86379052734375,2.1070621013641357,0.6770580410957336,-0.37463200092315674
1789799587309762600,5.873762451171875,2.109602689743042,0.6116867661476135,-0.4432920217514038
1789799587319733500,5.8837333984375,2.1483333110809326,0.5263926386833191,-0.5499134659767151
1789799587329705500,5.89370556640625,2.2842843532562256,0.4448035657405853,-0.5787986516952515
1789799587339676700,5.9036767578125,2.4368956089019775,0.3583797812461853,-0.5222899913787842
1789799587349648400,5.9136484375,2.427837610244751,0.26523357629776,-0.3888844847679138
1789799587359619600,5.92361962890625,2.2806525230407715,0.25536614656448364,-0.271801233291626
1789799587369591600,5.933591552734375,2.181779146194458,0.34757837653160095,-0.22139373421669006
1789799587379562500,5.9435625,2.1663577556610107,0.4021969735622406,-0.2285393923521042
1789799587389534500,5.953534423828125,2.1299991607666016,0.38412052392959595,-0.276351660490036
1789799587399505700,5.963505615234375,2.066744565963745,0.30747827887535095,-0.3028374910354614
1789799587409477400,5.973477294921875,1.9709621667861938,0.21293100714683533,-0.21567115187644958
1789799587419448600,5.983448486328125,1.8301663398742676,0.13916942477226257,-0.06673751026391983
1789799587429420500,5.993420654296875,1.660220980644226,0.17236147820949554,-0.0028149886056780815
1789799587439391500,6.0033916015625,1.4695557355880737,0.19610236585140228,-0.028758473694324493
1789799587449363500,6.013363525390625,1.3209394216537476,0.02229727990925312,-0.049655232578516006
1789799587459334700,6.023334716796875,1.2491685152053833,-0.3166980743408203,-0.02789853885769844
1789799587469306400,6.033306396484375,1.2108004093170166,-0.5958250761032104,0.046325359493494034
1789799587479277600,6.043277587890625,1.0897572040557861,-0.6955159306526184,0.11433973908424377
1789799587489249500,6.05324951171875,0.8984916806221008,-0.7070394158363342,0.09725262969732285
1789799587499220700,6.063220703125,0.6880231499671936,-0.570360004901886,0.025810368359088898
1789799587509192400,6.0731923828125,0.5314436554908752,-0.40655431151390076,-0.038519084453582764
1789799587519163600,6.08316357421875,0.44788962602615356,-0.23212473094463348,-0.04507409781217575
1789799587529135400,6.09313525390625,0.4429553151130676,-0.19109074771404266,-0.06246587261557579
1789799587539106600,6.1031064453125,0.3417850434780121,-0.15734703838825226,-0.06211794912815094
1789799587549078500,6.11307861328125,0.15849965810775757,-0.08864253759384155,-0.05299502611160278
1789799587559049700,6.1230498046875,0.0019976492039859295,-0.1171441599726677,-0.04121502488851547
1789799587569021400,6.133021484375,-0.07812115550041199,-0.29549792408943176,0.0138546172529459
1789799587578992600,6.14299267578125,-0.19817432761192322,-0.4562321603298187,0.0700511634349823
1789799587588964000,6.152964111328125,-0.2351861298084259,-0.5542471408843994,0.12027491629123688
1789799587598935000,6.16293505859375,-0.29703566431999207,-0.5109825730323792,0.15432748198509216
1789799587608907300,6.1729072265625,-0.38551679253578186,-0.42906370759010315,0.1720191240310669
1789799587618878200,6.182878173828125,-0.41300514340400696,-0.2501855790615082,0.18548449873924255
1789799587628850200,6.19285009765625,-0.43149733543395996,-0.029293693602085114,0.1920446753501892
1789799587638821000,6.202821044921875,-0.49445152282714844,-0.03476898372173309,0.1693136841058731
1789799587648793300,6.21279345703125,-0.49951207637786865,-0.16241800785064697,0.19091404974460602
1789799587658764000,6.222763916015625,-0.4607124924659729,-0.18297134339809418,0.28302866220474243
1789799587668736300,6.232736328125,-0.48423004150390625,-0.15922047197818756,0.3751623332500458
1789799587678707200,6.242707275390625,-0.6057850122451782,-0.054297588765621185,0.459073543548584
1789799587688679200,6.25267919921875,-0.6787172555923462,0.07553736865520477,0.49574553966522217
1789799587698650000,6.262650146484375,-0.7101545333862305,0.1836128830909729,0.46732956171035767
1789799587708622300,6.272622314453125,-0.776320219039917,0.12591683864593506,0.3658982813358307
1789799587718593000,6.282593017578125,-0.8865271210670471,-0.2104429453611374,0.27604538202285767
1789799587728565200,6.292565185546875,-1.043874979019165,-0.6181577444076538,0.23248620331287384
1789799587738536200,6.3025361328125,-1.244942545890808,-0.6938666701316833,0.2113507091999054
1789799587748508200,6.312508056640625,-1.4611691236495972,-0.3953135311603546,0.18370257318019867
1789799587758479000,6.32247900390625,-1.5936813354492188,-0.10724784433841705,0.10018382221460342
1789799587768451300,6.332451416015625,-1.6431634426116943,-0.17385058104991913,-0.050979599356651306
1789799587778422000,6.342422119140625,-1.6422656774520874,-0.44412916898727417,-0.15300989151000977
1789799587788394200,6.352394287109375,-1.6513818502426147,-0.47112351655960083,-0.11429525911808014
1789799587798365200,6.362365234375,-1.755029320716858,-0.16603006422519684,-0.05044220760464668
1789799587808337200,6.372337158203125,-1.820033073425293,0.08410521596670151,-0.12298405170440674
1789799587818308000,6.38230810546875,-1.7603683471679688,-0.028182711452245712,-0.24437466263771057
1789799587828280300,6.3922802734375,-1.7158973217010498,-0.3792845606803894,-0.293206125497818
1789799587838251000,6.4022509765625,-1.6801587343215942,-0.5969070196151733,-0.28436803817749023
1789799587848223200,6.41222314453125,-1.6234033107757568,-0.48237964510917664,-0.3050389587879181
1789799587858194200,6.422194091796875,-1.516244649887085,-0.27340608835220337,-0.3301084637641907
1789799587868166100,6.432166259765625,-1.4643193483352661,-0.1617985963821411,-0.24825172126293182
1789799587878137000,6.44213720703125,-1.501517653465271,-0.12079113721847534,-0.13277718424797058
1789799587888109300,6.452109375,-1.5771236419677734,-0.02197321131825447,-0.09671398252248764
1789799587898080000,6.462080078125,-1.6273245811462402,0.15511052310466766,-0.08632563054561615
1789799587908052200,6.47205224609375,-1.651989221572876,0.06915939599275589,-0.04150090366601944
1789799587918023200,6.482023193359375,-1.7018276453018188,-0.3887028396129608,0.05088687688112259
1789799587927995100,6.4919951171875,-1.8525571823120117,-0.8808336853981018,0.112310029566288
1789799587937966000,6.501966064453125,-1.9751578569412231,-0.8956952095031738,0.10758960247039795
1789799587947938300,6.511938232421875,-2.00286865234375,-0.7938748002052307,0.10740663856267929
1789799587957909000,6.521908935546875,-1.916422963142395,-0.9434043169021606,0.15001307427883148
1789799587967881200,6.531881103515625,-1.8311493396759033,-1.1115320920944214,0.18957220017910004
1789799587977852200,6.54185205078125,-1.741373896598816,-1.1171444654464722,0.19016259908676147
1789799587987824000,6.55182421875,-1.5671645402908325,-1.0801494121551514,0.19974572956562042
1789799587997795000,6.561795166015625,-1.374781847000122,-0.9618516564369202,0.20952756702899933
1789799588007767300,6.571767333984375,-1.192718505859375,-0.7270442247390747,0.25028669834136963
1789799588017738000,6.581738037109375,-0.9883581399917603,-0.6373651623725891,0.2569665312767029
1789799588027710200,6.591710205078125,-0.8556139469146729,-0.5267406105995178,0.2115527093410492
1789799588037681200,6.60168115234375,-0.7882881760597229,-0.3136453628540039,0.21445266902446747
1789799588047653000,6.611653076171875,-0.6986944079399109,-0.15008944272994995,0.2136811465024948
1789799588057624000,6.6216240234375,-0.5699145793914795,-0.20223304629325867,0.17256620526313782
1789799588067596300,6.63159619140625,-0.5147628784179688,-0.27353331446647644,0.17141997814178467
1789799588077567000,6.64156689453125,-0.5547007322311401,-0.35597941279411316,0.1767583042383194
1789799588087539200,6.651539306640625,-0.4809442460536957,-0.3155992329120636,0.21603646874427795
1789799588097510100,6.66151025390625,-0.29512402415275574,-0.002985746134072542,0.22173525393009186
1789799588107482000,6.671482177734375,-0.2018636018037796,0.27680888772010803,0.26657354831695557
1789799588117453000,6.681453125,-0.10372903943061829,0.37943628430366516,0.26090770959854126
1789799588127425300,6.69142529296875,0.03756709396839142,0.37993401288986206,0.14324632287025452
1789799588137396200,6.701396240234375,0.16591547429561615,0.20887386798858643,0.06127345189452171
1789799588147368200,6.7113681640625,0.2552213966846466,0.17179760336875916,0.06223005801439285
1789799588157339100,6.721339111328125,0.46933233737945557,0.309054434299469,0.040512558072805405
1789799588167311000,6.73131103515625,0.6737289428710938,0.3827608823776245,0.11733197420835495
1789799588177282000,6.741281982421875,0.7114816308021545,0.35474950075149536,0.2448265552520752
1789799588187254300,6.751254150390625,0.7422240972518921,0.2474331557750702,0.2810199558734894
1789799588197225200,6.76122509765625,0.8103929758071899,0.21550747752189636,0.24293403327465057
1789799588207197200,6.771197265625,0.9101089239120483,0.2209738790988922,0.15766946971416473
1789799588217168100,6.781168212890625,1.0778305530548096,0.3981570899486542,0.11820901185274124
1789799588227140000,6.79114013671875,1.3021483421325684,0.754908561706543,0.1392892599105835
1789799588237111000,6.801111083984375,1.4721791744232178,1.027132511138916,0.1745487004518509
1789799588247083300,6.811083251953125,1.5936529636383057,1.202495813369751,0.16599808633327484
1789799588257054200,6.82105419921875,1.73062002658844,1.2204289436340332,0.10026440769433975
1789799588267026200,6.831026123046875,1.8705487251281738,1.1047711372375488,0.031273093074560165
1789799588276997400,6.840997314453125,2.015108823776245,1.0904662609100342,-0.016018997877836227
1789799588286969000,6.850968994140625,2.1170437335968018,1.1286336183547974,-0.03870460018515587
1789799588296940300,6.860940185546875,2.1459357738494873,0.9667997360229492,-0.08029505610466003
1789799588306912300,6.870912353515625,2.2335801124572754,1.0909758806228638,-0.11063671112060547
1789799588316883200,6.88088330078125,2.367582082748413,1.235268235206604,-0.13436926901340485
1789799588326855200,6.890855224609375,2.4985315799713135,1.2316687107086182,-0.1117933914065361
1789799588336826400,6.900826416015625,2.5222253799438477,0.9301586747169495,-0.12393780797719955
1789799588346798000,6.910798095703125,2.2776472568511963,0.43638813495635986,-0.19509267807006836
1789799588356769300,6.920769287109375,2.109780788421631,0.24136663973331451,-0.1573161482810974
1789799588366741200,6.9307412109375,2.1801741123199463,0.2865663468837738,-0.158881276845932
1789799588376712400,6.94071240234375,2.2135770320892334,0.19565534591674805,-0.24238406121730804
1789799588386684200,6.95068408203125,2.1851987838745117,0.18105803430080414,-0.2481444776058197
1789799588396655400,6.9606552734375,2.128988742828369,0.2793055772781372,-0.20753683149814606
1789799588406627000,6.970626953125,1.994596004486084,0.22456485033035278,-0.11475283652544022
1789799588416598300,6.980598388671875,1.863589882850647,-0.10326109826564789,-0.023716019466519356
1789799588426570200,6.9905703125,1.7914789915084839,-0.5207089185714722,0.01602926105260849
1789799588436541400,7.00054150390625,1.6644150018692017,-0.6648367047309875,0.022613883018493652
1789799588446513200,7.01051318359375,1.4710495471954346,-0.3978619873523712,-0.002297326922416687
1789799588456484400,7.020484375,1.2783151865005493,-0.04355105757713318,-0.057045258581638336
1789799588466456000,7.0304560546875,1.1467695236206055,0.022494008764624596,-0.06176704168319702
1789799588476427300,7.04042724609375,1.1272923946380615,-0.23946894705295563,0.04722512513399124
1789799588486399200,7.050399169921875,1.1912024021148682,-0.5716953277587891,0.09543447196483612
1789799588496370400,7.060370361328125,1.1609456539154053,-0.7175803780555725,0.07205545902252197
1789799588506342100,7.070342041015625,1.0928115844726562,-0.48040857911109924,0.06427210569381714
1789799588516313300,7.080313232421875,1.074586272239685,-0.20123976469039917,0.10783282667398453
1789799588526285000,7.09028515625,1.0232517719268799,-0.09087064862251282,0.16008484363555908
1789799588536256300,7.10025634765625,0.8442122340202332,-0.19917632639408112,0.18958061933517456
1789799588546228200,7.110228271484375,0.6881116032600403,-0.2090340107679367,0.19531039893627167
1789799588556199400,7.120199462890625,0.6010421514511108,-0.0365324541926384,0.18721796572208405
1789799588566171100,7.130171142578125,0.5144513845443726,0.05016755312681198,0.15593087673187256
1789799588576142300,7.140142333984375,0.397344708442688,-0.12345749884843826,0.10429041087627411
1789799588586114300,7.1501142578125,0.19817887246608734,-0.7206529974937439,0.07378789782524109
1789799588596085200,7.160085205078125,0.024312008172273636,-0.7602638602256775,0.18428435921669006
1789799588606057500,7.170057373046875,-0.216404989361763,-0.24691936373710632,0.3628793954849243
1789799588616028400,7.1800283203125,-0.48791345953941345,0.1334354132413864,0.4906167984008789
1789799588626000400,7.19000048828125,-0.6635984778404236,0.07976207882165909,0.5047584176063538
1789799588635971300,7.199971435546875,-0.8244499564170837,0.08103951811790466,0.4847026765346527
1789799588645943300,7.209943359375,-0.9630522727966309,0.25298863649368286,0.4594449996948242
1789799588655914200,7.219914306640625,-0.9987589120864868,0.1701098531484604,0.4256287217140198
1789799588665886500,7.229886474609375,-1.0255756378173828,-0.20516470074653625,0.3610697090625763
1789799588675857400,7.239857421875,-1.0223007202148438,-0.46492746472358704,0.25651565194129944
1789799588685829400,7.249829345703125,-1.0145591497421265,-0.5777831673622131,0.15609902143478394
1789799588695800300,7.25980029296875,-1.073243260383606,-0.505359411239624,0.0778612494468689
1789799588705771300,7.269771240234375,-1.1255091428756714,-0.1285407841205597,0.0423317551612854
1789799588715743200,7.2797431640625,-1.093917965888977,0.42015084624290466,0.079584501683712
1789799588725714200,7.289714111328125,-0.954664409160614,0.5771615505218506,0.06304307281970978
1789799588735686400,7.299686279296875,-0.8779723048210144,0.4614594876766205,0.01646219938993454
1789799588745657000,7.309656982421875,-0.8944772481918335,0.42321541905403137,-0.019080081954598427
1789799588755629300,7.31962939453125,-0.9646163582801819,0.36071714758872986,-0.010892458260059357
1789799588765600300,7.329600341796875,-1.085697889328003,0.34033438563346863,0.005596503149718046
1789799588775572200,7.339572265625,-1.2063966989517212,0.4359886348247528,-0.0033497964031994343
1789799588785543200,7.349543212890625,-1.2581552267074585,0.3877691924571991,-0.09110228717327118
1789799588795515400,7.359515380859375,-1.3074527978897095,0.13028022646903992,-0.21037110686302185
1789799588805486000,7.369486083984375,-1.3538354635238647,-0.220770463347435,-0.27967187762260437
1789799588815458300,7.379458251953125,-1.4102410078048706,-0.5128334164619446,-0.34518712759017944
1789799588825429200,7.38942919921875,-1.4433906078338623,-0.43886706233024597,-0.4550611674785614
1789799588835401200,7.399401123046875,-1.4689711332321167,-0.17359144985675812,-0.5571727752685547
1789799588845372200,7.4093720703125,-1.4849492311477661,0.037092022597789764,-0.5610945224761963
1789799588855344400,7.419344482421875,-1.5798993110656738,0.2085595577955246,-0.49593356251716614
1789799588865315000,7.429315185546875,-1.6787680387496948,0.36592599749565125,-0.43089914321899414
1789799588875287300,7.439287353515625,-1.6633795499801636,0.4407317340373993,-0.36566635966300964
1789799588885258200,7.44925830078125,-1.61381196975708,0.34635594487190247,-0.2875974178314209
1789799588895230200,7.459230224609375,-1.6239495277404785,0.032753437757492065,-0.24988485872745514
1789799588905201200,7.469201171875,-1.752798318862915,-0.23325534164905548,-0.22834575176239014
1789799588915173400,7.47917333984375,-1.9052622318267822,-0.37522760033607483,-0.22436413168907166
1789799588925144300,7.489144287109375,-2.0621418952941895,-0.38913223147392273,-0.21617278456687927
1789799588935116300,7.4991162109375,-2.1384661197662354,-0.3461074233055115,-0.18654409050941467
1789799588945087200,7.509087158203125,-2.120924711227417,-0.22526459395885468,-0.17632794380187988
1789799588955059200,7.51905908203125,-2.0081491470336914,-0.12334424257278442,-0.1955302655696869
1789799588965030100,7.529030029296875,-1.9744856357574463,-0.1726745218038559,-0.19841739535331726
1789799588975002400,7.53900244140625,-1.9532326459884644,-0.2817157208919525,-0.18307413160800934
1789799588984973300,7.548973388671875,-1.9098010063171387,-0.6672346591949463,-0.15326030552387238
1789799588994945300,7.5589453125,-1.9145153760910034,-1.1589767932891846,-0.10148603469133377
1789799589004916200,7.568916259765625,-1.794486165046692,-1.3845611810684204,-0.07923585176467896
1789799589014888200,7.57888818359375,-1.6182234287261963,-1.5842491388320923,-0.06850827485322952
1789799589024859100,7.588859130859375,-1.45461905002594,-1.6255654096603394,0.014428146183490753
1789799589034831400,7.598831298828125,-1.2803528308868408,-1.4211657047271729,0.1125149205327034
1789799589044802300,7.60880224609375,-1.1327340602874756,-1.2093600034713745,0.17349916696548462
1789799589054774300,7.618774169921875,-0.9538803696632385,-0.7914665937423706,0.14020951092243195
1789799589064745200,7.6287451171875,-0.7525264620780945,-0.3593399226665497,0.1614500731229782
1789799589074717200,7.63871728515625,-0.5753189325332642,-0.11157135665416718,0.2655321955680847
1789799589084688100,7.648688232421875,-0.3976043462753296,0.06482525169849396,0.2595669627189636
1789799589094660400,7.658660400390625,-0.2548709213733673,0.3040858507156372,0.2536988854408264
1789799589104631300,7.66863134765625,-0.17638114094734192,0.6172706484794617,0.24733473360538483
1789799589114603300,7.678603271484375,-0.1401781290769577,0.8894949555397034,0.2961808443069458
1789799589124574200,7.68857421875,-0.12109604477882385,0.9681796431541443,0.42323067784309387
1789799589134546200,7.698546142578125,-0.03107588179409504,0.3807847499847412,0.45843663811683655
1789799589144517000,7.70851708984375,0.037480276077985764,-0.03549182787537575,0.2996373772621155
1789799589154489300,7.7184892578125,0.20703469216823578,-0.061699941754341125,0.15575598180294037
1789799589164460300,7.728460205078125,0.3647737205028534,0.03501035273075104,0.18020325899124146
1789799589174432300,7.738432373046875,0.5042514801025391,0.26143550872802734,0.33695125579833984
1789799589184403200,7.7484033203125,0.6596146821975708,0.43490713834762573,0.5165191292762756
1789799589194374400,7.75837451171875,0.7555028796195984,0.3981972336769104,0.5510050058364868
1789799589204346000,7.76834619140625,0.8032269477844238,0.03973415121436119,0.37699005007743835
1789799589214317300,7.7783173828125,0.9012132287025452,0.11459039896726608,0.12400373816490173
1789799589224289300,7.788289306640625,1.1923233270645142,0.7755313515663147,-0.0005320683121681213
1789799589234260200,7.79826025390625,1.4383782148361206,1.2244514226913452,0.035711295902729034
1789799589244232200,7.808232177734375,1.5699713230133057,1.257930874824524,0.06574483215808868
1789799589254203400,7.818203369140625,1.6744118928909302,1.1302728652954102,-0.003726113121956587
1789799589264175000,7.828175048828125,1.7665221691131592,0.9230101704597473,-0.1053565964102745
1789799589274146300,7.838146240234375,1.7903649806976318,0.8076586127281189,-0.13015903532505035
1789799589284118300,7.8481181640625,1.8476144075393677,1.0924954414367676,-0.05406240373849869
1789799589294089200,7.858089111328125,1.8560214042663574,1.2747526168823242,-0.056558758020401
1789799589304061400,7.8680615234375,1.8680498600006104,1.2652530670166016,-0.18482324481010437
1789799589314032400,7.878032470703125,1.9699664115905762,1.183632493019104,-0.29995858669281006
1789799589324004400,7.88800439453125,2.132418155670166,1.1117289066314697,-0.32936573028564453
1789799589333975300,7.897975341796875,2.3225114345550537,1.118881344795227,-0.29312863945961
1789799589343947500,7.907947509765625,2.341698408126831,1.1331745386123657,-0.3074173033237457
1789799589353918200,7.917918212890625,2.154310941696167,1.1397840976715088,-0.38533324003219604
1789799589363890400,7.927890380859375,2.0838475227355957,1.0931521654129028,-0.4725610911846161
1789799589373861400,7.937861328125,2.2831475734710693,0.8737808465957642,-0.5258297920227051
1789799589383833300,7.947833251953125,2.4306468963623047,0.6119359135627747,-0.498531311750412
1789799589393804300,7.95780419921875,2.32871413230896,0.5250999331474304,-0.46314293146133423
1789799589403776500,7.967776611328125,2.122062921524048,0.6104662418365479,-0.46396586298942566
1789799589413747200,7.977747314453125,2.007549524307251,0.6134234070777893,-0.45584774017333984
1789799589423719400,7.987719482421875,1.9613348245620728,0.4072377383708954,-0.4321557283401489
1789799589433690400,7.9976904296875,1.928085207939148,0.1213625818490982,-0.41758912801742554
1789799589443662300,8.007662353515625,1.8861700296401978,-0.041157081723213196,-0.3957972824573517
1789799589453633300,8.01763330078125,1.8137120008468628,-0.096579410135746,-0.4030340015888214
1789799589463605500,8.02760546875,1.7628618478775024,-0.0863608568906784,-0.5147415995597839
1789799589473576200,8.037576171875,1.7418818473815918,-0.08144507557153702,-0.6432620286941528
1789799589483548400,8.04754833984375,1.728410243988037,-0.13443025946617126,-0.6499561071395874
1789799589493519400,8.057519287109375,1.622096300125122,-0.14919845759868622,-0.5425466895103455
1789799589503491300,8.0674912109375,1.4066801071166992,-0.16605626046657562,-0.45800334215164185
1789799589513462300,8.077462158203126,1.1083810329437256,-0.06896413862705231,-0.46150127053260803
1789799589523434500,8.0874345703125,0.8774098753929138,0.11158966273069382,-0.4884308874607086
1789799589533405200,8.0974052734375,0.7881278991699219,0.09386575222015381,-0.5343079566955566
1789799589543377400,8.10737744140625,0.6820355653762817,0.0013786962954327464,-0.49393635988235474
1789799589553348400,8.117348388671875,0.5594313740730286,-0.03613881766796112,-0.3708523213863373
1789799589563319300,8.1273193359375,0.43885326385498047,-0.18856963515281677,-0.2964515686035156
1789799589573291300,8.137291259765625,0.27745240926742554,-0.43219757080078125,-0.27397826313972473
1789799589583263000,8.147262939453125,0.1376657336950302,-0.5809984803199768,-0.21353355050086975
1789799589593235000,8.15723486328125,0.01786690205335617,-0.48611709475517273,-0.15604284405708313
1789799589603206000,8.167205810546875,-0.11312121152877808,-0.20996086299419403,-0.13473916053771973
1789799589613178000,8.17717822265625,-0.24087144434452057,0.03907296434044838,-0.1425495743751526
1789799589623148800,8.187148681640625,-0.35760578513145447,0.02529243566095829,-0.14994198083877563
1789799589633121000,8.19712109375,-0.4928615987300873,-0.14626143872737885,-0.17188695073127747
1789799589643092000,8.207092041015626,-0.584967851638794,-0.29582351446151733,-0.1700296550989151
1789799589653064000,8.21706396484375,-0.6811864972114563,-0.12735410034656525,-0.10570874065160751
1789799589663035000,8.227034912109374,-0.7853914499282837,0.17022645473480225,-0.04965958744287491
1789799589673007000,8.237007080078126,-0.8548722863197327,0.33274057507514954,-0.0008967379108071327
1789799589682977800,8.246977783203125,-0.8897136449813843,0.388785719871521,0.05491486191749573
1789799589692950000,8.256949951171874,-0.9335319399833679,0.40416690707206726,0.0894922986626625
1789799589702921000,8.2669208984375,-0.9812081456184387,0.21401053667068481,0.06884055584669113
1789799589712893000,8.276892822265625,-0.9973300695419312,-0.16932281851768494,0.08397411555051804
1789799589722863900,8.28686376953125,-1.0120584964752197,-0.39729660749435425,0.14386674761772156
1789799589732836000,8.296836181640625,-1.0567407608032227,-0.4084691107273102,0.2140505313873291
1789799589742806800,8.306806884765624,-1.1758311986923218,-0.2595137357711792,0.2649075984954834
1789799589752779000,8.316779052734375,-1.306428074836731,-0.08697342127561569,0.28106433153152466
1789799589762750000,8.32675,-1.4312360286712646,-0.004719825927168131,0.2445710450410843
1789799589772722000,8.336721923828126,-1.5405960083007812,-0.07305467873811722,0.17725060880184174
1789799589782692900,8.34669287109375,-1.6131623983383179,-0.2116469144821167,0.14406229555606842
1789799589792665000,8.3566650390625,-1.6804438829421997,-0.2689957320690155,0.12427818775177002
1789799589802636000,8.366635986328125,-1.7133288383483887,-0.19997379183769226,0.04098223149776459
1789799589812608000,8.37660791015625,-1.714632272720337,-0.1636325865983963,-0.04958425462245941
1789799589822579000,8.386578857421876,-1.6990240812301636,-0.3266249895095825,-0.0911111906170845
1789799589832550000,8.3965498046875,-1.6605892181396484,-0.6377804279327393,-0.04132445529103279
1789799589842521900,8.40652197265625,-1.629101276397705,-0.8878933191299438,0.016244564205408096
1789799589852492800,8.416492919921875,-1.5809903144836426,-0.8384206891059875,0.06400468945503235
1789799589862465000,8.426465087890625,-1.6228610277175903,-0.4490590989589691,0.07358381152153015
1789799589872435700,8.436435791015626,-1.6178631782531738,0.10985106974840164,0.012937238439917564
1789799589882408000,8.446407958984375,-1.5453345775604248,0.4865850508213043,-0.05233284458518028
1789799589892379000,8.45637890625,-1.5004593133926392,0.4391503930091858,-0.01936485804617405
1789799589902350800,8.466350830078126,-1.483742594718933,-0.07841764390468597,0.06672901660203934
1789799589912321800,8.47632177734375,-1.4811038970947266,-0.715777575969696,0.14239183068275452
1789799589922294000,8.4862939453125,-1.4244203567504883,-0.9499554634094238,0.13141880929470062
1789799589932264700,8.4962646484375,-1.3584595918655396,-1.00851309299469,0.07201290875673294
1789799589942237000,8.50623681640625,-1.2532644271850586,-1.178937315940857,0.03483331948518753
1789799589952208000,8.516207763671876,-1.1185728311538696,-1.3855175971984863,-0.008181119337677956
1789799589962179800,8.526179931640625,-1.0048985481262207,-1.4650119543075562,-0.05352196842432022
1789799589972150800,8.53615087890625,-0.9565275311470032,-1.3944755792617798,-0.06782471388578415
1789799589982123000,8.546123046875,-0.9564420580863953,-1.123360276222229,-0.10881129652261734
1789799589992093700,8.55609375,-0.9832233190536499,-0.737675130367279,-0.1115579903125763
1789799590002066000,8.56606591796875,-1.022608995437622,-0.4018486738204956,-0.06660809367895126
1789799590012036900,8.576036865234375,-1.0698379278182983,-0.0703151673078537,-0.047502193599939346
1789799590022008800,8.5860087890625,-1.1696749925613403,0.31915029883384705,-0.04458124190568924
1789799590031980000,8.59597998046875,-1.2322182655334473,0.5714277029037476,0.028196511790156364
1789799590041952000,8.605951904296875,-1.2928123474121094,0.6921447515487671,0.15379758179187775
1789799590051923000,8.6159228515625,-1.401551604270935,0.7589253187179565,0.18301624059677124
1789799590061895000,8.62589501953125,-1.499049186706543,0.652493953704834,0.22569285333156586
1789799590071866000,8.6358662109375,-1.471342921257019,0.39961865544319153,0.36592626571655273
1789799590081837000,8.645837158203125,-1.3118603229522705,0.22476482391357422,0.5467256307601929
1789799590091809000,8.65580908203125,-1.1138426065444946,0.08158732950687408,0.69904625415802
1789799590101780000,8.665780029296876,-1.0190635919570923,-0.4834699332714081,0.6836254596710205
1789799590111752000,8.675751953125,-1.0271267890930176,-1.0176680088043213,0.49305465817451477
1789799590121723000,8.685722900390624,-0.8624290227890015,-1.1520791053771973,0.31097060441970825
1789799590131695000,8.695695068359376,-0.6609898805618286,-1.1464425325393677,0.23848576843738556
1789799590141666000,8.705666015625,-0.37615999579429626,-1.0169188976287842,0.25661975145339966
1789799590151638000,8.715637939453124,0.0047034588642418385,-0.7855404019355774,0.24924947321414948
1789799590161609000,8.72560888671875,0.3813394010066986,-0.48012828826904297,0.18207550048828125
1789799590171581000,8.735580810546875,0.7838913798332214,-0.015360946767032146,0.08515851944684982
1789799590181551900,8.7455517578125,1.1430822610855103,0.6361971497535706,0.07715598493814468
1789799590191524000,8.755524169921875,1.3270171880722046,0.9241974353790283,0.11888113617897034
1789799590201495000,8.7654951171875,1.2479586601257324,0.8622360825538635,0.0805547907948494
1789799590211467000,8.775467041015625,1.212726354598999,1.0548254251480103,-0.02409227192401886
1789799590221438000,8.78543798828125,1.2855901718139648,1.3807657957077026,-0.12223615497350693
1789799590231410000,8.795409912109376,1.418019413948059,1.8873738050460815,-0.16702309250831604
1789799590241380900,8.805380859375,1.528321385383606,2.287659168243408,-0.18511047959327698
1789799590251353000,8.81535302734375,1.6591014862060547,2.1974971294403076,-0.17236687242984772
1789799590261324000,8.825323974609375,1.8762264251708984,1.5887136459350586,-0.09112954139709473
1789799590271294700,8.835294677734375,2.0670719146728516,0.7573034763336182,0.06603901088237762
1789799590281267000,8.845266845703126,2.311469078063965,0.430217444896698,0.08314396440982819
1789799590291238000,8.85523779296875,2.4666450023651123,0.7800091505050659,-0.029790068045258522
1789799590301209900,8.8652099609375,2.365865468978882,1.1002739667892456,-0.17209580540657043
1789799590311180800,8.875180908203125,1.9364182949066162,1.1008380651474,-0.4855641722679138
1789799590321153000,8.885153076171875,1.622070550918579,0.9932101964950562,-0.626481294631958
1789799590331123700,8.895123779296876,1.674201488494873,0.859027087688446,-0.5148389339447021
1789799590341096000,8.905095947265625,1.7930042743682861,0.4732050895690918,-0.3327362537384033
1789799590351067000,8.91506689453125,1.9916940927505493,0.027826355770230293,-0.22646446526050568
1789799590361038800,8.925038818359376,2.2052383422851562,-0.23617786169052124,-0.13675402104854584
1789799590371009800,8.935009765625,2.3531219959259033,-0.35866621136665344,-0.00046124448999762535
1789799590380982000,8.94498193359375,2.4852070808410645,-0.42725351452827454,0.11692210286855698
1789799590390952700,8.95495263671875,2.5972788333892822,-0.27555811405181885,0.19799453020095825
1789799590400925000,8.964925048828125,2.6708977222442627,0.011052854359149933,0.24406349658966064
1789799590410896000,8.974895751953126,2.666297435760498,0.13670921325683594,0.2699790298938751
1789799590420867800,8.984867919921875,2.556518316268921,0.09058218449354172,0.31819263100624084
1789799590430838800,8.9948388671875,2.378599166870117,0.22799935936927795,0.3907908499240875
1789799590440811000,9.00481103515625,2.184222459793091,0.5386541485786438,0.41731005907058716
1789799590450781700,9.01478173828125,2.052191734313965,0.8863715529441833,0.32464221119880676
1789799590460753000,9.0247529296875,1.9152469635009766,1.0221470594406128,0.11357979476451874
1789799590470724900,9.034724853515625,1.7329602241516113,0.8175225257873535,-0.12224230170249939
1789799590480696000,9.044696044921874,1.5336003303527832,0.3185540437698364,-0.27888357639312744
1789799590490667800,9.054667724609375,1.3069242238998413,-0.18282271921634674,-0.2524048984050751
1789799590500639000,9.064638916015625,1.08108389377594,-0.5523160696029663,-0.14040857553482056
1789799590510611000,9.07461083984375,0.8068078756332397,-0.8433552980422974,-0.16154728829860687
1789799590520582000,9.084581787109375,0.4884709119796753,-0.9477466344833374,-0.2896977961063385
1789799590530553900,9.094553955078124,0.17078456282615662,-0.8729801177978516,-0.43693122267723083
1789799590540525000,9.104525146484375,-0.1621028482913971,-0.5455148816108704,-0.47759050130844116
1789799590550496800,9.114496826171875,-0.4121347665786743,-0.04541787505149841,-0.446384996175766
1789799590560468000,9.124468017578126,-0.4994875192642212,0.30104953050613403,-0.4518151879310608
1789799590570440000,9.13443994140625,-0.5428648591041565,0.4798293709754944,-0.5339399576187134
1789799590580411000,9.144410888671874,-0.4804754853248596,0.40631788969039917,-0.5633574724197388
1789799590590382300,9.15438232421875,-0.3840523064136505,0.18682646751403809,-0.4604479968547821
1789799590600353500,9.164353515625,-0.36992210149765015,0.040555279701948166,-0.2988889515399933
1789799590610325200,9.1743251953125,-0.40553757548332214,-0.11074784398078918,-0.1763475388288498
1789799590620296400,9.18429638671875,-0.44363516569137573,-0.07713395357131958,-0.10783238708972931
1789799590630267400,9.194267333984374,-0.4540869891643524,-0.08228860795497894,-0.0867399200797081
1789799590640239400,9.2042392578125,-0.4501500427722931,-0.36382177472114563,-0.08742035925388336
1789799590650210300,9.214210205078125,-0.4116998612880707,-0.7006858587265015,-0.06295951455831528
1789799590660182500,9.2241826171875,-0.3779056668281555,-0.8513627052307129,-0.03336354345083237
1789799590670153500,9.234153564453125,-0.39300262928009033,-0.8220039010047913,0.004280465189367533
1789799590680125400,9.24412548828125,-0.4866146147251129,-0.5384092330932617,0.12201801687479019
1789799590690096400,9.254096435546876,-0.5831003785133362,-0.006185128353536129,0.2835502326488495
1789799590700068400,9.264068359375,-0.6915466785430908,0.4204421043395996,0.3561330735683441
1789799590710039300,9.274039306640624,-0.8396600484848022,0.5402704477310181,0.33692893385887146
1789799590720011500,9.284011474609375,-1.035288691520691,0.4397624731063843,0.31440073251724243
1789799590729982500,9.293982421875,-1.1968085765838623,0.19518369436264038,0.31807535886764526
1789799590739954400,9.303954345703126,-1.3009523153305054,-0.08526632934808731,0.34738290309906006
1789799590749925400,9.31392529296875,-1.3252618312835693,-0.3023625314235687,0.3158815801143646
1789799590759897300,9.3238974609375,-1.250335454940796,-0.5047180652618408,0.20181094110012054
1789799590769868300,9.333868408203125,-1.0958510637283325,-0.6068655848503113,0.0835757777094841
1789799590779839500,9.343839599609375,-1.03201425075531,-0.6590217351913452,0.024218183010816574
1789799590789811500,9.3538115234375,-1.043160080909729,-0.7882083058357239,0.00019742082804441452
1789799590799782400,9.363782470703125,-1.109205961227417,-0.9696441292762756,0.03376124054193497
1789799590809754400,9.37375439453125,-1.2244760990142822,-0.9114617705345154,0.11376100033521652
1789799590819725600,9.3837255859375,-1.3256394863128662,-0.4875243604183197,0.11265099048614502
1789799590829697300,9.393697265625,-1.3540860414505005,0.034493960440158844,-0.0648137554526329
1789799590839668500,9.40366845703125,-1.3183364868164062,0.11655288189649582,-0.3595287501811981
1789799590849640400,9.413640380859375,-1.265441656112671,-0.1346551924943924,-0.5553617477416992
1789799590859611400,9.423611328125,-1.2814648151397705,-0.4197031855583191,-0.47263702750205994
1789799590869583400,9.433583251953126,-1.4253764152526855,-0.4472457468509674,-0.26910197734832764
1789799590879554600,9.443554443359375,-1.6456936597824097,-0.03631891682744026,-0.15474797785282135
1789799590889526300,9.4535263671875,-1.8232572078704834,0.4333615303039551,-0.18050117790699005
1789799590899497500,9.46349755859375,-1.857866644859314,0.6842573881149292,-0.2337835729122162
1789799590909469400,9.473469482421875,-1.8139537572860718,0.651040256023407,-0.1731923371553421
1789799590919440400,9.4834404296875,-1.7533615827560425,0.3238171339035034,-0.07635926455259323
1789799590929412400,9.493412353515625,-1.7063215970993042,-0.1257256120443344,-0.012047146447002888
1789799590939383600,9.503383544921874,-1.6322814226150513,-0.5077546834945679,0.018991731107234955
1789799590949354500,9.5133544921875,-1.5934224128723145,-0.7799246907234192,0.04967891424894333
1789799590959326500,9.523326416015625,-1.6660183668136597,-0.9032319784164429,0.0893016904592514
1789799590969297400,9.53329736328125,-1.772395372390747,-1.005432367324829,0.0868457481265068
1789799590979269600,9.54326953125,-1.781799554824829,-1.185890793800354,0.04596303403377533
1789799590989240300,9.553240234375,-1.813215970993042,-1.3320343494415283,0.015315121039748192
1789799590999212500,9.563212646484375,-1.8330647945404053,-1.3579468727111816,0.0542830266058445
1789799591009183500,9.57318359375,-1.8287044763565063,-1.2676805257797241,0.11316709220409393
1789799591019155500,9.583155517578126,-1.7621842622756958,-1.0791484117507935,0.114197738468647
1789799591029126400,9.59312646484375,-1.6803858280181885,-0.9217299222946167,0.14583593606948853
1789799591039098600,9.6030986328125,-1.5943529605865479,-0.7379710078239441,0.26371651887893677
1789799591049069300,9.6130693359375,-1.4675498008728027,-0.35925325751304626,0.36890485882759094
1789799591059041500,9.62304150390625,-1.3339173793792725,0.11047215759754181,0.38298818469047546
1789799591069012500,9.633012451171876,-1.1533913612365723,0.37111300230026245,0.29977282881736755
1789799591078984400,9.642984375,-0.912016749382019,0.22261327505111694,0.3522874116897583
1789799591088955400,9.652955322265624,-0.7449150681495667,0.01239750161767006,0.48591288924217224
1789799591098926300,9.66292626953125,-0.6033923029899597,-0.11475671827793121,0.5141714215278625
1789799591108898300,9.672898193359375,-0.4262969195842743,-0.2231365442276001,0.48238319158554077
1789799591118869200,9.682869140625,-0.22785359621047974,-0.1548488289117813,0.45846375823020935
1789799591128841500,9.692841552734375,-0.0016617404762655497,0.03181931748986244,0.402082234621048
1789799591138812400,9.7028125,0.1397521048784256,0.13477712869644165,0.38864898681640625
1789799591148784400,9.712784423828126,0.2161877304315567,0.1199939101934433,0.3664398789405823
1789799591158755300,9.72275537109375,0.3258258104324341,0.2849852740764618,0.2886633276939392
1789799591168727300,9.732727294921874,0.45767974853515625,0.5198899507522583,0.2250339686870575
1789799591178698200,9.7426982421875,0.5438071489334106,0.6029672622680664,0.22409892082214355
1789799591188670500,9.75267041015625,0.6710152626037598,0.6113487482070923,0.1882200837135315
1789799591198641400,9.762641357421876,0.8155383467674255,0.52253258228302,0.12540437281131744
1789799591208613400,9.77261328125,0.9170086979866028,0.36815574765205383,0.09750819951295853
1789799591218584600,9.78258447265625,0.9826164841651917,0.1944316327571869,0.09588500112295151
1789799591228555500,9.792555419921875,1.040642261505127,0.0496397539973259,0.07954231649637222
1789799591238527500,9.802527587890625,1.1054103374481201,0.0689479410648346,0.0782429575920105
1789799591248498400,9.81249853515625,1.212067723274231,0.28416043519973755,0.055518850684165955
1789799591258470700,9.822470703125,1.3845425844192505,0.7238861918449402,0.027171894907951355
1789799591268441300,9.83244140625,1.508471965789795,0.9756685495376587,0.017050452530384064
1789799591278413600,9.84241357421875,1.5561082363128662,1.016365647315979,-0.054787784814834595
1789799591288384500,9.852384521484375,1.6856553554534912,1.1170603036880493,-0.2120416909456253
1789799591298356500,9.8623564453125,1.8667457103729248,1.2655211687088013,-0.34033626317977905
1789799591308327400,9.872327392578125,2.0087082386016846,1.363327145576477,-0.37881696224212646
1789799591318299600,9.882299560546874,2.1056766510009766,1.3956600427627563,-0.38446712493896484
1789799591328270300,9.892270263671875,2.1724414825439453,1.4211370944976807,-0.3820083439350128
1789799591338242600,9.90224267578125,2.207939386367798,1.3757858276367188,-0.3423040807247162
1789799591348213500,9.912213623046876,2.201310873031616,1.2815171480178833,-0.2806697487831116
1789799591358184400,9.922184326171875,2.181391954421997,1.232764482498169,-0.2406030297279358
1789799591368156400,9.932156494140624,2.13608455657959,1.161658763885498,-0.27951833605766296
1789799591378127400,9.94212744140625,2.0699386596679688,0.9120844006538391,-0.38873377442359924
1789799591388099300,9.952099365234375,2.017704486846924,0.558806300163269,-0.4300561547279358
1789799591398070300,9.9620703125,2.0561389923095703,0.4706932008266449,-0.3592893183231354
1789799591408042500,9.97204248046875,2.1634135246276855,0.6028574109077454,-0.34115511178970337
1789799591418013400,9.982013427734374,2.2159042358398438,0.5960503816604614,-0.3767719268798828
1789799591427985400,9.9919853515625,2.1203951835632324,0.4098754823207855,-0.38558319211006165
1789799591437956400,10.001956298828125,1.9177039861679077,0.23312601447105408,-0.33828383684158325
1789799591447928300,10.01192822265625,1.738433599472046,-0.059308260679244995,-0.29469597339630127
1789799591457899300,10.021899169921875,1.5482796430587769,-0.3521345257759094,-0.25608599185943604
1789799591467870500,10.031870361328124,1.3328368663787842,-0.4765264093875885,-0.23040910065174103
1789799591477842400,10.041842529296876,1.164430022239685,-0.556254506111145,-0.20784787833690643
1789799591487813400,10.0518134765625,1.0490450859069824,-0.6440508961677551,-0.10501370579004288
1789799591497785300,10.061785400390624,1.004763126373291,-0.6550543308258057,-0.0007956945337355137
1789799591507756500,10.071756591796875,1.028220534324646,-0.5050070285797119,0.0524909608066082
1789799591517728300,10.081728271484375,1.0178014039993286,-0.3239615857601166,0.07644902914762497
1789799591527699500,10.091699462890626,0.9252471923828125,-0.16885019838809967,0.0898369550704956
1789799591537671400,10.10167138671875,0.8191570043563843,-0.05117923393845558,0.11406772583723068
1789799591547642400,10.111642333984374,0.749601423740387,-0.04851807653903961,0.10430993884801865
1789799591557614300,10.1216142578125,0.6673821806907654,-0.010892136953771114,0.10405267775058746
1789799591567585500,10.13158544921875,0.5921041965484619,-0.061625804752111435,0.13502907752990723
1789799591577556500,10.141556396484376,0.47977444529533386,-0.09429214894771576,0.15539081394672394
1789799591587528200,10.151528076171875,0.37287575006484985,-0.0876692607998848,0.16244956851005554
1789799591597499100,10.1614990234375,0.2571997344493866,-0.22186487913131714,0.13138511776924133
1789799591607471000,10.17147119140625,0.09408213198184967,-0.36537855863571167,0.11842630803585052
1789799591617442000,10.181442138671875,-0.018827907741069794,-0.47702357172966003,0.11439241468906403
1789799591627414300,10.191414306640626,-0.11586632579565048,-0.5176348686218262,0.13080991804599762
1789799591637385200,10.20138525390625,-0.21375933289527893,-0.3125781714916229,0.15830093622207642
1789799591647357200,10.211357177734374,-0.28920668363571167,-0.03342488408088684,0.16986648738384247
1789799591657328000,10.221328125,-0.3771620988845825,0.03932735323905945,0.1317196488380432
1789799591667300400,10.23130029296875,-0.524539053440094,0.12834304571151733,0.12394553422927856
1789799591677271000,10.24127099609375,-0.6752409338951111,0.4586013853549957,0.15526245534420013
1789799591687242200,10.2512421875,-0.7588599324226379,0.6861779093742371,0.14048618078231812
1789799591697214200,10.261214111328124,-0.814221978187561,0.4232355058193207,0.051634348928928375
1789799591707185200,10.27118505859375,-0.891722559928894,0.08553309738636017,-0.03615959361195564
1789799591717157000,10.2811572265625,-0.978917121887207,-0.003055359935387969,-0.060602083802223206
1789799591727128300,10.29112841796875,-1.0495610237121582,0.10300754010677338,-0.038333673030138016
1789799591737100000,10.30110009765625,-1.0755161046981812,0.12886843085289001,-0.0431223027408123
1789799591747071200,10.3110712890625,-1.0993669033050537,-0.09215762466192245,-0.0946938619017601
1789799591757043200,10.321043212890626,-1.1482635736465454,-0.10413332283496857,-0.1652713567018509
1789799591767014100,10.33101416015625,-1.1782071590423584,0.16815295815467834,-0.26432642340660095
1789799591776986000,10.340986083984374,-1.2213844060897827,0.5460243225097656,-0.354581743478775
1789799591786957300,10.350957275390625,-1.2552318572998047,0.7566182613372803,-0.3356510400772095
1789799591796928300,10.36092822265625,-1.2462021112442017,0.5834875106811523,-0.21569667756557465
1789799591806900200,10.370900146484376,-1.238092303276062,0.194961816072464,-0.1459990292787552
1789799591816871200,10.38087109375,-1.195046305656433,-0.09697869420051575,-0.2066141664981842
1789799591826843100,10.390843017578124,-1.0844345092773438,-0.07653041183948517,-0.3420851528644562
1789799591836814000,10.40081396484375,-1.0846917629241943,0.1418004184961319,-0.4767012894153595
1789799591846786300,10.410786376953125,-1.1868597269058228,0.3026985824108124,-0.5772668719291687
1789799591856757200,10.42075732421875,-1.2982735633850098,0.2023051381111145,-0.608112633228302
1789799591866729200,10.430729248046875,-1.4192959070205688,-0.11990288645029068,-0.6201058626174927
1789799591876700200,10.4407001953125,-1.4822736978530884,-0.2535959780216217,-0.6006373763084412
1789799591886672400,10.45067236328125,-1.4511438608169556,-0.0966615080833435,-0.4631894826889038
1789799591896643000,10.46064306640625,-1.3961749076843262,0.26710498332977295,-0.25333452224731445
1789799591906614000,10.470614013671875,-1.3857825994491577,0.5927379727363586,-0.15164650976657867
1789799591916586200,10.480586181640625,-1.4413434267044067,0.6942321062088013,-0.15747377276420593
1789799591926557200,10.49055712890625,-1.4706474542617798,0.41703441739082336,-0.15984226763248444
1789799591936529200,10.500529052734375,-1.4902410507202148,-0.1597207933664322,-0.12159688770771027
1789799591946500000,10.5105,-1.5357849597930908,-0.6295973062515259,-0.08223148435354233
1789799591956472000,10.52047216796875,-1.5698100328445435,-0.9000341296195984,-0.11056458950042725
1789799591966443000,10.530443115234375,-1.5917590856552124,-1.0676827430725098,-0.10485819727182388
1789799591976415200,10.540415283203124,-1.6361563205718994,-1.1344451904296875,-0.04857388138771057
1789799591986386200,10.55038623046875,-1.6417545080184937,-1.0295628309249878,0.0098356818780303
1789799591996358100,10.560358154296875,-1.555371642112732,-0.7666044235229492,0.0562649667263031
1789799592006329000,10.5703291015625,-1.4791290760040283,-0.6351736187934875,0.08301343023777008
1789799592016300300,10.58030029296875,-1.5809755325317383,-0.9129799008369446,0.03275904431939125
1789799592026272000,10.59027197265625,-1.6539530754089355,-1.2392261028289795,-0.060786861926317215
1789799592036243200,10.6002431640625,-1.5066747665405273,-1.3026511669158936,-0.09767137467861176
1789799592046215200,10.610215087890625,-1.3620884418487549,-1.2642742395401,-0.07992148399353027
1789799592056186000,10.62018603515625,-1.1676915884017944,-1.1588761806488037,-0.017291391268372536
1789799592066158000,10.630157958984375,-1.0173050165176392,-1.032870888710022,0.05417714640498161
1789799592076129300,10.64012939453125,-0.8656893372535706,-0.9034364819526672,0.07001256942749023
1789799592086101000,10.65010107421875,-0.6325509548187256,-0.7620561122894287,-0.002505355980247259
1789799592096072200,10.660072265625,-0.400592565536499,-0.5232980847358704,-0.14295594394207
1789799592106044200,10.670044189453124,-0.2365386188030243,0.08103054016828537,-0.11513092368841171
1789799592116015000,10.68001513671875,-0.10888557136058807,0.9030333161354065,0.061655838042497635
1789799592125986000,10.689986083984374,-0.06118862330913544,1.7724809646606445,0.4010457396507263
1789799592135958300,10.699958251953126,-0.058287374675273895,2.317819356918335,0.6687597632408142
1789799592145929200,10.70992919921875,-0.14031854271888733,1.8200136423110962,0.44679781794548035
1789799592155901200,10.719901123046874,-0.3790179491043091,0.9552429914474487,0.1943970024585724
1789799592165872000,10.7298720703125,-0.38048192858695984,0.664341926574707,0.37361881136894226
1789799592175844000,10.739843994140625,-0.2163662314414978,0.02002418227493763,0.7115432620048523
1789799592185815000,10.74981494140625,-0.10048355907201767,-1.2081165313720703,0.8923961520195007
1789799592195787300,10.759787353515625,0.03166595846414566,-1.6997467279434204,0.7497316598892212
1789799592205758200,10.76975830078125,0.1504194438457489,-1.408300518989563,0.5191460251808167
1789799592215729200,10.779729248046875,0.3891393542289734,-0.8001596331596375,0.32458797097206116
1789799592225701000,10.789701171875,0.727554440498352,-0.17688821256160736,0.23390327394008636
1789799592235672300,10.79967236328125,0.9979481101036072,0.1620485782623291,0.21612241864204407
1789799592245644000,10.80964404296875,1.2035797834396362,0.3189939558506012,0.20938028395175934
1789799592255615200,10.819615234375,1.4328161478042603,0.8070043921470642,0.10039068013429642
1789799592265587200,10.829587158203125,1.6150468587875366,1.3815903663635254,-0.10018248111009598
1789799592275558100,10.83955810546875,1.7015209197998047,1.6028878688812256,-0.3186519742012024
1789799592285530000,10.849530029296876,1.705307960510254,1.3318564891815186,-0.47338002920150757
1789799592295501300,10.859501220703125,1.710990071296692,0.984110951423645,-0.5154289603233337
1789799592305472300,10.86947216796875,1.8905607461929321,0.6803188920021057,-0.49746906757354736
1789799592315444200,10.8794443359375,2.29366397857666,0.5138084292411804,-0.4266689419746399
1789799592325415200,10.889415283203125,2.888496160507202,0.8538122177124023,-0.19093318283557892
1789799592335387100,10.89938720703125,3.2789437770843506,2.543660879135132,0.08037927746772766
1789799592345358000,10.909358154296875,2.85205078125,3.499727964401245,-0.003387104719877243
1789799592355330300,10.919330322265624,2.2885494232177734,1.7831674814224243,-0.5584436655044556
1789799592365301200,10.92930126953125,1.8403598070144653,0.47351911664009094,-0.7138034105300903
1789799592375273200,10.939273193359375,2.3036673069000244,0.4513898491859436,-0.29305383563041687
1789799592385244200,10.949244140625,2.4301366806030273,1.1317393779754639,-0.1698738932609558
1789799592395215400,10.95921533203125,1.5415523052215576,0.9805054068565369,-0.1015973687171936
1789799592405187000,10.96918701171875,0.6135088205337524,0.4513721764087677,-0.4242101013660431
1789799592415158300,10.979158203125,0.5166624784469604,0.6656647324562073,-0.840291440486908
1789799592425130200,10.989130126953125,0.71925950050354,0.4107647240161896,-1.0934453010559082
1789799592435101200,10.99910107421875,0.8431814312934875,-0.30741390585899353,-1.131625771522522
1789799592445073200,11.0090732421875,1.0471466779708862,-1.3396097421646118,-0.8421275019645691
1789799592455044400,11.01904443359375,1.4574100971221924,-1.5870912075042725,-0.3437746465206146
1789799592465016000,11.02901611328125,1.7963025569915771,-0.9117339849472046,-0.04834004491567612
1789799592474987300,11.0389873046875,1.999403715133667,-0.15089711546897888,-0.14040446281433105
1789799592484958200,11.048958251953126,2.193819522857666,0.3129180073738098,-0.37366893887519836
1789799592494930200,11.05893017578125,2.3333823680877686,0.2848733365535736,-0.508300244808197
1789799592504901000,11.068901123046874,2.2745535373687744,0.09887200593948364,-0.4368508756160736
1789799592514873300,11.078873291015626,2.091142416000366,0.18984238803386688,-0.1346377432346344
1789799592524844300,11.08884423828125,1.93052077293396,0.295310914516449,0.19506673514842987
1789799592534816300,11.098816162109374,1.9241657257080078,0.6218964457511902,0.3009505271911621
1789799592544787200,11.108787109375,1.9475864171981812,0.7950957417488098,0.12963171303272247
1789799592554759200,11.11875927734375,1.6561551094055176,0.31511926651000977,-0.16948547959327698
1789799592564730000,11.128730224609376,1.1106425523757935,-0.03088228404521942,-0.4421374499797821
1789799592574701000,11.138701171875,0.7022917866706848,-0.2840721905231476,-0.6565266847610474
1789799592584673300,11.14867333984375,0.4475085139274597,-0.6109064221382141,-0.6609094142913818
1789799592594644500,11.15864453125,0.2668724060058594,-0.52589350938797,-0.5286160707473755
1789799592604616700,11.16861669921875,0.08024899661540985,-0.1679476648569107,-0.38041359186172485
1789799592614587600,11.178587646484376,-0.14608508348464966,0.16449660062789917,-0.1780860424041748
1789799592624559600,11.1885595703125,-0.3471665680408478,0.48823481798171997,-0.039760708808898926
1789799592634530600,11.198530517578124,-0.4691723585128784,0.618408739566803,0.028898244723677635
1789799592644502500,11.20850244140625,-0.6270967125892639,0.6048460602760315,-0.003687867894768715
1789799592654473500,11.218473388671875,-0.7102049589157104,0.5010927319526672,-0.1439536213874817
1789799592664444400,11.2284443359375,-0.7445735335350037,0.6012661457061768,-0.3196680545806885
1789799592674416600,11.238416748046875,-0.8407890200614929,0.5395817756652832,-0.3591212034225464
1789799592684387300,11.24838720703125,-0.8357740640640259,0.10381727665662766,-0.10967236757278442
1789799592694359600,11.258359619140625,-0.7446707487106323,-0.6407293081283569,0.06889764219522476
1789799592704330500,11.26833056640625,-0.669588029384613,-1.2879528999328613,-0.015220634639263153
1789799592714302500,11.278302490234376,-0.650105893611908,-1.436810851097107,-0.1887226402759552
1789799592724273400,11.2882734375,-0.7756592631340027,-1.1380579471588135,-0.28756144642829895
1789799592734244600,11.29824462890625,-0.9743947386741638,-0.8955291509628296,-0.29884472489356995
1789799592744216300,11.30821630859375,-1.1212785243988037,-0.7876166105270386,-0.23015974462032318
1789799592754187500,11.3181875,-1.2810710668563843,-0.6324528455734253,-0.17374441027641296
1789799592764159500,11.328159423828126,-1.4750008583068848,-0.29355743527412415,-0.17496274411678314
1789799592774130700,11.338130615234375,-1.6125539541244507,0.06808759272098541,-0.2065933644771576
1789799592784102400,11.348102294921874,-1.6721477508544922,0.38280269503593445,-0.23252633213996887
1789799592794073600,11.358073486328125,-1.6387629508972168,0.3986271917819977,-0.19332486391067505
1789799592804045300,11.36804541015625,-1.6750295162200928,0.26680049300193787,-0.08502954244613647
1789799592814016500,11.3780166015625,-1.8238354921340942,0.43871551752090454,0.031167104840278625
1789799592823987500,11.387987548828125,-1.9867584705352783,0.6126996278762817,0.11983413249254227
1789799592833959700,11.397959716796874,-1.9795479774475098,0.466529905796051,0.15670721232891083
1789799592843930400,11.407930419921875,-1.7849220037460327,0.2206738293170929,0.24089382588863373
1789799592853902600,11.417902587890625,-1.531764268875122,0.050579871982336044,0.34181058406829834
1789799592863873500,11.42787353515625,-1.2789442539215088,-0.25820040702819824,0.39425626397132874
1789799592873845500,11.437845458984375,-1.0769280195236206,-0.6884515881538391,0.3752162456512451
1789799592883816400,11.44781640625,-0.9580051302909851,-0.9966245889663696,0.3181993365287781
1789799592893787600,11.45778759765625,-0.9005679488182068,-1.1963369846343994,0.22660602629184723
1789799592903759400,11.46775927734375,-0.8835849165916443,-1.258908987045288,0.11554858833551407
1789799592913730600,11.47773046875,-0.9087427258491516,-1.164241075515747,0.06412108242511749
1789799592923702500,11.48770263671875,-0.9153383374214172,-1.1279207468032837,0.07457412034273148
1789799592933673700,11.497673828125,-0.9159826040267944,-1.0709320306777954,0.1275787502527237
1789799592943645400,11.5076455078125,-0.927767276763916,-0.8893156051635742,0.19584646821022034
1789799592953616600,11.51761669921875,-1.0059038400650024,-0.635966420173645,0.26914331316947937
1789799592963587600,11.527587646484376,-1.125096321105957,-0.3840094804763794,0.31283703446388245
1789799592973559600,11.5375595703125,-1.282089114189148,-0.18398131430149078,0.32514190673828125
1789799592983530500,11.547530517578124,-1.5142472982406616,-0.11293307691812515,0.3483647406101227
1789799592993502700,11.557502685546876,-1.8658668994903564,0.06002724915742874,0.31671252846717834
1789799593003473400,11.567473388671875,-2.130215644836426,0.2925686836242676,0.028367023915052414
1789799593013445600,11.577445556640624,-2.1862196922302246,0.480896532535553,-0.1070544496178627
1789799593023416600,11.58741650390625,-2.0254721641540527,0.3325432240962982,0.2111455500125885
1789799593033388500,11.597388427734375,-1.8684163093566895,0.03286143019795418,0.6340672373771667
1789799593043359500,11.607359375,-1.7901510000228882,-0.7271473407745361,0.7392062544822693
1789799593053330700,11.61733056640625,-1.6805133819580078,-1.270889163017273,0.5885632634162903
1789799593063302400,11.627302490234374,-1.2478491067886353,-1.1342957019805908,0.5167918801307678
1789799593073273600,11.637273681640625,-0.7892869114875793,-0.8406427502632141,0.4745919406414032
1789799593083245600,11.64724560546875,-0.5891501903533936,-1.0076828002929688,0.3885290026664734
1789799593093216800,11.657216796875,-0.5131403803825378,-1.0269523859024048,0.42524734139442444
1789799593103188500,11.6671884765625,-0.4227544665336609,-0.5096752047538757,0.6725369691848755
1789799593113159700,11.67715966796875,-0.38867905735969543,-0.30269962549209595,0.8410577774047852
1789799593123130600,11.687130615234375,-0.4373597800731659,-0.1721942126750946,0.6963054537773132
1789799593133102600,11.6971025390625,-0.31495609879493713,0.13884781301021576,0.4218542277812958
1789799593143073500,11.707073486328126,-0.1180504709482193,0.5417526364326477,0.318704754114151
1789799593153045800,11.717045654296875,-0.06898333132266998,0.8187578320503235,0.40312641859054565
1789799593163016400,11.727016357421874,-0.12816093862056732,0.7914244532585144,0.4431213140487671
1789799593172988700,11.73698876953125,-0.14301738142967224,0.48207220435142517,0.3826587498188019
1789799593182959600,11.746959716796875,-0.08831103146076202,0.07505974918603897,0.25189271569252014
1789799593192930600,11.7569306640625,0.000017495942302048206,-0.13757343590259552,0.20238535106182098
1789799593202902500,11.766902587890625,0.15146887302398682,0.6016235947608948,0.26353538036346436
1789799593212873500,11.77687353515625,0.052656542509794235,0.8951167464256287,0.31188639998435974
1789799593222845400,11.786845458984375,0.0019230218604207039,0.7041829228401184,0.44341760873794556
1789799593232816400,11.79681640625,0.17671267688274384,0.3289235532283783,0.3134406805038452
1789799593242788600,11.80678857421875,0.23095300793647766,0.2660287320613861,-0.0010709059424698353
1789799593252759600,11.816759521484375,0.324204683303833,0.8009174466133118,0.02497374452650547
1789799593262731500,11.8267314453125,0.3886190950870514,0.8301771283149719,0.02050754241645336
1789799593272702500,11.836702392578125,0.489033579826355,0.6802038550376892,0.15327678620815277
1789799593282673700,11.846673583984375,0.6371831893920898,0.6715954542160034,0.2502332329750061
1789799593292645400,11.856645263671876,0.8544395565986633,0.7147453427314758,0.24078619480133057
1789799593302616600,11.866616455078125,1.0998783111572266,0.7309544086456299,0.19459667801856995
1789799593312588500,11.876588623046874,1.2586796283721924,0.7501533627510071,0.06998071819543839
1789799593322559500,11.8865595703125,1.305220603942871,0.9122725129127502,-0.10762191563844681
1789799593332531500,11.896531494140625,1.3871721029281616,1.1225695610046387,-0.23232311010360718
1789799593342502700,11.906502685546876,1.5905678272247314,1.394890308380127,-0.24730555713176727
1789799593352473600,11.9164736328125,1.8662207126617432,1.5055052042007446,-0.2643721401691437
1789799593362445600,11.926445556640624,2.087242841720581,1.5153452157974243,-0.25341853499412537
1789799593372416500,11.93641650390625,2.1773948669433594,1.4158015251159668,-0.20405073463916779
1789799593382388500,11.946388427734375,2.148686170578003,1.2312229871749878,-0.26094308495521545
1789799593392359400,11.956359375,2.0485448837280273,1.0137090682983398,-0.4193689525127411
1789799593402331600,11.96633154296875,2.1020493507385254,0.6308329701423645,-0.5181677341461182
1789799593412302600,11.976302490234374,2.2254207134246826,0.31782451272010803,-0.48170432448387146
1789799593422273500,11.9862734375,2.275456666946411,0.12950348854064941,-0.5018827319145203
1789799593432245500,11.99624560546875,2.3222122192382812,-0.05881929025053978,-0.5338358879089355
1789799593442216700,12.006216796875,2.291414499282837,-0.15830446779727936,-0.4501393735408783
1789799593452188400,12.0161884765625,2.1947221755981445,-0.25344911217689514,-0.3486931622028351
1789799593462159600,12.02615966796875,2.010938882827759,-0.36385926604270935,-0.28603672981262207
1789799593472131600,12.036131591796876,1.8239538669586182,-0.21059566736221313,-0.30675986409187317
1789799593482102500,12.0461025390625,1.7661389112472534,0.14948150515556335,-0.3515772819519043
1789799593492073500,12.056073486328126,1.8201749324798584,0.503161609172821,-0.365677148103714
1789799593502045700,12.066045654296875,1.83695387840271,0.6805436611175537,-0.3471468389034271
1789799593512016600,12.0760166015625,1.7267110347747803,0.6599944233894348,-0.2942127585411072
1789799593521988600,12.085988525390626,1.4541929960250854,0.5576000809669495,-0.2715718448162079
1789799593531959600,12.09595947265625,1.2428873777389526,0.5057017207145691,-0.3716587722301483
1789799593541931500,12.105931640625,1.2108248472213745,0.6138867735862732,-0.49263492226600647
1789799593551902500,12.11590234375,1.2145085334777832,0.5851038694381714,-0.45255035161972046
1789799593561873400,12.125873291015624,1.1247587203979492,0.1377735137939453,-0.3513754606246948
1789799593571845600,12.135845703125,1.0253647565841675,-0.46816062927246094,-0.3631138503551483
1789799593581816300,12.14581640625,0.9642617106437683,-0.9089146852493286,-0.5114022493362427
1789799593591788500,12.15578857421875,0.822836697101593,-0.8554258942604065,-0.6261849999427795
1789799593601759500,12.165759521484375,0.6626520752906799,-0.5494297742843628,-0.6808855533599854
1789799593611731500,12.1757314453125,0.5160213708877563,-0.10623157769441605,-0.7034704685211182
1789799593621702400,12.185702392578126,0.4499961733818054,0.43141981959342957,-0.6402682065963745
1789799593631673600,12.195673583984375,0.506669819355011,0.7437228560447693,-0.3858662545681
1789799593641645300,12.205645263671874,0.4128154516220093,0.5689414143562317,-0.26173001527786255
1789799593651616500,12.215616455078125,0.15702229738235474,0.27414628863334656,-0.26342323422431946
1789799593661588500,12.22558837890625,-0.08649308234453201,-0.27114346623420715,-0.20419389009475708
1789799593671559700,12.2355595703125,-0.23763225972652435,-0.8146187663078308,-0.10675974190235138
1789799593681530400,12.2455302734375,-0.4135969281196594,-0.8059073090553284,-0.02068442851305008
1789799593691502600,12.255502685546874,-0.6089035868644714,-0.5045509338378906,0.02703435905277729
1789799593701473500,12.2654736328125,-0.7486558556556702,-0.2975933253765106,0.027174754068255424
1789799593711445500,12.275445556640625,-0.8812376260757446,-0.15644977986812592,-0.0202175285667181
1789799593721416400,12.28541650390625,-0.9337484836578369,-0.05807778611779213,-0.04235704615712166
1789799593731388700,12.295388671875,-0.8507164120674133,-0.32625892758369446,-0.013636719435453415
1789799593741359400,12.305359375,-0.7067831754684448,-0.7259823083877563,0.019909948110580444
1789799593751330300,12.315330322265625,-0.5600906610488892,-0.7880755066871643,0.05508125200867653
1789799593761302500,12.325302490234375,-0.44836631417274475,-0.5473403930664062,0.12647467851638794
1789799593771273500,12.3352734375,-0.3909091353416443,-0.3264756500720978,0.26735857129096985
1789799593781245400,12.345245361328125,-0.4361546039581299,-0.20398488640785217,0.4121003746986389
1789799593791216400,12.35521630859375,-0.5298997759819031,-0.16103768348693848,0.4839039742946625
1789799593801188400,12.365188232421875,-0.568681538105011,-0.19220682978630066,0.45954057574272156
1789799593811159300,12.3751591796875,-0.5767878890037537,-0.07840808480978012,0.4044640064239502
1789799593821130500,12.385130615234376,-0.6352266669273376,0.15289238095283508,0.38969990611076355
1789799593831102500,12.3951025390625,-0.75900799036026,0.0846499502658844,0.3498861789703369
1789799593841073400,12.405073486328124,-0.8317210674285889,-0.43569260835647583,0.24449844658374786
1789799593851045400,12.41504541015625,-0.869358479976654,-0.6123546957969666,0.13990385830402374
1789799593861016600,12.4250166015625,-0.9211090803146362,-0.27938371896743774,0.09141025692224503
1789799593870988300,12.43498828125,-1.086621642112732,0.23183906078338623,0.03655899316072464
