time,seconds_elapsed,z,y,x
1789453363445275400,0.061275390625,0.13213935494422913,0.0019579557701945305,0.4283841550350189
1789453363455216000,0.071216064453125,0.06067448481917381,0.04707323759794235,0.45625627040863037
1789453363465157400,0.081157470703125,-0.015993282198905945,0.08031666278839111,0.42112383246421814
1789453363475098000,0.09109814453125,-0.11007636785507202,0.12199512869119644,0.324900358915329
1789453363485038300,0.101038330078125,-0.17024308443069458,0.18789847195148468,0.19559016823768616
1789453363494979000,0.11097900390625,-0.1763872653245926,0.2449878454208374,0.08211313933134079
1789453363504920300,0.12092041015625,-0.14941315352916718,0.2798682749271393,0.007958309724926949
1789453363514861000,0.130861083984375,-0.11338457465171814,0.2712412178516388,-0.018297528848052025
1789453363524802300,0.14080224609375,-0.08756937086582184,0.17382217943668365,-0.008232942782342434
1789453363534742000,0.150741943359375,-0.08419808000326157,0.033694639801979065,0.012919479981064796
1789453363544683300,0.160683349609375,-0.07798442244529724,-0.08331035822629929,0.023386463522911072
1789453363554624300,0.170624267578125,-0.05643918737769127,-0.1864609718322754,-0.0032637903932482004
1789453363564565200,0.180565185546875,-0.015308701433241367,-0.25786903500556946,-0.06674858927726746
1789453363574505200,0.190505126953125,0.03231794014573097,-0.3050578534603119,-0.15407922863960266
1789453363584446200,0.2004462890625,0.0516279861330986,-0.32070523500442505,-0.24663420021533966
1789453363594387200,0.21038720703125,0.049780286848545074,-0.290141224861145,-0.30609723925590515
1789453363604328200,0.220328125,0.05549197271466255,-0.20527565479278564,-0.31354907155036926
1789453363614268400,0.230268310546875,0.07040807604789734,-0.11357663571834564,-0.2752442955970764
1789453363624209200,0.240209228515625,0.09616190195083618,-0.046834561973810196,-0.2093597948551178
1789453363634150100,0.250150146484375,0.12237352877855301,-0.01503775268793106,-0.10937434434890747
1789453363644091100,0.260091064453125,0.1276807188987732,-0.0028755515813827515,0.007751252502202988
1789453363654031400,0.27003125,0.10159558057785034,-0.028404081240296364,0.12515750527381897
1789453363663972000,0.27997216796875,0.0557253435254097,-0.060972899198532104,0.20893537998199463
1789453363673913300,0.289913330078125,0.01457710936665535,-0.08339112251996994,0.27072444558143616
1789453363683854000,0.29985400390625,-0.034114670008420944,-0.11395048350095749,0.29850223660469055
1789453363693794300,0.309794189453125,-0.08100654184818268,-0.15030290186405182,0.27515509724617004
1789453363703735000,0.319735107421875,-0.12100794911384583,-0.18254880607128143,0.20880131423473358
1789453363713676300,0.32967626953125,-0.13681727647781372,-0.18766741454601288,0.1130409762263298
1789453363723617300,0.3396171875,-0.10610897094011307,-0.1471928507089615,0.029522426426410675
1789453363733558300,0.349558349609375,-0.040853001177310944,-0.07079529017210007,0.001181065570563078
1789453363743498000,0.359498046875,0.03218356892466545,0.013848158530890942,0.0404830276966095
1789453363753439200,0.369439208984375,0.09036857634782791,0.06725119054317474,0.14504139125347137
1789453363763380200,0.379380126953125,0.12317448854446411,0.055329687893390656,0.2782232165336609
1789453363773321500,0.389321533203125,0.12119389325380325,-0.009857572615146637,0.4010026752948761
1789453363783261200,0.39926123046875,0.09746897220611572,-0.08684611320495605,0.47514453530311584
1789453363793202400,0.409202392578125,0.05465412884950638,-0.16098318994045258,0.4785824120044708
1789453363803143200,0.41914306640625,0.003666376229375601,-0.2002265304327011,0.4084356427192688
1789453363813084400,0.42908447265625,-0.05162244662642479,-0.194536954164505,0.29279425740242004
1789453363823024400,0.4390244140625,-0.08673103898763657,-0.15151263773441315,0.15495990216732025
1789453363832965400,0.44896533203125,-0.10254941880702972,-0.05944449082016945,0.03273386508226395
1789453363842906400,0.45890625,-0.09183952957391739,0.04341834783554077,-0.05396449193358421
1789453363852847400,0.468847412109375,-0.07601688802242279,0.11634155362844467,-0.10498666763305664
1789453363862787600,0.47878759765625,-0.051402315497398376,0.15970715880393982,-0.1235496774315834
1789453363872728300,0.488728271484375,-0.02663678117096424,0.1672241985797882,-0.10220391303300858
1789453363882669600,0.498669677734375,-0.012656588107347488,0.14520689845085144,-0.061240311712026596
1789453363892610300,0.5086103515625,-0.016054516658186913,0.08946027606725693,-0.012454930692911148
1789453363902551300,0.51855126953125,-0.03241833671927452,0.014769664034247398,0.024538706988096237
1789453363912491300,0.5284912109375,-0.057533543556928635,-0.04968522489070892,0.031616322696208954
1789453363922432500,0.5384326171875,-0.0759495422244072,-0.10296855866909027,0.014680016785860062
1789453363932373200,0.548373291015625,-0.10261896997690201,-0.11595785617828369,-0.0019226622534915805
1789453363942314500,0.558314453125,-0.12265454232692719,-0.06861709803342819,-0.02202759124338627
1789453363952254200,0.568254150390625,-0.14882142841815948,0.019285859540104866,-0.045351557433605194
1789453363962195500,0.578195556640625,-0.1823454648256302,0.10807324200868607,-0.08496981859207153
1789453363972136200,0.58813623046875,-0.22348889708518982,0.18183428049087524,-0.10660213232040405
1789453363982077400,0.598077392578125,-0.25075623393058777,0.21953891217708588,-0.09728540480136871
1789453363992017200,0.60801708984375,-0.252983957529068,0.2452637255191803,-0.052460670471191406
1789453364001958400,0.61795849609375,-0.22303448617458344,0.26432129740715027,0.005539241246879101
1789453364011899400,0.6278994140625,-0.1669810712337494,0.2643210291862488,0.09288639575242996
1789453364021840400,0.63784033203125,-0.12436340749263763,0.21376119554042816,0.19406601786613464
1789453364031781400,0.647781494140625,-0.1192978098988533,0.11334110796451569,0.28843221068382263
1789453364041721300,0.657721435546875,-0.13283561170101166,-0.004737972281873226,0.36703363060951233
1789453364051662300,0.667662353515625,-0.15218932926654816,-0.11719980090856552,0.3797678053379059
1789453364061603300,0.677603271484375,-0.17894326150417328,-0.21079400181770325,0.31973981857299805
1789453364071544300,0.68754443359375,-0.20101740956306458,-0.24309149384498596,0.2095230519771576
1789453364081484300,0.697484375,-0.21868322789669037,-0.21863298118114471,0.06576058268547058
1789453364091425500,0.707425537109375,-0.22396747767925262,-0.12975449860095978,-0.05233650282025337
1789453364101366300,0.7173662109375,-0.22174310684204102,0.005406320560723543,-0.1081058531999588
1789453364111307300,0.727307373046875,-0.21608948707580566,0.1256355196237564,-0.08540959656238556
1789453364121247200,0.737247314453125,-0.22809924185276031,0.16789965331554413,0.0026421176735311747
1789453364131188500,0.7471884765625,-0.2412978708744049,0.14660076797008514,0.12902429699897766
1789453364141129200,0.757129150390625,-0.2550031542778015,0.10054634511470795,0.2589966058731079
1789453364151070500,0.767070556640625,-0.2403073012828827,0.02570512890815735,0.36300796270370483
1789453364161011500,0.777011474609375,-0.20959383249282837,-0.07978850603103638,0.4418643116950989
1789453364170951400,0.786951416015625,-0.18164075911045074,-0.21880018711090088,0.4811549782752991
1789453364180892400,0.796892333984375,-0.16379982233047485,-0.37206315994262695,0.4874448776245117
1789453364190833400,0.80683349609375,-0.16087061166763306,-0.520509660243988,0.445063054561615
1789453364200774400,0.8167744140625,-0.1828707456588745,-0.6255134344100952,0.34907814860343933
1789453364210714400,0.82671435546875,-0.2221049666404724,-0.6213468909263611,0.21297037601470947
1789453364220655400,0.8366552734375,-0.26112210750579834,-0.46697068214416504,0.07536562532186508
1789453364230596400,0.846596435546875,-0.2699829936027527,-0.22971659898757935,-0.04177910089492798
1789453364240537300,0.856537353515625,-0.2502148151397705,-0.020201239734888077,-0.1166609674692154
1789453364250477300,0.866477294921875,-0.22366230189800262,0.08076798170804977,-0.13959850370883942
1789453364260418300,0.876418212890625,-0.19816350936889648,0.07747457176446915,-0.0987912192940712
1789453364270359300,0.886359375,-0.1875220537185669,0.0017459909431636333,-0.00951460748910904
1789453364280300300,0.89630029296875,-0.1988251656293869,-0.14018657803535461,0.09330049157142639
1789453364290241500,0.906241455078125,-0.20907993614673615,-0.30021512508392334,0.17740151286125183
1789453364300181500,0.916181396484375,-0.21908332407474518,-0.4451642632484436,0.21588794887065887
1789453364310122200,0.926122314453125,-0.22621206939220428,-0.5440530776977539,0.1935133934020996
1789453364320063200,0.936063232421875,-0.22644475102424622,-0.580339252948761,0.13727231323719025
1789453364330004500,0.94600439453125,-0.2128431797027588,-0.5718586444854736,0.061304572969675064
1789453364339944400,0.9559443359375,-0.20165377855300903,-0.5168946385383606,-0.017956102266907692
1789453364349885400,0.965885498046875,-0.1980036497116089,-0.41324254870414734,-0.09811272472143173
1789453364359826400,0.975826416015625,-0.18998251855373383,-0.26446691155433655,-0.16411583125591278
1789453364369767400,0.985767333984375,-0.15536728501319885,-0.10872180014848709,-0.21417181193828583
1789453364379708400,0.99570849609375,-0.1010512039065361,-0.01615021377801895,-0.24082013964653015
1789453364389648400,1.0056484375,-0.050880707800388336,-0.025567950680851936,-0.2483438402414322
1789453364399589400,1.01558935546875,-0.02166641131043434,-0.11401738226413727,-0.23245182633399963
1789453364409530400,1.0255302734375,-0.013086773455142975,-0.22167859971523285,-0.18312528729438782
1789453364419471400,1.035471435546875,-0.03063206374645233,-0.30248796939849854,-0.11099877208471298
1789453364429411300,1.045411376953125,-0.07107003033161163,-0.34891965985298157,-0.020469939336180687
1789453364439352300,1.055352294921875,-0.12488837540149689,-0.3687901496887207,0.052089158445596695
1789453364449293300,1.065293212890625,-0.18749849498271942,-0.3562735617160797,0.08827140182256699
1789453364459234600,1.075234619140625,-0.24327056109905243,-0.31848445534706116,0.08727161586284637
1789453364469174300,1.08517431640625,-0.27329450845718384,-0.2508294880390167,0.07047372311353683
1789453364479115500,1.095115478515625,-0.2759356200695038,-0.1616022288799286,0.028810929507017136
1789453364489056300,1.10505615234375,-0.24139228463172913,-0.06293290853500366,-0.019227704033255577
1789453364498997500,1.11499755859375,-0.1878364235162735,0.00038881460204720497,-0.056315016001462936
1789453364508938200,1.124938232421875,-0.149113267660141,0.020952146500349045,-0.06382858753204346
1789453364518878500,1.13487841796875,-0.1469409167766571,0.010687259025871754,-0.060394711792469025
1789453364528819200,1.144819091796875,-0.18338654935359955,-0.009776204824447632,-0.06005515903234482
1789453364538760400,1.154760498046875,-0.21993979811668396,-0.03820451349020004,-0.05415711924433708
1789453364548701200,1.164701171875,-0.25595933198928833,-0.07077231258153915,-0.04676125571131706
1789453364558641400,1.174641357421875,-0.25951308012008667,-0.08258741348981857,-0.04894544184207916
1789453364568582400,1.18458251953125,-0.2181539386510849,-0.08473897725343704,-0.04575124755501747
1789453364578523400,1.1945234375,-0.14108996093273163,-0.08857061713933945,-0.03454580530524254
1789453364588464400,1.20446435546875,-0.06399890780448914,-0.0907171219587326,-0.00560709647834301
1789453364598405400,1.2144052734375,0.006720102857798338,-0.09791221469640732,0.027156168594956398
1789453364608345300,1.224345458984375,0.06931450963020325,-0.12220583111047745,0.05366341024637222
1789453364618286300,1.234286376953125,0.10819675773382187,-0.17550413310527802,0.07857824862003326
1789453364628227600,1.2442275390625,0.1038917526602745,-0.24659214913845062,0.09710878878831863
1789453364638168300,1.254168212890625,0.04304774850606918,-0.29908812046051025,0.122425876557827
1789453364648108500,1.264108642578125,-0.04273054003715515,-0.31127312779426575,0.12573938071727753
1789453364658049300,1.27404931640625,-0.0837353765964508,-0.2333379089832306,0.12964779138565063
1789453364667990500,1.283990478515625,-0.05236893147230148,-0.14701500535011292,0.14004318416118622
1789453364677931300,1.29393115234375,0.009250178933143616,-0.149708092212677,0.17344211041927338
1789453364687872500,1.30387255859375,0.05860947445034981,-0.1990085244178772,0.24550645053386688
1789453364697812200,1.313812255859375,0.07741305977106094,-0.24860258400440216,0.3355601131916046
1789453364707753500,1.32375341796875,0.09664507210254669,-0.26362013816833496,0.4157995581626892
1789453364717694200,1.333694091796875,0.1282685399055481,-0.2507448196411133,0.44367313385009766
1789453364727635500,1.343635498046875,0.1544301062822342,-0.1540379673242569,0.43143752217292786
1789453364737575200,1.3535751953125,0.1541774570941925,-0.034660372883081436,0.36984625458717346
1789453364747516400,1.363516357421875,0.14094474911689758,0.039372045546770096,0.298523873090744
1789453364757457000,1.373456787109375,0.12591396272182465,0.11727101355791092,0.24594727158546448
1789453364767398000,1.38339794921875,0.11561019718647003,0.143556147813797,0.21828794479370117
1789453364777339000,1.3933388671875,0.10581879317760468,0.07233500480651855,0.21873272955417633
1789453364787278800,1.40327880859375,0.12975981831550598,-0.03961576521396637,0.23201417922973633
1789453364797220000,1.41322021484375,0.20301000773906708,-0.11613593250513077,0.23904967308044434
1789453364807161000,1.4231611328125,0.26345762610435486,-0.17705653607845306,0.22677968442440033
1789453364817102000,1.43310205078125,0.2829737365245819,-0.18940572440624237,0.2185436636209488
1789453364827043000,1.44304296875,0.2702219784259796,-0.14683189988136292,0.22618800401687622
1789453364836983000,1.452983154296875,0.240003302693367,-0.11480634659528732,0.21851089596748352
1789453364846924000,1.462924072265625,0.19755332171916962,-0.0921284630894661,0.17609019577503204
1789453364856865000,1.472864990234375,0.17350178956985474,-0.09019604325294495,0.10754857957363129
1789453364866806000,1.482805908203125,0.18589428067207336,-0.10034241527318954,0.05768301710486412
1789453364876746000,1.49274609375,0.2116210162639618,-0.11333587020635605,0.05593511089682579
1789453364886687000,1.50268701171875,0.2261648029088974,-0.1453060507774353,0.10216519236564636
1789453364896628000,1.5126279296875,0.22910766303539276,-0.2480248659849167,0.19601544737815857
1789453364906569000,1.52256884765625,0.22172191739082336,-0.3654138147830963,0.3050577640533447
1789453364916510200,1.53251025390625,0.20380228757858276,-0.5001015067100525,0.4051617681980133
1789453364926450000,1.542449951171875,0.17658904194831848,-0.6507940888404846,0.4836834967136383
1789453364936391000,1.552390869140625,0.13733699917793274,-0.6803014278411865,0.5053032636642456
1789453364946332000,1.562331787109375,0.09194396436214447,-0.5812497138977051,0.46507352590560913
1789453364956273200,1.572273193359375,0.05943320319056511,-0.42770329117774963,0.3929890990257263
1789453364966214000,1.5822138671875,0.07116788625717163,-0.2916029691696167,0.32041823863983154
1789453364976154000,1.592154052734375,0.10365886241197586,-0.2155611366033554,0.2718163728713989
1789453364986094800,1.6020947265625,0.14093779027462006,-0.22550645470619202,0.2529827654361725
1789453364996036000,1.6120361328125,0.17069897055625916,-0.2963760495185852,0.27187737822532654
1789453365005976800,1.621976806640625,0.1843026578426361,-0.353767991065979,0.32076022028923035
1789453365015918000,1.63191796875,0.16169771552085876,-0.39143338799476624,0.37353941798210144
1789453365025858000,1.641858154296875,0.09069783240556717,-0.36511150002479553,0.4111506938934326
1789453365035799000,1.651799072265625,0.05940210819244385,-0.33324697613716125,0.4047643542289734
1789453365045739800,1.66173974609375,0.06955540925264359,-0.39824700355529785,0.32978466153144836
1789453365055681000,1.671680908203125,0.09698586165904999,-0.49015331268310547,0.23187611997127533
1789453365065621000,1.68162109375,0.127151221036911,-0.5379815697669983,0.1577686071395874
1789453365075562000,1.69156201171875,0.167451411485672,-0.5299085378646851,0.12849029898643494
1789453365085503000,1.7015029296875,0.20045782625675201,-0.47189265489578247,0.1391005963087082
1789453365095444000,1.71144384765625,0.21632839739322662,-0.3682096600532532,0.16090059280395508
1789453365105385000,1.721385009765625,0.19598397612571716,-0.23295170068740845,0.15884782373905182
1789453365115325000,1.731324951171875,0.14176853001117706,-0.1298714578151703,0.11122951656579971
1789453365125266200,1.74126611328125,0.07186134904623032,-0.07651583105325699,0.01890810951590538
1789453365135207000,1.75120703125,0.012888256460428238,-0.07580139487981796,-0.0876372829079628
1789453365145148200,1.761148193359375,-0.009184288792312145,-0.11133089661598206,-0.16209819912910461
1789453365155089000,1.7710888671875,-0.009131545200943947,-0.18937233090400696,-0.1925739049911499
1789453365165029000,1.781029052734375,0.012737534008920193,-0.29400554299354553,-0.18550027906894684
1789453365174969900,1.790969970703125,0.07004876434803009,-0.3878617286682129,-0.1295832246541977
1789453365184911000,1.8009111328125,0.12523745000362396,-0.46150025725364685,-0.0382612980902195
1789453365194851800,1.810851806640625,0.16106422245502472,-0.475190669298172,0.08317478001117706
1789453365204793000,1.82079296875,0.18185925483703613,-0.44551053643226624,0.20864935219287872
1789453365214732800,1.83073291015625,0.16526110470294952,-0.39110293984413147,0.30479174852371216
1789453365224674000,1.840674072265625,0.13640601933002472,-0.3394692838191986,0.36189791560173035
1789453365234615000,1.850614990234375,0.10326641798019409,-0.2934316098690033,0.3754780888557434
1789453365244556000,1.86055615234375,0.07628140598535538,-0.252955824136734,0.34117522835731506
1789453365254497000,1.8704970703125,0.05038744956254959,-0.18226352334022522,0.2448701709508896
1789453365264437000,1.88043701171875,0.0194455124437809,-0.08525735139846802,0.08911411464214325
1789453365274378000,1.8903779296875,-0.00016571767628192902,-0.008425833657383919,-0.08868430554866791
1789453365284319000,1.900319091796875,-0.026603449136018753,0.028077581897377968,-0.20520426332950592
1789453365294260000,1.910260009765625,-0.05007083714008331,0.061405912041664124,-0.2406134158372879
1789453365304201000,1.920200927734375,-0.04952968284487724,0.09078218042850494,-0.21998989582061768
1789453365314141000,1.930140869140625,-0.05081279203295708,0.08681193739175797,-0.2050335854291916
1789453365324082000,1.94008203125,-0.04847746714949608,0.060350239276885986,-0.2067428082227707
1789453365334023000,1.95002294921875,-0.03532518073916435,-0.013244885951280594,-0.2314409613609314
1789453365343964200,1.959964111328125,-0.014085139147937298,-0.11528629809617996,-0.282576322555542
1789453365353905000,1.96990478515625,0.008254480548202991,-0.22707219421863556,-0.35017213225364685
1789453365363845000,1.97984521484375,0.01844506710767746,-0.3026939928531647,-0.414608359336853
1789453365373785900,1.989785888671875,0.007008654065430164,-0.2872268855571747,-0.44078537821769714
1789453365383727000,1.99972705078125,-0.03774390369653702,-0.20355834066867828,-0.4147913157939911
1789453365393667800,2.009667724609375,-0.08701891452074051,-0.05564803257584572,-0.34519442915916443
1789453365403609000,2.019609130859375,-0.10807760059833527,0.12969893217086792,-0.27170422673225403
1789453365413549000,2.029549072265625,-0.09108688682317734,0.25796541571617126,-0.22304806113243103
1789453365423490000,2.039489990234375,-0.050206296145915985,0.28899362683296204,-0.18504129350185394
1789453365433430800,2.0494306640625,-0.019925186410546303,0.22787132859230042,-0.142750084400177
1789453365443372000,2.0593720703125,-0.010545799508690834,0.1097918301820755,-0.08902639895677567
1789453365453313000,2.06931298828125,-0.005151625722646713,-0.05154310166835785,-0.05549393594264984
1789453365463253000,2.0792529296875,-0.00802357867360115,-0.20147934556007385,-0.04366790130734444
1789453365473194000,2.089194091796875,-0.03816728666424751,-0.2308950424194336,-0.04335445538163185
1789453365483135000,2.099135009765625,-0.0738653615117073,-0.15062178671360016,-0.05880451574921608
1789453365493076000,2.109075927734375,-0.1055070012807846,0.00043728481978178024,-0.08588151633739471
1789453365503017000,2.119016845703125,-0.1329261064529419,0.18549580872058868,-0.107388935983181
1789453365512957200,2.128957275390625,-0.15443846583366394,0.3205888867378235,-0.1163390576839447
1789453365522898000,2.13889794921875,-0.15856049954891205,0.3682578206062317,-0.11936121433973312
1789453365532839200,2.148839111328125,-0.1474156528711319,0.34320399165153503,-0.12474565953016281
1789453365542780000,2.15877978515625,-0.1283130645751953,0.22091564536094666,-0.14693886041641235
1789453365552721000,2.168720947265625,-0.10925238579511642,0.08949095010757446,-0.21324282884597778
1789453365562660900,2.178660888671875,-0.07995548099279404,-0.004491737578064203,-0.3062952756881714
1789453365572602000,2.18860205078125,-0.0532664880156517,-0.061145223677158356,-0.3897955119609833
1789453365582542800,2.19854296875,-0.03646540641784668,-0.09353113174438477,-0.40438327193260193
1789453365592484000,2.208484130859375,-0.027532676234841347,-0.09402325749397278,-0.3363810181617737
1789453365602425000,2.218425048828125,-0.03192609176039696,-0.0868857204914093,-0.22311677038669586
1789453365612366000,2.228365966796875,-0.03657430782914162,-0.03617743402719498,-0.12345725297927856
1789453365622306000,2.23830615234375,-0.02197778783738613,0.005074399057775736,-0.06567411124706268
1789453365632247000,2.2482470703125,-0.0005676301661878824,0.03748496249318123,-0.044506434351205826
1789453365642188000,2.25818798828125,0.028875213116407394,0.06270989775657654,-0.028382059186697006
1789453365652129000,2.26812890625,0.046370964497327805,0.0524449497461319,-0.022071843966841698
1789453365662070000,2.278070068359375,0.03872476518154144,0.03823858126997948,-0.038425251841545105
1789453365672010000,2.288010009765625,0.03199196979403496,0.05492531135678291,-0.08181339502334595
1789453365681951000,2.297950927734375,0.04805109649896622,0.08716979622840881,-0.13084246218204498
1789453365691892000,2.30789208984375,0.039386775344610214,0.11626362800598145,-0.1563904881477356
1789453365701833000,2.3178330078125,0.012707492336630821,0.13243114948272705,-0.12569834291934967
1789453365711774200,2.327774169921875,-0.01479930430650711,0.14040681719779968,-0.04422691464424133
1789453365721714000,2.3377138671875,-0.040880706161260605,0.14319808781147003,0.0595756433904171
1789453365731655000,2.347655029296875,-0.05961627513170242,0.10529781877994537,0.1362425833940506
1789453365741596000,2.357595947265625,-0.06629734486341476,0.055079393088817596,0.18344445526599884
1789453365751537200,2.367537109375,-0.06760013103485107,0.02518925443291664,0.18790969252586365
1789453365761477600,2.3774775390625,-0.06701290607452393,0.01278451643884182,0.16357479989528656
1789453365771417600,2.38741748046875,-0.0830783024430275,0.03202126547694206,0.12684549391269684
1789453365781358600,2.397358642578125,-0.10929552465677261,0.09109071642160416,0.07349120825529099
1789453365791299800,2.4072998046875,-0.13275350630283356,0.15979017317295074,0.0038044473621994257
1789453365801240600,2.417240478515625,-0.13491679728031158,0.2100011557340622,-0.073323093354702
1789453365811181800,2.427181884765625,-0.1186755821108818,0.2529752850532532,-0.14387261867523193
1789453365821122600,2.43712255859375,-0.10613928735256195,0.2844836711883545,-0.18982546031475067
1789453365831062800,2.447062744140625,-0.10577727109193802,0.29967668652534485,-0.19830140471458435
1789453365841003800,2.457003662109375,-0.11494866013526917,0.2712272107601166,-0.19288960099220276
1789453365850944800,2.46694482421875,-0.11125922948122025,0.21192039549350739,-0.18628059327602386
1789453365860885500,2.476885498046875,-0.09607122093439102,0.1621405929327011,-0.17778004705905914
1789453365870826800,2.48682666015625,-0.07328847795724869,0.13945329189300537,-0.17020046710968018
1789453365880766700,2.4967666015625,-0.06395702809095383,0.15194298326969147,-0.15580688416957855
1789453365890707700,2.506707763671875,-0.07620206475257874,0.21856079995632172,-0.11537696421146393
1789453365900648700,2.516648681640625,-0.09597497433423996,0.29991158843040466,-0.05805108696222305
1789453365910589700,2.526589599609375,-0.1343104988336563,0.3249109983444214,0.000666056526824832
1789453365920530700,2.53653076171875,-0.182021826505661,0.32127657532691956,0.05979728698730469
1789453365930470700,2.546470703125,-0.22046174108982086,0.3180985748767853,0.08206833899021149
1789453365940412000,2.556411865234375,-0.24344588816165924,0.2988226115703583,0.05174718052148819
1789453365950352600,2.5663525390625,-0.26615065336227417,0.28128260374069214,0.006673244759440422
1789453365960294000,2.5762939453125,-0.30360427498817444,0.27482178807258606,-0.0074793267995119095
1789453365970234600,2.586234619140625,-0.332124263048172,0.2609984874725342,0.008159327320754528
1789453365980175600,2.596175537109375,-0.3371928036212921,0.23345847427845,0.04417325556278229
1789453365990115600,2.606115478515625,-0.34820663928985596,0.1747552454471588,0.07290147244930267
1789453366000056800,2.616056884765625,-0.3808996081352234,0.06357839703559875,0.10843869298696518
1789453366009997600,2.62599755859375,-0.40529367327690125,-0.032226160168647766,0.15581780672073364
1789453366019938800,2.635938720703125,-0.3979499936103821,-0.09795244038105011,0.14275233447551727
1789453366029879800,2.6458798828125,-0.3512575924396515,-0.15050604939460754,0.09143966436386108
1789453366039819800,2.65581982421875,-0.3284241855144501,-0.1707005351781845,0.03334973379969597
1789453366049760800,2.6657607421875,-0.3286001980304718,-0.17591449618339539,-0.04572882503271103
1789453366059701800,2.67570166015625,-0.31038418412208557,-0.13532473146915436,-0.12720131874084473
1789453366069642800,2.685642822265625,-0.2943551540374756,-0.06854821741580963,-0.18836860358715057
1789453366079583700,2.695583740234375,-0.29611071944236755,0.010990288108587265,-0.2357395738363266
1789453366089523700,2.705523681640625,-0.3087882995605469,0.0787317231297493,-0.25690481066703796
1789453366099464700,2.715464599609375,-0.31647127866744995,0.10046657919883728,-0.2646697759628296
1789453366109405700,2.72540576171875,-0.301896333694458,0.07716551423072815,-0.28365159034729004
1789453366119346700,2.7353466796875,-0.26738256216049194,0.030754070729017258,-0.3049190640449524
1789453366129287700,2.74528759765625,-0.23270060122013092,-0.006795489229261875,-0.32171711325645447
1789453366139229000,2.75522900390625,-0.2002563774585724,-0.028506377711892128,-0.31958287954330444
1789453366149168600,2.765168701171875,-0.18580138683319092,-0.06234870105981827,-0.29108327627182007
1789453366159109600,2.775109619140625,-0.17966200411319733,-0.11405263841152191,-0.25869205594062805
1789453366169050600,2.785050537109375,-0.1469779759645462,-0.16731911897659302,-0.22143232822418213
1789453366178991900,2.794991943359375,-0.08284159749746323,-0.1724073588848114,-0.18792177736759186
1789453366188932600,2.8049326171875,-0.013377087190747261,-0.16246160864830017,-0.17674174904823303
1789453366198872800,2.814872802734375,0.02682199701666832,-0.12249822914600372,-0.16436125338077545
1789453366208813600,2.8248134765625,0.0450701043009758,-0.07525327056646347,-0.13829052448272705
1789453366218754800,2.8347548828125,0.032224878668785095,-0.04252701997756958,-0.1134943813085556
1789453366228695600,2.844695556640625,-0.0024527497589588165,-0.03924717381596565,-0.08962077647447586
1789453366238636800,2.85463671875,-0.03690313547849655,-0.029041672125458717,-0.07722029834985733
1789453366248577500,2.86457763671875,-0.057929836213588715,-0.03357996419072151,-0.10224724560976028
1789453366258517800,2.874517822265625,-0.04671872779726982,-0.06109228357672691,-0.1538691520690918
1789453366268458500,2.88445849609375,-0.0019237720407545567,-0.08382625877857208,-0.22262272238731384
1789453366278399700,2.894399658203125,0.050571925938129425,-0.10041295737028122,-0.2713942527770996
1789453366288340700,2.9043408203125,0.06769923865795135,-0.11660245805978775,-0.2818421423435211
1789453366298281700,2.91428173828125,0.04552309587597847,-0.1365380883216858,-0.227788507938385
1789453366308221700,2.9242216796875,0.006013347301632166,-0.15528959035873413,-0.11563703417778015
1789453366318162700,2.93416259765625,-0.03863028436899185,-0.14427821338176727,0.01934714801609516
1789453366328103700,2.944103759765625,-0.06900086253881454,-0.07502715289592743,0.11057815700769424
1789453366338044700,2.954044677734375,-0.07547900080680847,0.024160152301192284,0.12982189655303955
1789453366347985700,2.963985595703125,-0.08508991450071335,0.08900150656700134,0.07114861905574799
1789453366357926700,2.9739267578125,-0.09343545883893967,0.10159799456596375,-0.03442706912755966
1789453366367867000,2.983866943359375,-0.10361962765455246,0.060255054384469986,-0.14167962968349457
1789453366377807600,2.9938076171875,-0.11269248276948929,-0.014350472018122673,-0.2344716191291809
1789453366387748600,3.00374853515625,-0.09392177313566208,-0.06341798603534698,-0.30912765860557556
1789453366397689900,3.01368994140625,-0.054966382682323456,-0.06173912435770035,-0.3652932047843933
1789453366407630600,3.023630615234375,-0.03775353357195854,-0.06109558045864105,-0.3766103982925415
1789453366417570600,3.033570556640625,-0.029342737048864365,-0.04351605474948883,-0.3129030466079712
1789453366427511800,3.04351171875,0.0025698139797896147,-0.01953916624188423,-0.205518439412117
1789453366437452800,3.053452880859375,0.06662575900554657,0.0038353996351361275,-0.07832135260105133
1789453366447393500,3.0633935546875,0.15035325288772583,-0.0065793427638709545,0.04546308144927025
1789453366457334800,3.073334716796875,0.2241704910993576,-0.0661713033914566,0.16165414452552795
1789453366467275500,3.083275634765625,0.2895669937133789,-0.13994428515434265,0.22221536934375763
1789453366477215700,3.0932158203125,0.3467407822608948,-0.21794188022613525,0.2477220743894577
1789453366487156700,3.10315673828125,0.36939847469329834,-0.25292402505874634,0.2498866319656372
1789453366497097700,3.11309765625,0.36886903643608093,-0.23947426676750183,0.23859935998916626
1789453366507038700,3.123038818359375,0.3758111298084259,-0.1748662143945694,0.19594226777553558
1789453366516979700,3.132979736328125,0.3953762948513031,-0.10989733040332794,0.11235948652029037
1789453366526919700,3.142919677734375,0.44065192341804504,-0.05887092277407646,0.001431926153600216
1789453366536860700,3.152860595703125,0.48663458228111267,-0.04714475944638252,-0.07089180499315262
1789453366546802000,3.162802001953125,0.4800930619239807,-0.06674349308013916,-0.07599947601556778
1789453366556742700,3.17274267578125,0.4281630218029022,-0.05723627656698227,-0.0082310875877738
1789453366566683600,3.18268359375,0.3853711783885956,-0.01003231666982174,0.09299257397651672
1789453366576624600,3.192624755859375,0.3690473437309265,0.06686911731958389,0.20824380218982697
1789453366586564900,3.20256494140625,0.36648648977279663,0.10091812163591385,0.3261882960796356
1789453366596505600,3.212505615234375,0.36935579776763916,0.0744210034608841,0.4358769655227661
1789453366606446800,3.22244677734375,0.36755189299583435,-0.01891433075070381,0.4957924485206604
1789453366616387600,3.2323876953125,0.369449645280838,-0.11098993569612503,0.5025789737701416
1789453366626328800,3.242328857421875,0.365297794342041,-0.16029280424118042,0.44691041111946106
1789453366636269800,3.252269775390625,0.3467518091201782,-0.16903968155384064,0.34787625074386597
1789453366646209800,3.262209716796875,0.3158852159976959,-0.16248519718647003,0.22854043543338776
1789453366656150800,3.27215087890625,0.2665879726409912,-0.18869629502296448,0.12110693007707596
1789453366666091800,3.282091796875,0.1985558122396469,-0.18079158663749695,0.04534728452563286
1789453366676032800,3.29203271484375,0.17069169878959656,-0.13029246032238007,-0.00982276163995266
1789453366685973800,3.301973876953125,0.19288013875484467,-0.043884240090847015,-0.04123535007238388
1789453366695913700,3.311913818359375,0.23395034670829773,0.032892562448978424,-0.027413012459874153
1789453366705854700,3.321854736328125,0.27969756722450256,0.050365082919597626,0.03161420673131943
1789453366715795700,3.331795654296875,0.3165530264377594,0.030910957604646683,0.10517257452011108
1789453366725736700,3.34173681640625,0.3429564833641052,-0.026756519451737404,0.1514405459165573
1789453366735677700,3.351677734375,0.364828497171402,-0.06825495511293411,0.1485171914100647
1789453366745619000,3.361618896484375,0.39684218168258667,-0.07836637645959854,0.1114894449710846
1789453366755558700,3.37155859375,0.40607988834381104,-0.059074170887470245,0.07927265018224716
1789453366765500700,3.381500732421875,0.40117400884628296,0.009505348280072212,0.06457434594631195
1789453366775441700,3.391441650390625,0.3908907175064087,0.06196482852101326,0.07111772894859314
1789453366785382400,3.40138232421875,0.38160234689712524,0.1153588518500328,0.09178561717271805
1789453366795323600,3.41132373046875,0.36530566215515137,0.14563819766044617,0.11456123739480972
1789453366805263600,3.421263671875,0.35448047518730164,0.10975302010774612,0.13722054660320282
1789453366815204600,3.43120458984375,0.3646012842655182,0.027383040636777878,0.14799942076206207
1789453366825145600,3.4411455078125,0.4025488793849945,-0.0901825875043869,0.16824443638324738
1789453366835086600,3.451086669921875,0.42069461941719055,-0.24703079462051392,0.19101446866989136
1789453366845027600,3.461027587890625,0.4298087954521179,-0.43580982089042664,0.23042020201683044
1789453366854968600,3.470968505859375,0.46785232424736023,-0.5504127740859985,0.27211064100265503
1789453366864908800,3.48090869140625,0.5210970640182495,-0.5282476544380188,0.3118061125278473
1789453366874849500,3.490849609375,0.5376677513122559,-0.5212222337722778,0.3411533534526825
1789453366884790800,3.500790771484375,0.5099037885665894,-0.44460442662239075,0.4054730534553528
1789453366894731500,3.5107314453125,0.50620037317276,-0.3740580976009369,0.4713253080844879
1789453366904672500,3.520672607421875,0.5124619603157043,-0.32492485642433167,0.4514211118221283
1789453366914613800,3.53061376953125,0.5447235107421875,-0.07896863669157028,0.2822669744491577
1789453366924553700,3.5405537109375,0.5555969476699829,0.24943414330482483,-0.01471855491399765
1789453366934494700,3.55049462890625,0.5499723553657532,0.5355833172798157,-0.352828711271286
1789453366944435700,3.560435791015625,0.544034481048584,0.7133458256721497,-0.6634732484817505
1789453366954376700,3.570376708984375,0.5431114435195923,0.6856657266616821,-0.8904891014099121
1789453366964317400,3.5803173828125,0.5435096025466919,0.4094563126564026,-0.9928328990936279
1789453366974257700,3.590257568359375,0.5118608474731445,0.11377910524606705,-0.9662007689476013
1789453366984198700,3.60019873046875,0.46613770723342896,-0.059735625982284546,-0.8967236280441284
1789453366994139600,3.6101396484375,0.5264537930488586,-0.1695454716682434,-0.9257587790489197
1789453367004080600,3.62008056640625,0.7180125713348389,-0.27373865246772766,-1.0965551137924194
1789453367014021600,3.630021728515625,0.9535553455352783,-0.41954749822616577,-1.2997430562973022
1789453367023962600,3.639962646484375,1.0540329217910767,-0.7097217440605164,-1.378074049949646
1789453367033902600,3.649902587890625,1.0655803680419922,-0.9945082068443298,-1.3901392221450806
1789453367043843600,3.659843505859375,1.1664135456085205,-1.1959259510040283,-1.4832813739776611
1789453367053784600,3.66978466796875,1.0845823287963867,-1.2469693422317505,-1.6313941478729248
1789453367063725800,3.679725830078125,0.8863100409507751,-1.1768437623977661,-1.5670552253723145
1789453367073666600,3.68966650390625,0.7826643586158752,-1.2437492609024048,-1.6094716787338257
1789453367083607600,3.699607666015625,0.36579403281211853,-1.7818669080734253,-1.8954209089279175
1789453367093547500,3.709547607421875,0.2097892463207245,-2.562349796295166,-2.22440505027771
1789453367103488800,3.71948876953125,0.8046606183052063,-3.4001734256744385,-2.4944944381713867
1789453367113429500,3.729429443359375,1.9806369543075562,-4.2788987159729,-2.736370325088501
1789453367123370800,3.739370849609375,3.207805871963501,-4.871335506439209,-3.1032397747039795
1789453367133311500,3.7493115234375,4.586423873901367,-5.659247398376465,-3.40313982963562
1789453367143252700,3.759252685546875,6.083883762359619,-6.454263210296631,-3.3376240730285645
1789453367153192400,3.7691923828125,7.102712154388428,-7.217474937438965,-2.780616521835327
1789453367163133700,3.7791337890625,7.068674564361572,-8.016389846801758,-2.1875317096710205
1789453367173074700,3.78907470703125,6.2353644371032715,-8.276107788085938,-1.6683123111724854
1789453367183015700,3.799015625,5.57216739654541,-8.137069702148438,-1.26651132106781
1789453367192956700,3.808956787109375,4.991916656494141,-7.560769081115723,-0.9003409743309021
1789453367202897700,3.818897705078125,4.22457218170166,-6.787808418273926,-0.5177375674247742
1789453367212837600,3.828837646484375,3.162526845932007,-5.659842491149902,0.07889250665903091
1789453367222778600,3.838778564453125,2.281949043273926,-4.475579738616943,0.8248337507247925
1789453367232719600,3.8487197265625,2.1491096019744873,-4.495633602142334,1.2934116125106812
1789453367242660600,3.85866064453125,2.2026915550231934,-4.390758037567139,1.769723653793335
1789453367252601600,3.8686015625,1.9851205348968506,-3.9211714267730713,2.341386318206787
1789453367262542800,3.87854296875,1.669094204902649,-3.646249532699585,2.943453550338745
1789453367272482600,3.888482666015625,1.423136591911316,-3.9162800312042236,3.4240267276763916
1789453367282423800,3.898423828125,1.3083194494247437,-4.3646039962768555,3.7349400520324707
1789453367292364500,3.908364501953125,1.2822707891464233,-4.601198673248291,3.8852458000183105
1789453367302305800,3.918305908203125,1.3157833814620972,-4.801909923553467,3.9990835189819336
1789453367312246500,3.92824658203125,1.3910387754440308,-5.054311752319336,4.200662136077881
1789453367322187800,3.938187744140625,1.7481919527053833,-4.865440368652344,4.134759902954102
1789453367332127500,3.94812744140625,2.6127021312713623,-3.2398159503936768,3.401068925857544
1789453367342068700,3.95806884765625,2.7542307376861572,-0.9135643243789673,2.48636794090271
1789453367352009500,3.968009521484375,1.8005123138427734,0.5697870850563049,1.4396787881851196
1789453367361950700,3.97795068359375,1.0449830293655396,0.581751823425293,0.725042462348938
1789453367371891700,3.9878916015625,-0.45827844738960266,0.19517163932323456,-0.5385374426841736
1789453367381832700,3.997832763671875,-1.2994143962860107,-1.1853679418563843,-1.3543874025344849
1789453367391772400,4.0077724609375,-1.2276978492736816,-2.4535868167877197,-1.6799982786178589
1789453367401713700,4.017713623046875,-0.9390798807144165,-3.4329752922058105,-1.8397657871246338
1789453367411654700,4.027654541015625,-0.6967109441757202,-3.972127676010132,-1.7776275873184204
1789453367421595600,4.037595703125,-0.42965197563171387,-4.271096706390381,-1.5131710767745972
1789453367431536600,4.04753662109375,-0.26995474100112915,-3.996577262878418,-1.1491725444793701
1789453367441477600,4.0574775390625,-0.12370050698518753,-2.9704959392547607,-0.6976936459541321
1789453367451417600,4.06741748046875,0.9200698137283325,-1.5734847784042358,-0.18631084263324738
1789453367461358600,4.077358642578125,2.0613672733306885,-0.6615763306617737,0.3009229004383087
1789453367471299600,4.087299560546875,3.280604839324951,0.4867531657218933,0.14392927289009094
1789453367481240600,4.097240478515625,4.106796741485596,1.700821042060852,-0.25838589668273926
1789453367491181600,4.107181640625,4.938629627227783,2.7979819774627686,-0.4810575842857361
1789453367501122800,4.117122802734375,5.074248313903809,3.0499627590179443,-0.5584573149681091
1789453367511062500,4.1270625,4.543936252593994,2.2883005142211914,-0.30589669942855835
1789453367521003800,4.137003662109375,2.774141550064087,0.33158060908317566,-0.2277965098619461
1789453367530944500,4.146944580078125,2.3932414054870605,-0.24933470785617828,0.42946764826774597
1789453367540885800,4.1568857421875,3.4337594509124756,1.690515398979187,-0.20806162059307098
1789453367550826500,4.166826416015625,2.363285541534424,1.0516022443771362,-0.5724523663520813
1789453367560766700,4.1767666015625,1.119594693183899,1.7652735710144043,-1.71366548538208
1789453367570707500,4.18670751953125,-0.2639137804508209,3.762042760848999,-2.9728055000305176
1789453367580648700,4.196648681640625,2.551723003387451,5.286272048950195,-2.0072598457336426
1789453367590589400,4.20658935546875,4.644484519958496,3.7425408363342285,-0.9544999003410339
1789453367600530700,4.21653076171875,4.289005756378174,1.9596750736236572,0.0961717814207077
1789453367610471700,4.2264716796875,3.6495413780212402,0.5735446810722351,1.4507248401641846
1789453367620411600,4.23641162109375,3.3681023120880127,-1.2606661319732666,2.4270098209381104
1789453367630352600,4.2463525390625,3.84550404548645,-0.9460102319717407,3.09794020652771
1789453367640293600,4.256293701171875,4.3959126472473145,0.16928431391716003,3.198542833328247
1789453367650234600,4.266234619140625,4.688741207122803,0.8045251965522766,3.012420892715454
1789453367660175600,4.276175537109375,4.728281021118164,0.8291570544242859,3.0911738872528076
1789453367670116600,4.28611669921875,4.331413745880127,0.4894769787788391,3.333409547805786
1789453367680056600,4.296056640625,3.502772808074951,0.06715073436498642,3.613431453704834
1789453367689997600,4.30599755859375,2.3657047748565674,-0.49821600317955017,3.9467146396636963
1789453367699938600,4.3159384765625,1.2387486696243286,-1.148195505142212,3.981335163116455
1789453367709879600,4.325879638671875,0.15111714601516724,-1.2576931715011597,3.689568519592285
1789453367719820800,4.33582080078125,-0.8387255072593689,-1.0459259748458862,2.9940857887268066
1789453367729761500,4.345761474609375,-1.6141972541809082,-0.5789761543273926,2.189755916595459
1789453367739701500,4.355701416015625,-2.1135973930358887,0.10495693236589432,1.4633333683013916
1789453367749642500,4.365642578125,-2.0536446571350098,0.938050389289856,0.39496713876724243
1789453367759583000,4.3755830078125,-1.9211180210113525,1.370405912399292,-0.4433639943599701
1789453367769524200,4.385524169921875,-1.6864233016967773,1.2762826681137085,-0.9255063533782959
1789453367779465000,4.39546484375,-1.3781429529190063,1.0694009065628052,-1.3096908330917358
1789453367789406000,4.405406005859375,-0.9863461852073669,0.9433388710021973,-1.6215691566467285
1789453367799346000,4.415345947265625,-0.6269811391830444,0.6889041066169739,-1.7046749591827393
1789453367809287200,4.425287109375,-0.530404269695282,0.269059419631958,-1.6469451189041138
1789453367819228200,4.435228271484375,-0.7757705450057983,-0.048837099224328995,-1.6236649751663208
1789453367829169200,4.445169189453125,-1.0293686389923096,-0.2471618950366974,-1.5441110134124756
1789453367839110100,4.455110107421875,-1.2201632261276245,-0.48161283135414124,-1.345616102218628
1789453367849050000,4.465050048828125,-1.4419281482696533,-1.152468204498291,-1.1609230041503906
1789453367858991000,4.4749912109375,-1.59958016872406,-2.148606300354004,-1.0339570045471191
1789453367868932000,4.48493212890625,-1.6897391080856323,-3.2608447074890137,-0.9409691691398621
1789453367878873000,4.494873046875,-1.7682243585586548,-4.044936656951904,-0.8316140174865723
1789453367888814000,4.50481396484375,-1.770294427871704,-4.1529998779296875,-0.7053743004798889
1789453367898755000,4.514755126953125,-1.7425373792648315,-4.031036376953125,-0.6887986660003662
1789453367908695000,4.524695068359375,-1.7924569845199585,-3.6934103965759277,-0.7363888621330261
1789453367918636000,4.534635986328125,-2.173030138015747,-3.010133743286133,-0.8773214221000671
1789453367928577300,4.544577392578125,-2.6646037101745605,-2.334442377090454,-1.0312198400497437
1789453367938518000,4.55451806640625,-3.2686564922332764,-1.875666618347168,-1.2022778987884521
1789453367948459300,4.564459228515625,-3.358492136001587,-1.7610479593276978,-1.3775956630706787
1789453367958400000,4.57439990234375,-3.3264224529266357,-1.4594976902008057,-1.714171290397644
1789453367968340200,4.58434033203125,-3.077329397201538,-0.9942466616630554,-1.8108711242675781
1789453367978281000,4.594281005859375,-2.562267780303955,-0.3185972571372986,-1.899548053741455
1789453367988222200,4.60422216796875,-1.8763190507888794,0.2817663252353668,-1.913966178894043
1789453367998163000,4.614162841796875,-1.435295820236206,0.7619103789329529,-2.0798819065093994
1789453368008104200,4.624104248046875,-1.4614992141723633,0.8218887448310852,-2.1156816482543945
1789453368018045200,4.634045166015625,-1.7561436891555786,0.8082374334335327,-1.9742431640625
1789453368027985200,4.643985107421875,-1.991777777671814,0.5988088250160217,-1.6618589162826538
1789453368037926000,4.65392578125,-1.6407015323638916,-0.21504344046115875,-1.5805952548980713
1789453368047867100,4.6638671875,-0.43461307883262634,-0.5799899697303772,-1.2335238456726074
1789453368057808100,4.67380810546875,-0.09663056582212448,-0.9912262558937073,-0.7010204792022705
1789453368067749000,4.6837490234375,-0.3495003581047058,-1.4862854480743408,-0.18355759978294373
1789453368077689000,4.693689208984375,-0.960646390914917,-2.0338125228881836,-0.08783423900604248
1789453368087630000,4.703630126953125,-1.7198745012283325,-2.0830237865448,-0.15222281217575073
1789453368097571000,4.713571044921875,-1.9821953773498535,-1.452677845954895,-0.30820661783218384
1789453368107512000,4.723511962890625,-2.2730724811553955,-0.4961246848106384,-0.37152859568595886
1789453368117453000,4.733453125,-2.720590114593506,0.368854820728302,-0.3886335790157318
1789453368127394000,4.74339404296875,-3.0017826557159424,0.4053577184677124,-0.6253750324249268
1789453368137334000,4.753333984375,-3.3143630027770996,0.42387107014656067,-0.22173824906349182
1789453368147275000,4.76327490234375,-2.4397597312927246,-0.4900333881378174,0.13007545471191406
1789453368157216000,4.773216064453125,-1.053318977355957,-1.0605041980743408,-0.10130780190229416
1789453368167157200,4.7831572265625,-0.03704235330224037,-0.43057289719581604,-0.4327118396759033
1789453368177098000,4.793097900390625,-0.45146510004997253,-0.29017743468284607,-0.2535540461540222
1789453368187039200,4.803039306640625,-0.33993086218833923,-0.042376965284347534,-0.2132718861103058
1789453368196979000,4.81297900390625,-0.20184974372386932,0.13178874552249908,-0.174107164144516
1789453368206920200,4.822920166015625,-1.06448495388031,0.5747499465942383,-0.7946029305458069
1789453368216861000,4.83286083984375,-1.914317011833191,0.4179234802722931,-0.5191795229911804
1789453368226802200,4.84280224609375,-2.031977415084839,-0.6921014785766602,0.5621017217636108
1789453368236743000,4.852742919921875,-1.5556846857070923,-1.9934172630310059,1.405320405960083
1789453368246684200,4.86268408203125,-1.2579309940338135,-2.5242137908935547,1.5013604164123535
1789453368256623900,4.872623779296875,-1.119096040725708,-1.927072286605835,1.1835767030715942
1789453368266565000,4.882565185546875,-0.6199594140052795,-1.4284443855285645,1.0006121397018433
1789453368276506000,4.892506103515625,0.02501874603331089,-0.8900401592254639,0.5237392783164978
1789453368286446000,4.902446044921875,0.4769640862941742,-0.5243021249771118,0.06909585744142532
1789453368296387000,4.912386962890625,0.6345430612564087,-0.5187899470329285,-0.14609794318675995
1789453368306328000,4.922328125,0.8648660182952881,-0.43956565856933594,-0.22458049654960632
1789453368316269000,4.93226904296875,1.3613412380218506,0.2834295928478241,-0.14194245636463165
1789453368326210000,4.9422099609375,1.8533005714416504,0.590711236000061,-0.05339234322309494
1789453368336150300,4.952150390625,1.982146143913269,0.6525620818138123,0.03897087648510933
1789453368346091000,4.962091064453125,1.7302958965301514,0.14450442790985107,-0.13234007358551025
1789453368356032300,4.9720322265625,1.5691567659378052,-1.0125517845153809,0.20488135516643524
1789453368365973000,4.981972900390625,1.8919888734817505,-1.021584153175354,0.32463517785072327
1789453368375914000,4.9919140625,2.327104330062866,-0.37325140833854675,0.24233897030353546
1789453368385854000,5.00185400390625,2.728990316390991,0.7288978099822998,0.21537341177463531
1789453368395795200,5.011795166015625,3.168696641921997,1.0370157957077026,0.0915650799870491
1789453368405736000,5.02173583984375,3.429380178451538,1.595348834991455,-0.021082906052470207
1789453368415677200,5.03167724609375,3.335545778274536,1.9522367715835571,-0.3108832836151123
1789453368425618200,5.0416181640625,2.9971985816955566,2.2014594078063965,-0.42702242732048035
1789453368435559000,5.051558837890625,2.832606554031372,1.8900326490402222,-0.3611065745353699
1789453368445499100,5.0614990234375,2.4747118949890137,1.5027756690979004,-0.18304146826267242
1789453368455440100,5.071440185546875,1.7848360538482666,1.140113353729248,0.08624821156263351
1789453368465381000,5.081381103515625,1.3878610134124756,1.042391061782837,0.22838272154331207
1789453368475322000,5.091322021484375,1.449209451675415,1.3643770217895508,0.2213256061077118
1789453368485263000,5.10126318359375,1.5035414695739746,1.7460423707962036,0.15071268379688263
1789453368495204000,5.1112041015625,1.5021897554397583,2.1666250228881836,0.059211764484643936
1789453368505144000,5.12114404296875,1.3728344440460205,1.9814887046813965,0.3401925563812256
1789453368515085000,5.1310849609375,1.3756275177001953,1.2097067832946777,0.7836778163909912
1789453368525026000,5.141026123046875,1.4158532619476318,0.3866618573665619,0.8892650008201599
1789453368534967300,5.15096728515625,1.2113722562789917,0.5425658226013184,0.5753514766693115
1789453368544908000,5.160907958984375,0.5897251963615417,0.6970163583755493,0.46331098675727844
1789453368554848300,5.17084814453125,0.17674367129802704,-0.07541239261627197,1.068977952003479
1789453368564789000,5.1807890625,-0.2745084762573242,-0.7742096185684204,0.9876804947853088
1789453368574730200,5.190730224609375,-0.3568654954433441,-1.0903538465499878,0.3412071168422699
1789453368584671000,5.2006708984375,0.18720503151416779,-0.12030806392431259,0.26153865456581116
1789453368594612200,5.2106123046875,0.2344522625207901,1.3413184881210327,1.299318552017212
1789453368604553000,5.220552978515625,0.14228318631649017,0.012684835121035576,0.5327708125114441
1789453368614493200,5.2304931640625,0.7557610273361206,-1.3039422035217285,-0.6818171739578247
1789453368624434000,5.240433837890625,1.1380317211151123,-1.4015228748321533,-0.6179231405258179
1789453368634375200,5.250375244140625,1.191287636756897,-1.3667304515838623,-0.3778069019317627
1789453368644316200,5.260316162109375,1.177623987197876,-1.2297300100326538,-0.21605262160301208
1789453368654257200,5.270257080078125,1.1152881383895874,-0.6497325897216797,-0.19380734860897064
1789453368664198100,5.2801982421875,0.8983129858970642,0.4349963068962097,0.08077122271060944
1789453368674138000,5.29013818359375,0.4746858477592468,0.7752057909965515,0.4564785063266754
1789453368684079000,5.3000791015625,0.04716593772172928,0.44340839982032776,0.5208545923233032
1789453368694020000,5.31002001953125,-0.03725707158446312,0.14486540853977203,0.43892696499824524
1789453368703961000,5.319961181640625,-0.009494680911302567,0.07670766115188599,0.5060681700706482
1789453368713902000,5.329902099609375,-0.01418602466583252,0.056302063167095184,0.5480247139930725
1789453368723842000,5.339842041015625,0.029577968642115593,-0.18612787127494812,0.57585209608078
1789453368733783000,5.349782958984375,-0.07536058872938156,-0.5618111491203308,0.578641951084137
1789453368743724000,5.35972412109375,-0.07469905912876129,-0.8374621868133545,0.4036378860473633
1789453368753665000,5.3696650390625,-0.08975179493427277,-1.6376478672027588,0.285130113363266
1789453368763605500,5.37960546875,-0.07942938804626465,-2.880018711090088,0.2429959625005722
1789453368773546500,5.38954638671875,-0.08695019781589508,-3.9740664958953857,0.4098989963531494
1789453368783486700,5.39948681640625,-0.006423663347959518,-4.200491428375244,0.38841795921325684
1789453368793427500,5.409427490234375,0.37216776609420776,-3.3708550930023193,0.14094892144203186
1789453368803368400,5.419368408203125,0.993728756904602,-2.902226209640503,0.10241244733333588
1789453368813309400,5.429309326171875,0.5925261378288269,-2.794013500213623,-0.06611808389425278
1789453368823250400,5.43925048828125,-0.12039436399936676,-2.2688658237457275,0.053277015686035156
1789453368833191400,5.44919140625,-0.3747664988040924,-1.3458796739578247,-0.46931466460227966
1789453368843131600,5.459131591796875,-0.5391506552696228,-0.3352101147174835,-1.0057759284973145
1789453368853072400,5.469072265625,-1.1251342296600342,1.8997619152069092,-0.9699554443359375
1789453368863013600,5.479013671875,-1.4118698835372925,1.2213642597198486,0.46400684118270874
1789453368872954600,5.48895458984375,0.6849732398986816,-0.8618495464324951,0.6939019560813904
1789453368882895400,5.498895263671875,1.9484658241271973,-1.5533547401428223,0.7365561723709106
1789453368892835300,5.50883544921875,1.9810717105865479,-0.15272684395313263,-0.24225503206253052
1789453368902776600,5.518776611328125,1.9837042093276978,0.7909547090530396,-0.923930823802948
1789453368912717600,5.528717529296875,1.460163950920105,0.42904549837112427,-0.25150710344314575
1789453368922658600,5.538658447265625,1.7938436269760132,1.3675917387008667,0.2285870760679245
1789453368932599600,5.548599609375,2.47564435005188,3.1407008171081543,1.1910806894302368
1789453368942540300,5.558540283203125,2.4274818897247314,2.427361488342285,1.812790036201477
1789453368952480500,5.56848046875,1.9948821067810059,0.060476481914520264,0.3206174969673157
1789453368962421500,5.57842138671875,2.255549430847168,0.0790320560336113,-1.2974131107330322
1789453368972362500,5.588362548828125,1.8731096982955933,-0.22305883467197418,-1.7886691093444824
1789453368982303500,5.598303466796875,1.5980712175369263,-0.7117787599563599,-1.716241717338562
1789453368992244500,5.608244384765625,1.1835825443267822,-1.2585195302963257,-1.679673194885254
1789453369002185500,5.618185546875,1.0682830810546875,-1.4769400358200073,-1.6220160722732544
1789453369012125400,5.62812548828125,1.3128174543380737,-1.3201112747192383,-1.3586925268173218
1789453369022066700,5.638066650390625,1.6243966817855835,-1.0810490846633911,-1.106947660446167
1789453369032007400,5.64800732421875,1.9598681926727295,-1.004233479499817,-1.0177017450332642
1789453369041948700,5.65794873046875,2.1057302951812744,-0.8301333785057068,-1.2460894584655762
1789453369051889400,5.667889404296875,2.0837464332580566,-0.7437179088592529,-1.6583967208862305
1789453369061830400,5.677830322265625,2.120574712753296,-0.5203852653503418,-2.0703389644622803
1789453369071770400,5.687770263671875,2.2162630558013916,-0.14684604108333588,-2.3230113983154297
1789453369081711600,5.697711669921875,1.9876331090927124,0.12652957439422607,-2.349796772003174
1789453369091652400,5.70765234375,1.0080021619796753,-0.14822456240653992,-2.5605926513671875
1789453369101593600,5.717593505859375,-0.09575983881950378,-1.8674670457839966,-3.0563082695007324
1789453369111534600,5.72753466796875,-0.3101688325405121,-2.839649200439453,-2.9241771697998047
1789453369121474600,5.737474609375,-1.0213414430618286,-4.241353511810303,-3.2430713176727295
1789453369131415600,5.74741552734375,-0.5314604043960571,-4.976757049560547,-2.399127960205078
1789453369141356500,5.7573564453125,-0.05289679020643234,-2.335355758666992,-0.29189568758010864
1789453369151297500,5.767297607421875,-0.15940719842910767,2.3840248584747314,0.7787957191467285
1789453369161238500,5.777238525390625,-0.07947402447462082,0.7134115695953369,-0.7813013195991516
1789453369171179500,5.787179443359375,0.04768932983279228,-1.9546561241149902,-2.0147323608398438
1789453369181119500,5.797119384765625,-0.1550230234861374,0.4823397397994995,-0.8711313605308533
1789453369191060500,5.807060546875,-0.521914541721344,2.1792378425598145,-0.516842782497406
1789453369201001500,5.81700146484375,-0.6254212260246277,0.6141747832298279,-1.2130091190338135
1789453369210942500,5.8269423828125,-0.5942837595939636,-0.6023746728897095,-1.2501823902130127
1789453369220883700,5.8368837890625,-0.553826630115509,-0.2838534116744995,-0.8815255165100098
1789453369230824400,5.846824462890625,-0.5402716398239136,-0.12897156178951263,-0.6540910601615906
1789453369240764400,5.856764404296875,-0.624228835105896,-0.3184615969657898,-0.5831274390220642
1789453369250705400,5.866705322265625,-0.6541222333908081,-0.32645925879478455,-0.6059544086456299
1789453369260646700,5.876646728515625,-0.5881690382957458,-0.19856546819210052,-0.7314529418945312
1789453369270587400,5.88658740234375,-0.6060843467712402,-0.23997457325458527,-0.8106204271316528
1789453369280528600,5.896528564453125,-0.6712700128555298,-0.24587641656398773,-0.7354492545127869
1789453369290469400,5.906469482421875,-0.6796866059303284,-0.27399808168411255,-0.697069525718689
1789453369300409600,5.91640966796875,-0.649147093296051,-0.47169676423072815,-0.8093787431716919
1789453369310350300,5.926350341796875,-0.7823625802993774,-0.6017455458641052,-0.9477397203445435
1789453369320291600,5.93629150390625,-0.9485800266265869,-0.7682596445083618,-0.8655918836593628
1789453369330232300,5.946232421875,-1.177377700805664,-0.9351885318756104,-0.8282704949378967
1789453369340173600,5.956173583984375,-1.1656650304794312,-0.9005048274993896,-1.033356785774231
1789453369350114600,5.966114501953125,-0.13256274163722992,-1.6642239093780518,-2.5762951374053955
1789453369360054500,5.976054443359375,-0.035128604620695114,-0.9825292229652405,-2.025351047515869
1789453369369995500,5.98599560546875,-0.004967981483787298,-1.3908611536026,-1.7883692979812622
1789453369379936500,5.9959365234375,-0.06818157434463501,-1.187480092048645,-1.4593693017959595
1789453369389877500,6.00587744140625,-0.12459821254014969,-0.6240147948265076,-1.3368864059448242
1789453369399818500,6.015818603515625,-0.238057941198349,-0.2835237979888916,-1.243120551109314
1789453369409759500,6.025759521484375,-0.22085078060626984,-0.10502614825963974,-0.9128637313842773
1789453369419700500,6.035700439453125,-0.12245924770832062,-0.07063914835453033,-0.33855170011520386
1789453369429640400,6.045640380859375,-0.0562845841050148,0.04464993253350258,0.07497266680002213
1789453369439581400,6.05558154296875,-0.07762742787599564,0.26379773020744324,0.028347374871373177
1789453369449522400,6.0655224609375,-0.1284165233373642,0.3032335042953491,-0.0678422823548317
1789453369459463700,6.075463623046875,-0.2033354938030243,0.2985104024410248,0.10326608270406723
1789453369469404400,6.085404296875,-0.3020786643028259,0.4787818491458893,0.2980859875679016
1789453369479345700,6.095345703125,-0.380526602268219,0.630146861076355,0.3418068289756775
1789453369489285400,6.105285400390625,-0.3508482575416565,0.5930266976356506,0.3862220048904419
1789453369499226600,6.1152265625,-0.33432334661483765,0.41749247908592224,0.4391925632953644
1789453369509167400,6.12516748046875,-0.33681586384773254,0.285708487033844,0.4577367603778839
1789453369519108600,6.135108642578125,-0.2662317156791687,0.33958902955055237,0.47453758120536804
1789453369529049300,6.14504931640625,-0.17895987629890442,0.3287911117076874,0.7258056998252869
1789453369538990600,6.154990478515625,-0.004984886385500431,0.20486833155155182,0.9342379570007324
1789453369548930300,6.164930419921875,0.09562764316797256,0.10293375700712204,1.0879018306732178
1789453369558871600,6.17487158203125,0.2473447173833847,0.14983734488487244,1.207896113395691
1789453369568812500,6.1848125,0.4253661334514618,0.14585420489311218,1.3512582778930664
1789453369578753500,6.19475341796875,0.6862773299217224,0.15422585606575012,1.623504400253296
1789453369588694500,6.204694580078125,0.7957966327667236,0.00659922743216157,1.7373130321502686
1789453369598635500,6.214635498046875,0.7139909863471985,-0.39547738432884216,1.6986922025680542
1789453369608575500,6.224575439453125,0.72682785987854,-0.7114898562431335,1.7119261026382446
1789453369618516500,6.2345166015625,0.5414798259735107,-0.88547283411026,1.7749484777450562
1789453369628457500,6.24445751953125,0.40269026160240173,-0.9920439124107361,1.8101791143417358
1789453369638398500,6.2543984375,0.3382017910480499,-1.2141952514648438,1.7833014726638794
1789453369648339500,6.26433935546875,0.3631651699542999,-1.4811666011810303,1.5406593084335327
1789453369658280700,6.27428076171875,0.42567169666290283,-1.6880958080291748,1.1526464223861694
1789453369668220400,6.284220458984375,0.4344423711299896,-1.364445447921753,0.9844584465026855
1789453369678161400,6.294161376953125,0.310382217168808,-0.4899229407310486,0.896638035774231
1789453369688102400,6.304102294921875,-0.1393568068742752,0.8064873218536377,1.0118560791015625
1789453369698043600,6.314043701171875,-0.43813416361808777,1.6762760877609253,1.179011344909668
1789453369707984400,6.323984375,0.08487222343683243,0.9627965092658997,0.8373687267303467
1789453369717925600,6.333925537109375,0.5567910671234131,0.35593321919441223,0.6839451193809509
1789453369727866400,6.343866455078125,0.6406357288360596,0.5637440085411072,0.614933431148529
1789453369737806600,6.353806640625,0.8268799185752869,0.6744564175605774,0.7612046003341675
1789453369747747300,6.363747314453125,0.8901958465576172,0.649100661277771,0.7261084318161011
1789453369757688600,6.3736884765625,0.7355255484580994,0.6625397205352783,0.6944695115089417
1789453369767629600,6.383629638671875,0.7485489249229431,0.6348137855529785,0.5800977945327759
1789453369777570600,6.393570556640625,0.765739381313324,0.5412063598632812,0.39540544152259827
1789453369787511600,6.403511474609375,0.7401822805404663,0.37212663888931274,0.30967405438423157
1789453369797452800,6.413452880859375,0.6795753836631775,0.36437496542930603,0.4412184953689575
1789453369807392500,6.423392578125,0.6423912644386292,0.4834733009338379,0.631449282169342
1789453369817333500,6.43333349609375,0.8097980618476868,0.533900260925293,0.87152498960495
1789453369827274500,6.4432744140625,1.0678282976150513,0.6298770308494568,1.3229525089263916
1789453369837215700,6.4532158203125,1.3388574123382568,0.6281100511550903,1.5863537788391113
1789453369847156500,6.463156494140625,1.5114450454711914,0.4191942811012268,1.5941989421844482
1789453369857097700,6.47309765625,1.5288584232330322,0.3348863422870636,1.5001989603042603
1789453369867037400,6.483037353515625,1.4635708332061768,0.3190443813800812,1.4537427425384521
1789453369876978700,6.492978759765625,1.3807361125946045,0.25226321816444397,1.3975729942321777
1789453369886919400,6.50291943359375,1.2853591442108154,0.03221963718533516,1.3560541868209839
1789453369896860700,6.512860595703125,1.2300535440444946,-0.045968376100063324,1.280723214149475
1789453369906801400,6.522801513671875,1.2537330389022827,-0.021892599761486053,1.1638855934143066
1789453369916742700,6.53274267578125,1.2606698274612427,0.03858112916350365,0.9814536571502686
1789453369926683600,6.54268359375,1.1431214809417725,0.1622326821088791,0.7302846908569336
1789453369936623600,6.55262353515625,0.8644941449165344,0.09607549756765366,0.5225147008895874
1789453369946564600,6.562564697265625,0.7207612991333008,-0.1207461729645729,0.4605810344219208
1789453369956505600,6.572505615234375,0.6549071669578552,-0.16671153903007507,0.39877837896347046
1789453369966446600,6.582446533203125,0.589105486869812,-0.12205071747303009,0.3109688460826874
1789453369976387600,6.5923876953125,0.41157492995262146,-0.18002347648143768,0.17931336164474487
1789453369986328600,6.60232861328125,0.009539890103042126,-0.205283060669899,-0.04406660422682762
1789453369996269600,6.61226953125,-0.29851698875427246,0.12892022728919983,-0.1101076677441597
1789453370006209500,6.62220947265625,-0.3293631970882416,0.46167466044425964,0.31274914741516113
1789453370016150500,6.632150634765625,-0.31455814838409424,0.5181118845939636,0.797663688659668
1789453370026091500,6.642091552734375,-0.028471244499087334,0.4804970324039459,1.0472723245620728
1789453370036032800,6.65203271484375,0.17120298743247986,0.31202492117881775,1.1086366176605225
1789453370045973500,6.661973388671875,0.27962857484817505,0.1764480322599411,0.9410914182662964
1789453370055914800,6.671914794921875,0.31528350710868835,0.07914144545793533,0.8529047966003418
1789453370065855500,6.68185546875,0.2368169128894806,0.015557264909148216,0.8785777688026428
1789453370075795700,6.691795654296875,0.16997210681438446,-0.04236515611410141,0.9206146597862244
1789453370085736400,6.701736328125,0.18079692125320435,-0.09262599050998688,0.8280737996101379
1789453370095677700,6.711677734375,0.12051732838153839,0.1521528661251068,0.6229084134101868
1789453370105618400,6.721618408203125,0.09508626163005829,0.3613700568675995,0.39180129766464233
1789453370115559700,6.7315595703125,0.1863889992237091,0.292667955160141,0.5153821110725403
1789453370125500700,6.741500732421875,0.16351363062858582,0.16504588723182678,0.5007247924804688
1789453370135441700,6.751441650390625,0.11454370617866516,0.09073570370674133,0.42434239387512207
1789453370145381600,6.761381591796875,0.0437699593603611,0.10342027246952057,0.3411193788051605
1789453370155322600,6.771322509765625,0.061736710369586945,0.07597825676202774,0.3007027208805084
1789453370165263600,6.781263671875,0.062455251812934875,0.14568817615509033,0.1775948405265808
1789453370175204600,6.79120458984375,0.06536928564310074,0.32163819670677185,0.09626934677362442
1789453370185145600,6.8011455078125,0.013080382719635963,0.18028269708156586,0.018623322248458862
1789453370195086600,6.811086669921875,-0.09169050306081772,0.09100475907325745,-0.03061746060848236
1789453370205027600,6.821027587890625,-0.18744021654129028,0.03987780585885048,-0.05479583144187927
1789453370214967600,6.830967529296875,-0.22864970564842224,-0.033074695616960526,-0.07632801681756973
1789453370224908500,6.840908447265625,-0.2613595724105835,-0.10289404541254044,-0.11264025419950485
1789453370234849800,6.850849853515625,-0.28258123993873596,-0.09435755014419556,-0.1673213392496109
1789453370244790500,6.86079052734375,-0.27664288878440857,-0.06457233428955078,-0.24920542538166046
1789453370254731800,6.870731689453125,-0.28345605731010437,-0.025419604033231735,-0.32043594121932983
1789453370264672500,6.880672607421875,-0.33455690741539,-0.039616212248802185,-0.3786882162094116
1789453370274613500,6.890613525390625,-0.3387276828289032,-0.0766245573759079,-0.42961984872817993
1789453370284554500,6.900554443359375,-0.3620035648345947,-0.08183074742555618,-0.4430044889450073
1789453370294494700,6.91049462890625,-0.3951418101787567,-0.02236929163336754,-0.4542510211467743
1789453370304435500,6.920435546875,-0.4272719621658325,-0.012826183810830116,-0.44921520352363586
1789453370314376700,6.930376708984375,-0.4214819669723511,0.01796102151274681,-0.44185981154441833
1789453370324317700,6.940317626953125,-0.4236389994621277,0.08390757441520691,-0.45988497138023376
1789453370334258400,6.950258544921875,-0.4115583598613739,0.13202209770679474,-0.4833863079547882
1789453370344199700,6.96019970703125,-0.31486520171165466,0.21288517117500305,-0.5543627142906189
1789453370354140400,6.970140380859375,-0.24686138331890106,0.16198763251304626,-0.5604251623153687
1789453370364080600,6.98008056640625,-0.23086141049861908,0.08653320372104645,-0.5520192384719849
1789453370374021600,6.990021728515625,-0.21086612343788147,0.12077506631612778,-0.5749557614326477
1789453370383962600,6.999962646484375,-0.1593569964170456,0.09690094739198685,-0.5750659704208374
1789453370393903600,7.009903564453125,-0.15498968958854675,0.10689526051282883,-0.6164280772209167
1789453370403844600,7.0198447265625,-0.150604248046875,0.03942525014281273,-0.6302673816680908
1789453370413785600,7.02978564453125,-0.1266821324825287,0.06366188079118729,-0.6057372689247131
1789453370423726600,7.0397265625,-0.14550776779651642,0.1032528504729271,-0.5907796621322632
1789453370433667600,7.04966748046875,-0.11657384037971497,0.2356465756893158,-0.6477835774421692
1789453370443607600,7.059607666015625,-0.10264842212200165,0.29959365725517273,-0.6864795088768005
1789453370453548500,7.069548583984375,-0.15524478256702423,0.3257317841053009,-0.6996373534202576
1789453370463489500,7.079489501953125,-0.16154806315898895,0.24723264575004578,-0.7072935700416565
1789453370473430500,7.089430419921875,-0.17644312977790833,0.14881205558776855,-0.6946586966514587
1789453370483371500,7.09937158203125,-0.15757770836353302,0.04011010006070137,-0.659278392791748
1789453370493312500,7.1093125,-0.17914319038391113,-0.0910407230257988,-0.6189163327217102
1789453370503253500,7.11925341796875,-0.2240346372127533,-0.18578113615512848,-0.5818083882331848
1789453370513194500,7.129194580078125,-0.2910144627094269,-0.18239040672779083,-0.5793476104736328
1789453370523134500,7.139134521484375,-0.3518761992454529,-0.10769566148519516,-0.6147977709770203
1789453370533075500,7.149075439453125,-0.3721095621585846,-0.02772625908255577,-0.6748155951499939
1789453370543016700,7.1590166015625,-0.3596569001674652,0.0506383553147316,-0.7203773856163025
1789453370552957400,7.16895751953125,-0.3303466737270355,0.06723837554454803,-0.6875829696655273
1789453370562898700,7.178898681640625,-0.27762115001678467,0.027817808091640472,-0.6879387497901917
1789453370572839400,7.18883935546875,-0.2478499412536621,-0.034931059926748276,-0.6563177108764648
1789453370582780700,7.19878076171875,-0.2668336033821106,-0.10385742038488388,-0.6222712993621826
1789453370592721400,7.208721435546875,-0.3292192220687866,-0.0821492001414299,-0.633371889591217
1789453370602661600,7.21866162109375,-0.37595289945602417,0.06219451129436493,-0.6165374517440796
1789453370612602400,7.228602294921875,-0.36021867394447327,0.17742763459682465,-0.6397213339805603
1789453370622543600,7.238543701171875,-0.3887452483177185,0.1857198178768158,-0.6773168444633484
1789453370632484600,7.248484619140625,-0.37190794944763184,0.0727517157793045,-0.6778361797332764
1789453370642425600,7.258425537109375,-0.4102795720100403,0.00020614685490727425,-0.6936236619949341
1789453370652366600,7.26836669921875,-0.487897664308548,-0.01734009012579918,-0.7188706994056702
1789453370662307600,7.2783076171875,-0.5582351684570312,-0.006649445742368698,-0.7134276628494263
1789453370672248600,7.28824853515625,-0.62137371301651,0.13948486745357513,-0.6771535873413086
1789453370682189600,7.298189453125,-0.6071616411209106,0.091519296169281,-0.7085020542144775
1789453370692129500,7.308129638671875,-0.5047646760940552,0.0935124009847641,-0.7063701748847961
1789453370702070500,7.318070556640625,-0.361846923828125,0.062127962708473206,-0.6921868920326233
1789453370712011500,7.328011474609375,-0.249520406126976,0.043356940150260925,-0.7112258076667786
1789453370721952800,7.337952880859375,-0.21266570687294006,0.00805183406919241,-0.7389020323753357
1789453370731893500,7.3478935546875,-0.23884405195713043,-0.0230789203196764,-0.8214280605316162
1789453370741834800,7.357834716796875,-0.33879366517066956,-0.007251810282468796,-0.8864385485649109
1789453370751775500,7.367775390625,-0.4273751974105835,0.05030522495508194,-0.9182513356208801
1789453370761716500,7.377716552734375,-0.47258490324020386,0.02982126921415329,-0.9332923889160156
1789453370771659000,7.387658935546875,-0.43509796261787415,-0.09059568494558334,-0.9678884148597717
1789453370781599000,7.397598876953125,-0.33230409026145935,-0.25392812490463257,-0.9982070326805115
1789453370791540000,7.4075400390625,-0.2631833553314209,-0.34254002571105957,-0.9896239638328552
1789453370801481000,7.41748095703125,-0.22934669256210327,-0.3843976557254791,-0.959335207939148
1789453370811422000,7.427421875,-0.24096418917179108,-0.3837987184524536,-0.9401114583015442
1789453370821363000,7.437363037109375,-0.29532185196876526,-0.325615257024765,-0.9240787029266357
1789453370831304000,7.447303955078125,-0.3810761570930481,-0.28779304027557373,-0.9191457629203796
1789453370841245000,7.457244873046875,-0.4784455895423889,-0.25290244817733765,-0.9398099780082703
1789453370851186000,7.46718603515625,-0.4948804974555969,-0.3297969698905945,-0.9522016644477844
1789453370861127000,7.477126953125,-0.49430736899375916,-0.47215208411216736,-0.9799408912658691
1789453370871067100,7.487067138671875,-0.47033199667930603,-0.4962310492992401,-1.017837405204773
1789453370881007900,7.4970078125,-0.3807987868785858,-0.5433534979820251,-1.060584306716919
1789453370890949000,7.50694921875,-0.320526123046875,-0.5654265880584717,-1.0535485744476318
1789453370900889900,7.516889892578125,-0.25589585304260254,-0.589859664440155,-1.039223074913025
1789453370910830800,7.526830810546875,-0.23813872039318085,-0.5599995255470276,-1.0070520639419556
1789453370920771800,7.536771728515625,-0.22200846672058105,-0.4836030602455139,-0.9694201946258545
1789453370930712800,7.546712890625,-0.21782492101192474,-0.3862046003341675,-0.9244521856307983
1789453370940654000,7.556654052734375,-0.20310868322849274,-0.32652515172958374,-0.893128514289856
1789453370950594800,7.5665947265625,-0.1815996617078781,-0.2860105037689209,-0.8223824501037598
1789453370960535000,7.57653515625,-0.14275479316711426,-0.1985931247472763,-0.7503805160522461
1789453370970476000,7.58647607421875,-0.12925337255001068,-0.13119864463806152,-0.6934956312179565
1789453370980417000,7.5964169921875,-0.14064517617225647,-0.016607334837317467,-0.6437929272651672
1789453370990357800,7.606357666015625,-0.17130988836288452,0.07730025053024292,-0.6082857847213745
1789453371000299000,7.616299072265625,-0.1519528180360794,0.1927606761455536,-0.612748384475708
1789453371010239700,7.62623974609375,-0.14912214875221252,0.21250909566879272,-0.643244743347168
1789453371020181000,7.636180908203125,-0.1813749074935913,0.28940773010253906,-0.5750693678855896
1789453371030122000,7.6461220703125,-0.15843363106250763,0.22510890662670135,-0.412089467048645
1789453371040063000,7.65606298828125,-0.12408589571714401,0.23431745171546936,-0.300507515668869
1789453371050004000,7.66600390625,-0.06472111493349075,0.28525519371032715,-0.25822052359580994
1789453371059945000,7.675945068359375,0.005264746956527233,0.35479238629341125,-0.25032782554626465
1789453371069885000,7.685885009765625,0.03324178606271744,0.37135884165763855,-0.22406187653541565
1789453371079826000,7.695825927734375,0.044470466673374176,0.3464129865169525,-0.16073495149612427
1789453371089767000,7.705766845703125,0.03228144347667694,0.31788891553878784,-0.10081330686807632
1789453371099708000,7.7157080078125,0.002965250751003623,0.32583001255989075,-0.03507199510931969
1789453371109649000,7.72564892578125,0.0042512910440564156,0.26536932587623596,0.011312013491988182
1789453371119590100,7.735590087890625,0.048073042184114456,0.21539819240570068,0.04423179104924202
1789453371129531000,7.74553076171875,0.06473483890295029,0.16693398356437683,0.081334687769413
1789453371139472100,7.75547216796875,0.07001737505197525,0.11364048719406128,0.14827413856983185
1789453371149412900,7.765412841796875,0.10322646051645279,0.10337559878826141,0.22318141162395477
1789453371159353900,7.775353759765625,0.11243434995412827,0.06419070065021515,0.2755126655101776
1789453371169293800,7.7852939453125,0.12914568185806274,0.11442431062459946,0.3473690152168274
1789453371179235000,7.795235107421875,0.20786631107330322,0.1201113909482956,0.40144607424736023
1789453371189175800,7.80517578125,0.26443716883659363,0.1501217633485794,0.434189110994339
1789453371199117000,7.815116943359375,0.3007820248603821,0.21679405868053436,0.5044475793838501
1789453371209058000,7.82505810546875,0.3240130543708801,0.20701172947883606,0.6037542223930359
1789453371218998800,7.834998779296875,0.33474862575531006,0.1664402335882187,0.7079443335533142
1789453371228940000,7.84493994140625,0.3446105718612671,0.15891307592391968,0.7830873131752014
1789453371238880800,7.854880859375,0.3793160915374756,0.0875929743051529,0.8119415044784546
1789453371248822000,7.864822021484375,0.40552425384521484,0.01590174250304699,0.8787716627120972
1789453371258762800,7.8747626953125,0.44626396894454956,-0.0413198322057724,0.9562438726425171
1789453371268704000,7.8847041015625,0.5151764750480652,-0.030565455555915833,1.0041700601577759
1789453371278644000,7.89464404296875,0.5792550444602966,0.001673341728746891,1.057420015335083
1789453371288585000,7.9045849609375,0.6215803623199463,0.03028368204832077,1.1383416652679443
1789453371298526000,7.91452587890625,0.6472949385643005,0.0001942063681781292,1.1950727701187134
1789453371308467000,7.924467041015625,0.6366748213768005,-0.04532400891184807,1.2337576150894165
1789453371318408000,7.934407958984375,0.6073365807533264,-0.06337001174688339,1.2731820344924927
1789453371328349000,7.944348876953125,0.5869338512420654,-0.10191500931978226,1.24830162525177
1789453371338290000,7.9542900390625,0.5695966482162476,-0.08063782751560211,1.1948648691177368
1789453371348231000,7.96423095703125,0.5823937058448792,-0.10357936471700668,1.2214903831481934
1789453371358172000,7.974171875,0.6049371957778931,-0.13521017134189606,1.2613236904144287
1789453371368113200,7.984113037109375,0.6314598917961121,-0.16153711080551147,1.2418280839920044
1789453371378054000,7.994053955078125,0.6356919407844543,-0.1938682496547699,1.2163511514663696
1789453371387995000,8.003994873046874,0.6546688079833984,-0.2141016274690628,1.1886630058288574
1789453371397934800,8.013934814453124,0.6950916051864624,-0.219278022646904,1.1234171390533447
1789453371407876000,8.0238759765625,0.6912167072296143,-0.2539004385471344,1.0695220232009888
1789453371417816800,8.03381689453125,0.631355881690979,-0.24131347239017487,1.042312502861023
1789453371427758000,8.043758056640625,0.6117774248123169,-0.22034534811973572,1.0191882848739624
1789453371437698800,8.05369873046875,0.5982702970504761,-0.29850536584854126,1.0071446895599365
1789453371447640000,8.06364013671875,0.6256025433540344,-0.263632595539093,1.0384632349014282
1789453371457581000,8.0735810546875,0.6798951029777527,-0.16373154520988464,1.0715346336364746
1789453371467521800,8.083521728515626,0.7314866185188293,-0.2303800731897354,1.0710285902023315
1789453371477463000,8.093463134765624,0.7453927397727966,-0.2590422034263611,1.0360888242721558
1789453371487403800,8.10340380859375,0.7364283204078674,-0.2832399606704712,1.032057523727417
1789453371497345000,8.113344970703125,0.7279925346374512,-0.3520828187465668,1.0257772207260132
1789453371507285800,8.12328564453125,0.7123746871948242,-0.3034132719039917,1.019648790359497
1789453371517226000,8.13322607421875,0.6730179786682129,-0.20538370311260223,1.0457372665405273
1789453371527166700,8.143166748046875,0.6266800761222839,-0.1536635160446167,1.0780900716781616
1789453371537108000,8.15310791015625,0.5901927351951599,-0.14150789380073547,1.0664050579071045
1789453371547049000,8.163049072265625,0.5358003377914429,-0.1333913803100586,1.0233246088027954
1789453371556990000,8.172989990234376,0.4845200777053833,-0.12873488664627075,0.9586949944496155
1789453371566931000,8.182930908203126,0.4592195153236389,-0.10848581045866013,0.9364405274391174
1789453371576872000,8.192871826171874,0.4397205412387848,-0.12272652983665466,0.9237448573112488
1789453371586813000,8.20281298828125,0.41042283177375793,-0.20281630754470825,0.91424161195755
1789453371596754000,8.21275390625,0.35056525468826294,-0.2551390826702118,0.8911409378051758
1789453371606695000,8.22269482421875,0.30344220995903015,-0.2539377212524414,0.8708822727203369
1789453371616636200,8.23263623046875,0.2884674668312073,-0.2451382428407669,0.8919988870620728
1789453371626577000,8.242576904296875,0.2532229423522949,-0.18109188973903656,0.8736401200294495
1789453371636518000,8.252517822265625,0.2377619594335556,-0.15426427125930786,0.8784295320510864
1789453371646457900,8.262457763671875,0.2391507923603058,-0.11901360005140305,0.8896835446357727
1789453371656399000,8.272399169921876,0.1927630603313446,-0.027837246656417847,0.8492347002029419
1789453371666339800,8.28233984375,0.19644273817539215,-0.016919083893299103,0.8115515112876892
1789453371676281000,8.292281005859374,0.1916034072637558,-0.07447101175785065,0.7846208214759827
1789453371686221800,8.302221923828125,0.1317826807498932,-0.014348018914461136,0.7453818321228027
1789453371696162800,8.312162841796875,0.06503160297870636,0.06879885494709015,0.7061821222305298
1789453371706104000,8.32210400390625,0.028153210878372192,0.07287455350160599,0.6612431406974792
1789453371716044800,8.332044921875,0.010080057196319103,0.05788378417491913,0.5842733383178711
1789453371725986000,8.341986083984375,0.02056945115327835,-0.022839557379484177,0.49171414971351624
1789453371735926800,8.3519267578125,0.01843596249818802,-0.04224265739321709,0.3995162844657898
1789453371745868000,8.361867919921876,0.08417769521474838,0.016029970720410347,0.33090367913246155
1789453371755809000,8.37180908203125,0.03678981587290764,0.026800701394677162,0.2550216019153595
1789453371765749000,8.3817490234375,-0.032127734273672104,-0.010119766928255558,0.18843618035316467
1789453371775689200,8.391689208984374,-0.04889844357967377,-0.0375332310795784,0.1469285488128662
1789453371785630000,8.4016298828125,-0.13541601598262787,-0.0984429195523262,0.1334628164768219
1789453371795571200,8.4115712890625,-0.17137859761714935,-0.12091004103422165,0.09971988946199417
1789453371805512200,8.42151220703125,-0.2176121473312378,-0.12869897484779358,0.049719035625457764
1789453371815453000,8.431452880859375,-0.2649862766265869,-0.0434780977666378,-0.028631750494241714
1789453371825394200,8.441394287109375,-0.2939654588699341,-0.0035583770368248224,-0.09834078699350357
1789453371835335000,8.4513349609375,-0.30445733666419983,0.009015997871756554,-0.15256616473197937
1789453371845276200,8.461276123046876,-0.3223164975643158,0.05285881832242012,-0.20024900138378143
1789453371855217000,8.471216796875,-0.3387254774570465,0.10463637858629227,-0.24672114849090576
1789453371865158100,8.481158203125,-0.36052054166793823,0.18934300541877747,-0.29399624466896057
1789453371875099100,8.49109912109375,-0.39854684472084045,0.21408601105213165,-0.3326321542263031
1789453371885040000,8.5010400390625,-0.4125193953514099,0.1573798507452011,-0.3671475350856781
1789453371894981000,8.510981201171875,-0.40082964301109314,0.1001078337430954,-0.4043022394180298
1789453371904922000,8.520922119140625,-0.4261573553085327,0.05550201237201691,-0.43771106004714966
1789453371914863000,8.530863037109375,-0.438388854265213,0.06043834239244461,-0.45392197370529175
1789453371924803000,8.540802978515625,-0.4215773642063141,0.10657601058483124,-0.4769628345966339
1789453371934744000,8.550744140625,-0.3898869752883911,0.1421542912721634,-0.5153247714042664
1789453371944685000,8.56068505859375,-0.3632330000400543,0.1563768982887268,-0.5546814799308777
1789453371954626000,8.5706259765625,-0.3542698323726654,0.17767511308193207,-0.6035244464874268
1789453371964567300,8.5805673828125,-0.34234818816185,0.2396484762430191,-0.6374879479408264
1789453371974508000,8.590508056640624,-0.31655722856521606,0.2800065279006958,-0.6425749659538269
1789453371984449000,8.600448974609375,-0.28858044743537903,0.2726151943206787,-0.6288122534751892
1789453371994390000,8.61039013671875,-0.2755851447582245,0.23708172142505646,-0.6294643878936768
1789453372004331000,8.6203310546875,-0.27614572644233704,0.19198109209537506,-0.6889844536781311
1789453372014272000,8.63027197265625,-0.284932017326355,0.13374978303909302,-0.7574205994606018
1789453372024213000,8.640212890625,-0.2972251772880554,0.15030905604362488,-0.7607942819595337
1789453372034154200,8.650154296875,-0.2876969873905182,0.15415599942207336,-0.7403382062911987
1789453372044095000,8.660094970703126,-0.27293509244918823,0.20731854438781738,-0.7247949242591858
1789453372054036200,8.6700361328125,-0.23970897495746613,0.250013530254364,-0.6983665227890015
1789453372063977000,8.67997705078125,-0.22614896297454834,0.2217765748500824,-0.7015639543533325
1789453372073917200,8.689917236328125,-0.2366284877061844,0.12353858351707458,-0.7236482501029968
1789453372083858000,8.69985791015625,-0.2889641225337982,0.061922360211610794,-0.7607460618019104
1789453372093799200,8.709799072265625,-0.2992001175880432,0.12263508141040802,-0.7356187105178833
1789453372103740000,8.719739990234375,-0.3478086590766907,0.2170979380607605,-0.7228919863700867
1789453372113681200,8.72968115234375,-0.3942651152610779,0.25794923305511475,-0.7206091284751892
1789453372123622100,8.7396220703125,-0.418427973985672,0.2426736056804657,-0.749690592288971
1789453372133563100,8.749563232421876,-0.46443718671798706,0.2050134688615799,-0.7714734673500061
1789453372143504100,8.759504150390624,-0.4490206837654114,0.16782322525978088,-0.7495514154434204
1789453372153445000,8.769445068359374,-0.4364100396633148,0.11224225163459778,-0.7631426453590393
1789453372163386000,8.77938623046875,-0.40494638681411743,0.07442349940538406,-0.7692649960517883
1789453372173326800,8.789326904296875,-0.3692674934864044,0.022167382761836052,-0.7685912847518921
1789453372183268000,8.79926806640625,-0.3695199489593506,0.006749542895704508,-0.7733535170555115
1789453372193209000,8.809208984375,-0.4227840006351471,0.02879508025944233,-0.8048326373100281
1789453372203150000,8.819150146484375,-0.5033438205718994,0.08592041581869125,-0.8264346122741699
1789453372213091000,8.829091064453126,-0.5940327048301697,0.09618472307920456,-0.8617283701896667
1789453372223032000,8.839031982421876,-0.6357694864273071,0.06269174069166183,-0.8761536478996277
1789453372232972000,8.848971923828126,-0.6262854337692261,0.015749480575323105,-0.8669772744178772
1789453372242913000,8.8589130859375,-0.5625738501548767,0.0017977110110223293,-0.8510528802871704
1789453372252854000,8.86885400390625,-0.4334561824798584,-0.07958933711051941,-0.8558112978935242
1789453372262795000,8.878794921875,-0.36220890283584595,-0.13781136274337769,-0.887652575969696
1789453372272736000,8.888736083984375,-0.3465636074542999,-0.18718931078910828,-0.9363836050033569
1789453372282677200,8.89867724609375,-0.3733222782611847,-0.13136199116706848,-0.965743362903595
1789453372292618000,8.908617919921875,-0.4606727063655853,-0.014246136881411076,-0.9663710594177246
1789453372302559200,8.918559326171875,-0.49312010407447815,0.09568409621715546,-0.9528347253799438
1789453372312500000,8.9285,-0.4558533728122711,0.12103095650672913,-0.9533060789108276
1789453372322441200,8.938441162109376,-0.4008188843727112,0.026839738711714745,-0.882816731929779
1789453372332382000,8.9483818359375,-0.5008335113525391,-0.05000652000308037,-0.8980832695960999
1789453372342323000,8.958322998046874,-0.38332071900367737,-0.20259365439414978,-1.0567432641983032
1789453372352264200,8.96826416015625,-0.330797016620636,-0.24822939932346344,-1.029577374458313
1789453372362205000,8.978204833984375,-0.3227825164794922,-0.161049485206604,-1.0240986347198486
1789453372372146200,8.988146240234375,-0.3095928728580475,-0.08965050429105759,-1.0687508583068848
1789453372382087000,8.9980869140625,-0.2844989597797394,-0.18170292675495148,-1.0795923471450806
1789453372392027100,9.008027099609375,-0.2977636456489563,-0.183931365609169,-1.0478535890579224
1789453372401968000,9.017968017578125,-0.36165711283683777,-0.08545991033315659,-1.0648983716964722
1789453372411909000,9.0279091796875,-0.3834751844406128,-0.14565187692642212,-1.0529330968856812
1789453372421849900,9.037849853515626,-0.32058942317962646,-0.1709441840648651,-1.1328809261322021
1789453372431791000,9.047791015625,-0.2124684900045395,-0.3097665309906006,-1.1151378154754639
1789453372441732000,9.057732177734374,-0.1636522263288498,-0.29771092534065247,-1.0043673515319824
1789453372451673000,9.067673095703125,-0.09679596871137619,-0.17156657576560974,-0.9243928790092468
1789453372461614000,9.077614013671875,-0.03379063680768013,-0.17130878567695618,-0.8846374750137329
1789453372471555000,9.08755517578125,-0.04435122758150101,-0.17761339247226715,-0.8657332062721252
1789453372481496000,9.09749609375,-0.11748296767473221,-0.1848239004611969,-0.7858314514160156
1789453372491437000,9.10743701171875,-0.1728455275297165,-0.19861102104187012,-0.7269815802574158
1789453372501378000,9.1173779296875,-0.20794253051280975,-0.15757650136947632,-0.6673299670219421
1789453372511319000,9.127319091796876,-0.16406092047691345,-0.07448527961969376,-0.6522042751312256
1789453372521260000,9.137260009765624,-0.07323168218135834,0.027187814936041832,-0.6377981901168823
1789453372531201000,9.147200927734374,0.04647446051239967,0.11597035825252533,-0.6332656741142273
1789453372541142000,9.15714208984375,0.11776887625455856,0.2566811442375183,-0.6311508417129517
1789453372551083000,9.1670830078125,0.09747233986854553,0.4090433418750763,-0.5824350714683533
1789453372561024300,9.177024169921875,0.008652184158563614,0.4363194406032562,-0.48744627833366394
1789453372570965000,9.186965087890625,-0.02749861776828766,0.305878221988678,-0.37605562806129456
1789453372580905000,9.196905029296875,-0.05836226046085358,0.27345532178878784,-0.2504449784755707
1789453372590846000,9.206845947265625,-0.07222278416156769,0.21683599054813385,-0.20200222730636597
1789453372600787200,9.216787109375,-0.06447777897119522,0.21810151636600494,-0.19329555332660675
1789453372610728000,9.22672802734375,-0.06217589229345322,0.20061776041984558,-0.17961107194423676
1789453372620669200,9.236669189453124,-0.050504591315984726,0.21680551767349243,-0.12498697638511658
1789453372630610000,9.24660986328125,-0.000731293112039566,0.21023666858673096,-0.05792414769530296
1789453372640551200,9.25655126953125,0.042043864727020264,0.20460914075374603,0.004419386386871338
1789453372650492200,9.2664921875,0.0364120788872242,0.17660467326641083,0.06553760170936584
1789453372660433200,9.27643310546875,0.025445714592933655,0.10060205310583115,0.13854417204856873
1789453372670374100,9.2863740234375,0.03605826571583748,0.07376153767108917,0.23493365943431854
1789453372680315100,9.296315185546876,0.06277855485677719,0.09296932071447372,0.3070128858089447
1789453372690256100,9.306256103515626,0.08357366174459457,0.08167719095945358,0.37120816111564636
1789453372700196900,9.31619677734375,0.09914463758468628,0.02683444879949093,0.4392431378364563
1789453372710138000,9.32613818359375,0.1265033632516861,-0.03971761465072632,0.5057567358016968
1789453372720079000,9.3360791015625,0.17246019840240479,-0.07958566397428513,0.5788444876670837
1789453372730020000,9.34602001953125,0.2184794545173645,-0.10625552386045456,0.6719930768013
1789453372739961000,9.355961181640625,0.2439105063676834,-0.11437656730413437,0.7681577205657959
1789453372749902000,9.365902099609375,0.27449530363082886,-0.13277597725391388,0.8372084498405457
1789453372759843000,9.375843017578125,0.3075752258300781,-0.11126668751239777,0.9039323329925537
1789453372769783300,9.385783203125,0.3179165720939636,-0.054980356246232986,0.9926972985267639
1789453372779724000,9.39572412109375,0.3299410045146942,0.00935895275324583,1.09610116481781
1789453372789665300,9.405665283203126,0.3868902921676636,0.018381638452410698,1.1725586652755737
1789453372799606000,9.41560595703125,0.4345369338989258,0.01032690703868866,1.2169537544250488
1789453372809547300,9.42554736328125,0.473910927772522,0.008778268471360207,1.2642757892608643
1789453372819488300,9.43548828125,0.5181041955947876,0.06901417672634125,1.276031494140625
1789453372829429200,9.44542919921875,0.571061372756958,0.06924710422754288,1.3062629699707031
1789453372839370200,9.455370361328125,0.620611846446991,0.048844099044799805,1.3069775104522705
1789453372849311200,9.465311279296875,0.6480079293251038,0.05607128515839577,1.2782803773880005
1789453372859252200,9.475252197265625,0.6165674924850464,0.013770697638392448,1.3867498636245728
1789453372869193200,9.485193115234376,0.6666823625564575,-0.00013681920245289803,1.3393486738204956
1789453372879134200,9.49513427734375,0.7084830403327942,-0.051432494074106216,1.3018991947174072
1789453372889075200,9.5050751953125,0.7275303602218628,-0.06299924850463867,1.333488941192627
1789453372899016200,9.51501611328125,0.7541089653968811,-0.08083576709032059,1.3496407270431519
1789453372908957200,9.524957275390625,0.7783402800559998,-0.09330986440181732,1.2616462707519531
1789453372918898200,9.534898193359375,0.7795432209968567,-0.07404615730047226,1.1783868074417114
1789453372928839200,9.544839111328125,0.8144943118095398,-0.1303502321243286,1.1393256187438965
1789453372938780400,9.554780517578125,0.8427600860595703,-0.13504990935325623,1.1514207124710083
1789453372948721200,9.56472119140625,0.767379641532898,-0.11290314793586731,1.1504956483840942
1789453372958662100,9.574662109375,0.6764302849769592,-0.1491684764623642,1.1156423091888428
1789453372968602000,9.58460205078125,0.6302397847175598,-0.212450310587883,1.0800613164901733
1789453372978543400,9.59454345703125,0.6055334210395813,-0.22023525834083557,1.000199794769287
1789453372988484000,9.604484130859374,0.6246148943901062,-0.24331916868686676,0.9464932680130005
1789453372998425300,9.61442529296875,0.6184927821159363,-0.14025111496448517,0.8779850602149963
1789453373008366000,9.624365966796875,0.6344037652015686,-0.1872534453868866,0.8877050280570984
1789453373018307300,9.634307373046875,0.6231993436813354,-0.2636531591415405,0.897085964679718
1789453373028248300,9.644248291015625,0.6455519199371338,-0.41398540139198303,0.8917846083641052
1789453373038189000,9.65418896484375,0.658308207988739,-0.5132070779800415,0.8633700609207153
1789453373048130300,9.66413037109375,0.6788145899772644,-0.5067031383514404,0.8366689085960388
1789453373058071000,9.674071044921876,0.6957520246505737,-0.42089319229125977,0.8243147730827332
1789453373068012300,9.68401220703125,0.6829299330711365,-0.2911830246448517,0.8283491134643555
1789453373077953000,9.693953125,0.619742214679718,-0.16531191766262054,0.8519068956375122
1789453373087894300,9.703894287109375,0.5711132287979126,-0.1137629821896553,0.8989898562431335
1789453373097835300,9.713835205078125,0.5326443910598755,-0.08487167954444885,0.9133129119873047
1789453373107776300,9.7237763671875,0.5232721567153931,-0.10678018629550934,0.9718092679977417
1789453373117717200,9.73371728515625,0.5491564869880676,-0.1499210000038147,1.0326206684112549
1789453373127658200,9.743658203125,0.5662111639976501,-0.13734731078147888,1.0611748695373535
1789453373137599200,9.75359912109375,0.5682647228240967,-0.16491208970546722,1.104193925857544
1789453373147540000,9.7635400390625,0.45290258526802063,-0.18171551823616028,1.0954688787460327
1789453373157481200,9.773481201171874,0.35543060302734375,-0.18247663974761963,1.090272068977356
1789453373167421200,9.783421142578124,0.24011962115764618,-0.08559952676296234,1.0253562927246094
1789453373177362200,9.793362060546874,0.16981828212738037,-0.04618154093623161,0.9808424115180969
1789453373187303400,9.803303466796875,0.1632615625858307,-0.09053584933280945,0.925840437412262
1789453373197244200,9.813244140625,0.22005747258663177,-0.17138276994228363,0.8856192827224731
1789453373207185200,9.82318505859375,0.16788136959075928,-0.08696306496858597,0.7902207970619202
1789453373217126100,9.833126220703125,0.09535577148199081,0.0008863671682775021,0.7519538402557373
1789453373227067100,9.843067138671875,0.0036114584654569626,0.03580770641565323,0.6808245778083801
1789453373237008100,9.853008056640626,-0.03540331870317459,0.07135238498449326,0.5990349054336548
1789453373246949000,9.86294921875,-0.008661210536956787,0.06433889269828796,0.4954753816127777
1789453373256890400,9.872890380859374,-0.029418686404824257,-0.004320865962654352,0.40201759338378906
1789453373266831000,9.8828310546875,-0.002459761453792453,-0.029381848871707916,0.30385875701904297
1789453373276772400,9.8927724609375,-0.013564343564212322,-0.05923695117235184,0.22165948152542114
1789453373286713000,9.902713134765625,-0.06545805931091309,-0.1407528519630432,0.1487409621477127
1789453373296654300,9.912654296875,-0.10628538578748703,-0.19077233970165253,0.060752253979444504
1789453373306595000,9.922594970703125,-0.1428566426038742,-0.17275172472000122,-0.03366765007376671
1789453373316536000,9.9325361328125,-0.2055879384279251,-0.0373784601688385,-0.13392633199691772
1789453373326477300,9.942477294921876,-0.2562749981880188,0.032779790461063385,-0.21285788714885712
1789453373336418000,9.95241796875,-0.29298853874206543,0.07684605568647385,-0.28927597403526306
1789453373346359300,9.962359375,-0.3497660756111145,0.12846611440181732,-0.3497028350830078
1789453373356300000,9.972300048828124,-0.392095685005188,0.2010127454996109,-0.3815728724002838
1789453373366241300,9.9822412109375,-0.4134400188922882,0.29479125142097473,-0.38402247428894043
1789453373376181200,9.99218115234375,-0.4206763505935669,0.323272168636322,-0.3740321695804596
1789453373386122200,10.002122314453125,-0.41969025135040283,0.2629760503768921,-0.39273601770401
1789453373396063000,10.01206298828125,-0.39736151695251465,0.2152032107114792,-0.4313052296638489
1789453373406004200,10.022004150390625,-0.32578045129776,0.19174014031887054,-0.4587455093860626
1789453373415945200,10.0319453125,-0.29832354187965393,0.16669178009033203,-0.4558514654636383
1789453373425886200,10.04188623046875,-0.36846810579299927,0.1341809183359146,-0.4623570442199707
1789453373435827200,10.0518271484375,-0.34367647767066956,0.12401297688484192,-0.4739684462547302
1789453373445768200,10.061768310546874,-0.3333744704723358,0.0942012295126915,-0.5006690621376038
1789453373455709200,10.071709228515624,-0.3421551585197449,0.09223661571741104,-0.5472498536109924
1789453373465650400,10.081650390625,-0.3306352198123932,0.12450828403234482,-0.5755650401115417
1789453373475591200,10.091591064453125,-0.30736371874809265,0.145579993724823,-0.5956407785415649
1789453373485532200,10.1015322265625,-0.2802864909172058,0.17425766587257385,-0.5977776646614075
1789453373495473200,10.11147314453125,-0.2276536375284195,0.22162064909934998,-0.5628849267959595
1789453373505414100,10.1214140625,-0.1771414577960968,0.25475719571113586,-0.5487585067749023
1789453373515355100,10.131355224609376,-0.1781150996685028,0.3109045922756195,-0.5657199025154114
1789453373525296000,10.141296142578126,-0.20391792058944702,0.37003442645072937,-0.6066380739212036
1789453373535237400,10.1512373046875,-0.24437212944030762,0.35245490074157715,-0.7007888555526733
1789453373545178000,10.16117822265625,-0.260779470205307,0.3607087731361389,-0.8048345446586609
1789453373555119400,10.171119384765625,-0.2701641917228699,0.4124729037284851,-0.8336707353591919
1789453373565060000,10.18106005859375,-0.30537527799606323,0.4234418570995331,-0.8503464460372925
1789453373575001300,10.19100146484375,-0.2798731327056885,0.3788658678531647,-0.8480550050735474
1789453373584941000,10.200941162109375,-0.26160892844200134,0.2892548739910126,-0.7885019183158875
1789453373594882300,10.21088232421875,-0.23649103939533234,0.20693255960941315,-0.7365124821662903
1789453373604823000,10.220822998046875,-0.20427899062633514,0.13326424360275269,-0.6768841743469238
1789453373614764300,10.230764404296876,-0.21368394792079926,0.06749748438596725,-0.6542971134185791
1789453373624705300,10.240705322265624,-0.269990473985672,0.08902419358491898,-0.6960119605064392
1789453373634646300,10.250646240234374,-0.36498355865478516,0.12247908115386963,-0.7572670578956604
1789453373644587300,10.260587158203125,-0.42170044779777527,0.24173220992088318,-0.8304398655891418
1789453373654528300,10.2705283203125,-0.4264906644821167,0.36464932560920715,-0.8911098837852478
1789453373664469200,10.28046923828125,-0.4167328178882599,0.3718360662460327,-0.9666768908500671
1789453373674410000,10.290409912109375,-0.398344486951828,0.3254382014274597,-0.9764653444290161
1789453373684351200,10.300351318359375,-0.39485427737236023,0.22740702331066132,-0.9592605829238892
1789453373694292200,10.310292236328126,-0.3976820409297943,0.17097730934619904,-0.9472106099128723
1789453373704233200,10.320233154296876,-0.43165332078933716,0.18426594138145447,-0.9119395613670349
1789453373714174200,10.33017431640625,-0.45224836468696594,0.18425580859184265,-0.9001809358596802
1789453373724115200,10.340115234375,-0.44797149300575256,0.21794915199279785,-0.8594971895217896
1789453373734056200,10.35005615234375,-0.459443062543869,0.1835688054561615,-0.9196034073829651
1789453373743997200,10.3599970703125,-0.4304967522621155,0.010648547671735287,-1.0068614482879639
1789453373753938200,10.369938232421875,-0.443683922290802,-0.10991674661636353,-1.0603289604187012
1789453373763879400,10.37987939453125,-0.45881152153015137,-0.16688145697116852,-1.0755976438522339
1789453373773820000,10.38981982421875,-0.47282081842422485,-0.08767611533403397,-1.0794270038604736
1789453373783761000,10.399760986328126,-0.49723193049430847,0.03421156853437424,-1.0635249614715576
1789453373793702000,10.409701904296876,-0.5412572026252747,0.06532074511051178,-1.04908287525177
1789453373803641900,10.419641845703126,-0.5515790581703186,0.09318321198225021,-1.0277892351150513
1789453373813582800,10.429582763671876,-0.5148050785064697,0.018584080040454865,-1.0495277643203735
1789453373823523800,10.43952392578125,-0.5073183178901672,-0.10331536084413528,-1.0666358470916748
1789453373833464800,10.44946484375,-0.5014787912368774,-0.1709519326686859,-1.0672560930252075
1789453373843405800,10.45940576171875,-0.47582343220710754,-0.18327100574970245,-1.059683918952942
1789453373853346800,10.469346923828125,-0.4271392226219177,-0.22194276750087738,-1.049450159072876
1789453373863287800,10.479287841796875,-0.34448689222335815,-0.22823481261730194,-1.0265307426452637
1789453373873228800,10.489228759765625,-0.2545117139816284,-0.31531432271003723,-1.0412819385528564
1789453373883169800,10.499169677734375,-0.250837117433548,-0.3889421224594116,-1.0871782302856445
1789453373893110800,10.50911083984375,-0.3606608211994171,-0.42340022325515747,-1.1767044067382812
1789453373903051800,10.5190517578125,-0.44508102536201477,-0.4411250948905945,-1.2396129369735718
1789453373912992800,10.52899267578125,-0.5081814527511597,-0.4246920645236969,-1.2197312116622925
1789453373922933800,10.538933837890625,-0.485706627368927,-0.46354764699935913,-1.1966638565063477
1789453373932875000,10.548875,-0.380204439163208,-0.48802047967910767,-1.1114020347595215
1789453373942815700,10.558815673828125,-0.26389092206954956,-0.42987218499183655,-1.039322853088379
1789453373952757000,10.568757080078125,-0.17898906767368317,-0.36517947912216187,-0.9709864854812622
1789453373962697700,10.57869775390625,-0.14154984056949615,-0.25887972116470337,-0.8877338171005249
1789453373972638700,10.588638671875,-0.1997809261083603,-0.13672664761543274,-0.8317679762840271
1789453373982579700,10.598579833984376,-0.28488174080848694,-0.09279868751764297,-0.7729566693305969
1789453373992520700,10.608520751953124,-0.2968502342700958,-0.136905699968338,-0.7491333484649658
1789453374002462000,10.6184619140625,-0.28923743963241577,-0.11683361232280731,-0.713834285736084
1789453374012402700,10.628402587890625,-0.26714837551116943,0.0020842570811510086,-0.7323161363601685
1789453374022344000,10.638343994140625,-0.2770543098449707,0.2665084898471832,-0.8206276297569275
1789453374032284000,10.648283935546875,-0.2507428228855133,0.44423454999923706,-0.7561386823654175
1789453374042225000,10.658224853515625,-0.1207919716835022,0.25476178526878357,-0.5523423552513123
1789453374052165600,10.66816552734375,-0.0903690829873085,0.30805590748786926,-0.37410813570022583
1789453374062107000,10.67810693359375,-0.08382444828748703,0.389862984418869,-0.2688269019126892
1789453374072047600,10.688047607421876,-0.0589558444917202,0.35306501388549805,-0.19951491057872772
1789453374081988900,10.69798876953125,-0.08914832025766373,0.3330799639225006,-0.0942327007651329
1789453374091929900,10.707929931640624,-0.11756877601146698,0.29972121119499207,-0.01246034074574709
1789453374101870800,10.717870849609374,-0.1209201067686081,0.18989281356334686,0.02480373904109001
1789453374111811800,10.727811767578125,-0.08251998573541641,0.16065184772014618,0.04554949700832367
1789453374121752800,10.7377529296875,-0.02625560387969017,0.0992961898446083,0.09078755974769592
1789453374131693800,10.74769384765625,0.00614894088357687,0.09073599427938461,0.16927464306354523
1789453374141634800,10.757634765625,0.014251640997827053,0.09938828647136688,0.26289546489715576
1789453374151575800,10.767575927734375,0.021703964099287987,0.050913162529468536,0.3718794882297516
1789453374161516800,10.777516845703126,-0.01054378692060709,0.06050489842891693,0.5048714876174927
1789453374171457800,10.787457763671876,-0.03109300509095192,0.008161532692611217,0.6246975064277649
1789453374181398800,10.797398681640624,-0.014305703341960907,0.007897648960351944,0.693202018737793
1789453374191339800,10.80733984375,-0.003518303856253624,-0.04501643031835556,0.7241439819335938
1789453374201280800,10.81728076171875,0.02460430935025215,-0.05150681361556053,0.7824643850326538
1789453374211222000,10.827221923828125,0.0594421848654747,-0.03295869380235672,0.8398701548576355
1789453374221162800,10.837162841796875,0.1432943493127823,0.01745196245610714,0.9017527103424072
1789453374231104000,10.84710400390625,0.24649077653884888,0.03697133809328079,0.9504115581512451
1789453374241044700,10.857044677734375,0.3653865158557892,0.056230295449495316,0.9896286725997925
1789453374250986000,10.866986083984376,0.42787304520606995,0.05119958519935608,1.0280826091766357
1789453374260925700,10.87692578125,0.45355358719825745,0.02198835276067257,1.064023494720459
1789453374270867000,10.886866943359376,0.489372581243515,-0.029837828129529953,1.045626163482666
1789453374280807700,10.8968076171875,0.5069807767868042,-0.015979506075382233,1.0391807556152344
1789453374290749000,10.9067490234375,0.4996024966239929,0.021388638764619827,1.0805915594100952
1789453374300690000,10.91668994140625,0.5496439337730408,0.010610507801175117,1.0896897315979004
1789453374310631000,10.926630859375,0.6267715096473694,0.04553067311644554,1.0747236013412476
1789453374320572000,10.936572021484375,0.7201418280601501,0.07246333360671997,1.0648350715637207
1789453374330512600,10.9465126953125,0.7984272837638855,0.11071884632110596,1.064136266708374
1789453374340454000,10.956453857421875,0.8372639417648315,0.14969953894615173,1.0642260313034058
1789453374350394600,10.96639453125,0.8384458422660828,0.17000827193260193,1.0932645797729492
1789453374360336000,10.9763359375,0.8495242595672607,0.15814438462257385,1.1302480697631836
1789453374370276900,10.98627685546875,0.8552660346031189,0.11052493005990982,1.1455035209655762
1789453374380217900,10.9962177734375,0.8418627977371216,0.10311530530452728,1.165120005607605
1789453374390158800,11.006158935546875,0.8309640884399414,0.12361551821231842,1.192699909210205
1789453374400099800,11.016099853515625,0.8410453200340271,0.10425236076116562,1.2203303575515747
1789453374410040800,11.026040771484375,0.8394455909729004,0.04372163861989975,1.2249996662139893
1789453374419981800,11.03598193359375,0.8365021347999573,-0.07971255481243134,1.2321242094039917
1789453374429922800,11.0459228515625,0.8267307877540588,-0.17541910707950592,1.2172887325286865
1789453374439863800,11.05586376953125,0.8004617691040039,-0.3036766052246094,1.227170705795288
1789453374449804800,11.0658046875,0.7784256935119629,-0.3630046546459198,1.204910159111023
1789453374459745800,11.075745849609374,0.7237740755081177,-0.40477558970451355,1.1764259338378906
1789453374469686800,11.085686767578125,0.7367825508117676,-0.39296847581863403,1.139029860496521
1789453374479627000,11.095626953125,0.743728518486023,-0.4163088798522949,1.1474965810775757
1789453374489567700,11.105567626953125,0.7227044701576233,-0.3814888596534729,1.1458531618118286
1789453374499508700,11.1155087890625,0.6663772463798523,-0.36133697628974915,1.1171187162399292
1789453374509449700,11.12544970703125,0.5909501314163208,-0.3394964039325714,1.108174443244934
1789453374519390700,11.135390625,0.5825382471084595,-0.2898606061935425,1.0655972957611084
1789453374529332000,11.14533203125,0.5456774234771729,-0.3206115961074829,1.0559183359146118
1789453374539272700,11.155272705078126,0.5699155330657959,-0.37369805574417114,1.0785928964614868
1789453374549214000,11.1652138671875,0.5497421026229858,-0.3292674720287323,1.0658451318740845
1789453374559154700,11.17515478515625,0.4845271706581116,-0.2379043847322464,1.0921552181243896
1789453374569096000,11.185095947265625,0.46927204728126526,-0.24152548611164093,1.1268677711486816
1789453374579036700,11.19503662109375,0.504325807094574,-0.3526543378829956,1.168418288230896
1789453374588978000,11.20497802734375,0.5069937109947205,-0.29851600527763367,1.118344783782959
1789453374598919000,11.2149189453125,0.4625338613986969,-0.2343461811542511,1.084639072418213
1789453374608860000,11.22485986328125,0.3881776034832001,-0.25353187322616577,1.0795077085494995
1789453374618801000,11.23480078125,0.2937197983264923,-0.22417493164539337,1.0548374652862549
1789453374628741600,11.24474169921875,0.22183042764663696,-0.1620902568101883,1.0129027366638184
1789453374638683000,11.254682861328124,0.19048872590065002,-0.16790303587913513,0.9702165722846985
1789453374648623900,11.264623779296874,0.1939588189125061,-0.14555326104164124,0.9163045883178711
1789453374658564900,11.27456494140625,0.19824934005737305,-0.15241888165473938,0.8739016056060791
1789453374668505900,11.284505859375,0.1669851690530777,-0.10854516923427582,0.7958629727363586
1789453374678446800,11.29444677734375,0.11475557833909988,-0.013842861168086529,0.7233372330665588
1789453374688387800,11.304387939453125,0.11196378618478775,0.06169717013835907,0.6977112293243408
1789453374698327800,11.314327880859375,0.07077711820602417,0.08805491775274277,0.6692273616790771
1789453374708268800,11.324268798828125,0.05734439939260483,0.10394147038459778,0.6142669320106506
1789453374718209800,11.334209716796876,0.042547404766082764,0.06416451185941696,0.5274565815925598
1789453374728150800,11.34415087890625,-0.034712228924036026,0.03559465333819389,0.4201701283454895
1789453374738092000,11.354092041015624,-0.08358077704906464,0.025961287319660187,0.2897728383541107
1789453374748032800,11.36403271484375,-0.11717735230922699,0.02922179363667965,0.16021402180194855
1789453374757974000,11.37397412109375,-0.15209373831748962,0.019563160836696625,0.061040040105581284
1789453374767915000,11.3839150390625,-0.19766122102737427,0.007869753986597061,-0.007344610057771206
1789453374777856000,11.39385595703125,-0.25930821895599365,-0.02262754738330841,-0.059116363525390625
1789453374787797000,11.403796875,-0.3141656219959259,-0.04873744398355484,-0.10222548991441727
1789453374797737700,11.41373779296875,-0.3601476848125458,-0.04646788537502289,-0.15382881462574005
1789453374807679000,11.423678955078126,-0.33409637212753296,0.030101723968982697,-0.20782865583896637
1789453374817620000,11.433619873046876,-0.42363807559013367,0.09700851142406464,-0.2683168649673462
1789453374827561000,11.44356103515625,-0.41858580708503723,0.14689697325229645,-0.3307141959667206
1789453374837502000,11.453501953125,-0.4154350161552429,0.20231115818023682,-0.38323813676834106
1789453374847443000,11.46344287109375,-0.4382324814796448,0.24245084822177887,-0.4156767725944519
1789453374857384000,11.473384033203125,-0.4433562159538269,0.27608388662338257,-0.41866397857666016
1789453374867325200,11.4833251953125,-0.4638929069042206,0.25225260853767395,-0.4143635034561157
1789453374877266000,11.493265869140625,-0.4490577280521393,0.18991655111312866,-0.40898117423057556
1789453374887207000,11.50320703125,-0.42921850085258484,0.13317656517028809,-0.41338151693344116
1789453374897148000,11.51314794921875,-0.4129500091075897,0.08796078711748123,-0.4299123287200928
1789453374907089000,11.5230888671875,-0.378595232963562,0.10600823163986206,-0.46424686908721924
1789453374917030000,11.53302978515625,-0.3351716101169586,0.12128429114818573,-0.49390044808387756
1789453374926970000,11.54297021484375,-0.29689985513687134,0.15807026624679565,-0.5165037512779236
1789453374936910800,11.552910888671875,-0.27061349153518677,0.19993527233600616,-0.5574417114257812
1789453374946852000,11.56285205078125,-0.27240872383117676,0.266544908285141,-0.590403139591217
1789453374956793000,11.57279296875,-0.24475418031215668,0.32341450452804565,-0.6070143580436707
1789453374966733800,11.58273388671875,-0.2052381932735443,0.3554118573665619,-0.5986635088920593
1789453374976675000,11.592675048828125,-0.1941407024860382,0.39547669887542725,-0.6368504166603088
1789453374986615800,11.60261572265625,-0.17852739989757538,0.36477231979370117,-0.6814610362052917
1789453374996557000,11.61255712890625,-0.16727162897586823,0.3457716405391693,-0.7065109014511108
1789453375006497800,11.622497802734374,-0.21096503734588623,0.38181325793266296,-0.727336585521698
1789453375016439000,11.63243896484375,-0.20718903839588165,0.4151822030544281,-0.7728618383407593
1789453375026380000,11.642380126953125,-0.2007303386926651,0.39956381916999817,-0.8059239387512207
1789453375036321000,11.652321044921875,-0.19511090219020844,0.35126638412475586,-0.850598156452179
1789453375046262000,11.662261962890625,-0.18506039679050446,0.26455116271972656,-0.8824641704559326
1789453375056203000,11.672203125,-0.20245195925235748,0.22574631869792938,-0.8887902498245239
1789453375066144000,11.68214404296875,-0.21710307896137238,0.2556389570236206,-0.8955810070037842
1789453375076084700,11.692084716796876,-0.22145922482013702,0.2784423828125,-0.9128891229629517
1789453375086026000,11.70202587890625,-0.2308998703956604,0.2738500237464905,-0.967107355594635
1789453375095967000,11.711967041015624,-0.2524440884590149,0.26377469301223755,-1.0180721282958984
1789453375105908000,11.721907958984374,-0.269959956407547,0.25630560517311096,-1.0461070537567139
1789453375115849000,11.731848876953125,-0.27738267183303833,0.2711693048477173,-1.0614235401153564
1789453375125790000,11.7417900390625,-0.3165607154369354,0.3044356405735016,-1.08284330368042
1789453375135730000,11.75172998046875,-0.3624063730239868,0.35590848326683044,-1.0803812742233276
1789453375145671000,11.7616708984375,-0.3504575788974762,0.3522482216358185,-1.0544612407684326
1789453375155612000,11.77161181640625,-0.3532780110836029,0.3141270875930786,-1.0638742446899414
1789453375165553000,11.781552978515625,-0.3256690204143524,0.21125715970993042,-1.0713932514190674
1789453375175494000,11.791493896484376,-0.30158111453056335,0.13165965676307678,-1.0879262685775757
1789453375185435100,11.80143505859375,-0.27953147888183594,0.06896272301673889,-1.074622392654419
1789453375195375900,11.8113759765625,-0.27740785479545593,0.02316657267510891,-1.062370777130127
1789453375205317000,11.821317138671875,-0.2753790616989136,0.021260015666484833,-1.0328967571258545
1789453375215257900,11.8312578125,-0.3017253875732422,0.08023197948932648,-1.0020062923431396
1789453375225199000,11.84119921875,-0.3231438398361206,0.0847202017903328,-1.0204848051071167
1789453375235139800,11.851139892578125,-0.3640099763870239,0.04077710211277008,-1.0634347200393677
1789453375245080800,11.861080810546875,-0.4209933876991272,0.00582977244630456,-1.044582724571228
1789453375255022000,11.87102197265625,-0.44111645221710205,-0.05051679536700249,-1.0701370239257812
1789453375264962800,11.880962890625,-0.47153374552726746,-0.06305176764726639,-1.0794124603271484
1789453375274904000,11.890904052734374,-0.46558520197868347,-0.06323733925819397,-1.0422570705413818
1789453375284844800,11.9008447265625,-0.42412909865379333,-0.15736277401447296,-1.03492271900177
1789453375294786000,11.9107861328125,-0.39244893193244934,-0.21203011274337769,-0.9953202605247498
1789453375304726800,11.920726806640625,-0.41531428694725037,-0.17597676813602448,-0.9450259804725647
1789453375314668000,11.93066796875,-0.3697742223739624,-0.2541218400001526,-1.047438144683838
1789453375324609000,11.940609130859375,-0.32099682092666626,-0.3565158545970917,-1.0863150358200073
1789453375334550000,11.950550048828125,-0.3474017083644867,-0.34856224060058594,-1.0785932540893555
1789453375344491000,11.960490966796876,-0.3403094410896301,-0.4138762652873993,-1.1145238876342773
1789453375354431000,11.970430908203125,-0.39654263854026794,-0.3949245810508728,-1.125118374824524
1789453375364372000,11.9803720703125,-0.4114387631416321,-0.38519737124443054,-1.198341965675354
1789453375374313000,11.99031298828125,-0.3710019290447235,-0.516583263874054,-1.232338309288025
1789453375384254000,12.00025390625,-0.30251553654670715,-0.6197155117988586,-1.2465933561325073
1789453375394195000,12.01019482421875,-0.2714167535305023,-0.6199221014976501,-1.2392882108688354
1789453375404136000,12.020135986328125,-0.2867285907268524,-0.45587190985679626,-1.2013357877731323
1789453375414077000,12.030076904296875,-0.2750139534473419,-0.4026932120323181,-1.1445295810699463
1789453375424018000,12.040017822265625,-0.2388889491558075,-0.3515815734863281,-1.033670425415039
1789453375433959000,12.049958984375,-0.21773307025432587,-0.24642053246498108,-0.9578486084938049
1789453375443900000,12.05989990234375,-0.22984619438648224,-0.1473964899778366,-0.9272310137748718
1789453375453841000,12.0698408203125,-0.2598932087421417,-0.1711072474718094,-0.9060761332511902
1789453375463782000,12.079781982421874,-0.3360407054424286,-0.06569746881723404,-0.8463137149810791
1789453375473723000,12.089722900390624,-0.3669573962688446,0.03897324576973915,-0.793830394744873
1789453375483664100,12.0996640625,-0.35401761531829834,0.09002604335546494,-0.7325590252876282
1789453375493604900,12.10960498046875,-0.3279954493045807,0.1208609938621521,-0.6115990281105042
1789453375503546000,12.119546142578125,-0.2809866666793823,0.19526970386505127,-0.46657130122184753
1789453375513486800,12.12948681640625,-0.2346610277891159,0.21586866676807404,-0.3149150013923645
1789453375523427800,12.139427734375,-0.17288555204868317,0.2521235942840576,-0.22013577818870544
1789453375533369000,12.149369140625,-0.12517739832401276,0.25031617283821106,-0.16756270825862885
1789453375543309800,12.159309814453126,-0.15832602977752686,0.29961180686950684,-0.08690647780895233
1789453375553251000,12.1692509765625,-0.2039726972579956,0.32075273990631104,0.040368568152189255
1789453375563191000,12.17919091796875,-0.1983124017715454,0.2786007523536682,0.1597634106874466
1789453375573132000,12.189132080078124,-0.19857732951641083,0.26069870591163635,0.20118190348148346
1789453375583073000,12.199072998046875,-0.1933910995721817,0.31471559405326843,0.22385552525520325
1789453375593014000,12.209013916015625,-0.17061680555343628,0.30170339345932007,0.2631765604019165
1789453375602954800,12.218954833984375,-0.15684719383716583,0.22550185024738312,0.285587340593338
1789453375612896000,12.22889599609375,-0.14818190038204193,0.20554843544960022,0.33413752913475037
1789453375622837000,12.2388369140625,-0.15056195855140686,0.14858049154281616,0.3976137042045593
1789453375632778000,12.248778076171876,-0.12812495231628418,0.1183977723121643,0.4809189736843109
1789453375642719000,12.258718994140626,-0.06909972429275513,0.08464779704809189,0.5572430491447449
1789453375652660000,12.268659912109374,-0.022714167833328247,0.05004213750362396,0.6233877539634705
1789453375662601000,12.27860107421875,0.024401146918535233,0.03486078977584839,0.7075878381729126
1789453375672542000,12.2885419921875,0.10289409756660461,-0.04794924333691597,0.7753886580467224
1789453375682483000,12.29848291015625,0.193552628159523,-0.0800296813249588,0.8097386360168457
1789453375692424000,12.308423828125,0.2807055413722992,-0.0902964323759079,0.8581419587135315
1789453375702365000,12.318364990234375,0.3909982144832611,-0.10708819329738617,0.9309272170066833
1789453375712306000,12.328305908203125,0.46628138422966003,-0.09007736295461655,0.9973376989364624
