time,seconds_elapsed,z,y,x
1789402384585691000,0.08169091796875,0.46608981490135193,0.06291907280683517,0.28206682205200195
1789402384595617300,0.0916171875,0.5015199780464172,0.060322895646095276,0.29993459582328796
1789402384605543700,0.101543701171875,0.5149590373039246,-0.020922118797898293,0.3488037884235382
1789402384615469800,0.1114697265625,0.4831940531730652,-0.1455385386943817,0.43432486057281494
1789402384625396200,0.121396240234375,0.41416633129119873,-0.2597702443599701,0.5247328281402588
1789402384635322600,0.131322509765625,0.34697118401527405,-0.2964221239089966,0.5925388336181641
1789402384645249000,0.1412490234375,0.2877173125743866,-0.23594652116298676,0.6194168925285339
1789402384655175400,0.151175537109375,0.2510654330253601,-0.11927134543657303,0.5858193039894104
1789402384665101800,0.161101806640625,0.2260199636220932,0.024892739951610565,0.48930269479751587
1789402384675028000,0.171028076171875,0.20402882993221283,0.14462223649024963,0.3707949221134186
1789402384684954400,0.180954345703125,0.18081597983837128,0.20509785413742065,0.258395791053772
1789402384694880800,0.190880859375,0.15027274191379547,0.20448698103427887,0.15515965223312378
1789402384704807000,0.200806884765625,0.12767073512077332,0.17516547441482544,0.06414080411195755
1789402384714733300,0.2107333984375,0.10873392969369888,0.13790272176265717,-0.006719512399286032
1789402384724659700,0.22065966796875,0.10506874322891235,0.09392046183347702,-0.059864748269319534
1789402384734585900,0.2305859375,0.11423171311616898,0.07009673118591309,-0.09346231073141098
1789402384744512300,0.24051220703125,0.1331685185432434,0.046883873641490936,-0.10629047453403473
1789402384754438700,0.250438720703125,0.16310089826583862,0.02306014485657215,-0.09529490768909454
1789402384764365000,0.260364990234375,0.2009745091199875,0.010842849500477314,-0.06352993845939636
1789402384774291500,0.27029150390625,0.24251331388950348,0.015729768201708794,-0.009773836471140385
1789402384784217900,0.2802177734375,0.2877173125743866,0.02977965772151947,0.05742128938436508
1789402384794144000,0.29014404296875,0.328645259141922,0.027947064489126205,0.11972949653863907
1789402384804070400,0.3000703125,0.36712974309921265,-0.0154243353754282,0.17043127119541168
1789402384813996800,0.309996826171875,0.4013381600379944,-0.0899498388171196,0.21746785938739777
1789402384823923000,0.3199228515625,0.42271843552589417,-0.19868376851081848,0.2419024556875229
1789402384833849300,0.329849365234375,0.4477638900279999,-0.2842048406600952,0.24006985127925873
1789402384843775700,0.339775634765625,0.4819723069667816,-0.3116937577724457,0.2260199636220932
1789402384853702100,0.3497021484375,0.5149590373039246,-0.27626359462738037,0.2162461280822754
1789402384863628300,0.359628173828125,0.5503891706466675,-0.18890993297100067,0.2211330533027649
1789402384873554700,0.3695546875,0.5962040424346924,-0.06123919412493706,0.24801109731197357
1789402384883481000,0.379481201171875,0.657290518283844,0.0694858655333519,0.29626941680908203
1789402384893407500,0.389407470703125,0.6963858604431152,0.14462223649024963,0.35735589265823364
1789402384903334000,0.399333984375,0.7141009569168091,0.1568395346403122,0.4251618981361389
1789402384913260000,0.409260009765625,0.7128791809082031,0.1055268943309784,0.47586366534233093
1789402384923186400,0.4191865234375,0.7018836140632629,0.00045814859913662076,0.49968740344047546
1789402384933112800,0.42911279296875,0.6902772188186646,-0.11499529331922531,0.4923570156097412
1789402384943039200,0.439039306640625,0.6737838387489319,-0.22983787953853607,0.44470956921577454
1789402384952965400,0.44896533203125,0.6646208763122559,-0.33429574966430664,0.36163195967674255
1789402384962891800,0.458891845703125,0.6621774435043335,-0.40698865056037903,0.2632827162742615
1789402384972818200,0.468818115234375,0.6615665555000305,-0.4344775676727295,0.17715078592300415
1789402384982744300,0.478744384765625,0.6633991599082947,-0.4326449930667877,0.11117739230394363
1789402384992670700,0.488670654296875,0.6609556674957275,-0.40088000893592834,0.06352993845939636
1789402385002597000,0.49859716796875,0.6548470258712769,-0.35384342074394226,0.021991131827235222
1789402385012523500,0.5085234375,0.6591231226921082,-0.3153589367866516,-0.004886918235570192
1789402385022450000,0.518449951171875,0.6615665555000305,-0.2597702443599701,0.010995565913617611
1789402385032376000,0.5283759765625,0.6609556674957275,-0.18280129134655,0.06780599057674408
1789402385042302500,0.538302490234375,0.6652317643165588,-0.07773254066705704,0.1588248461484909
1789402385052228900,0.548228759765625,0.6737838387489319,0.002901607658714056,0.2626718580722809
1789402385062155300,0.5581552734375,0.6847794055938721,0.02306014485657215,0.3591884970664978
1789402385072081400,0.568081298828125,0.7006618976593018,-0.0154243353754282,0.4324922561645508
1789402385082007800,0.5780078125,0.7232639193534851,-0.0899498388171196,0.4783071279525757
1789402385091934200,0.587934326171875,0.7525854110717773,-0.15225805342197418,0.5057960152626038
1789402385101860400,0.5978603515625,0.7849612236022949,-0.18096868693828583,0.5198459029197693
1789402385111786800,0.607786865234375,0.8087849617004395,-0.16569706797599792,0.5308414697647095
1789402385121713200,0.617713134765625,0.8222240209579468,-0.12476912885904312,0.5393936038017273
1789402385131639600,0.6276396484375,0.8014546036720276,-0.0746782198548317,0.5381718873977661
1789402385141566000,0.63756591796875,0.7452550530433655,-0.03497200831770897,0.5070177912712097
1789402385151492400,0.647492431640625,0.6774490475654602,-0.006872228812426329,0.4465421438217163
1789402385161418500,0.65741845703125,0.6096430420875549,-0.02214384824037552,0.35246896743774414
1789402385171345000,0.667344970703125,0.535728394985199,-0.07162389904260635,0.22235478460788727
1789402385181271300,0.677271240234375,0.472198486328125,-0.1107192412018776,0.06719512492418289
1789402385191197400,0.687197509765625,0.43921178579330444,-0.10155627131462097,-0.08857539296150208
1789402385201123800,0.697123779296875,0.4404335021972656,-0.03130681812763214,-0.20647229254245758
1789402385211050200,0.70705029296875,0.45937031507492065,0.06215549260377884,-0.2565632164478302
1789402385220976400,0.716976318359375,0.48563748598098755,0.15806126594543457,-0.2254091054201126
1789402385230902800,0.72690283203125,0.5186241865158081,0.25702136754989624,-0.12644900381565094
1789402385240829200,0.7368291015625,0.5381718873977661,0.33948808908462524,0.006108647678047419
1789402385250755600,0.746755615234375,0.5436696410179138,0.3730856776237488,0.13072505593299866
1789402385260682000,0.756681884765625,0.5424479246139526,0.3620901107788086,0.22174391150474548
1789402385270608400,0.7666083984375,0.5296197533607483,0.2997818887233734,0.2614501118659973
1789402385280534500,0.776534423828125,0.5082395076751709,0.19410228729248047,0.2419024556875229
1789402385290461000,0.7864609375,0.49602219462394714,0.10613775253295898,0.18203771114349365
1789402385300387300,0.79638720703125,0.4929678738117218,0.05604684352874756,0.10384701192378998
1789402385310313500,0.8063134765625,0.4923570156097412,0.031001387163996696,0.03237583488225937
1789402385320239900,0.816239990234375,0.49602219462394714,0.03894263133406639,-0.010384701192378998
1789402385330166300,0.826166259765625,0.5064069032669067,0.07803797721862793,-0.0030543238390237093
1789402385340092700,0.8360927734375,0.5192350745201111,0.1617264449596405,0.06108647957444191
1789402385350018800,0.846018798828125,0.5180133581161499,0.25641047954559326,0.15760311484336853
1789402385359945200,0.8559453125,0.4917461574077606,0.31261005997657776,0.2516762912273407
1789402385369871600,0.86587158203125,0.44959646463394165,0.3217730224132538,0.3139844834804535
1789402385379798000,0.875798095703125,0.38667741417884827,0.2955058515071869,0.3182605504989624
1789402385389724400,0.885724365234375,0.3072649836540222,0.23686282336711884,0.2663370370864868
1789402385399650600,0.895650634765625,0.23212862014770508,0.15867212414741516,0.16798780858516693
1789402385409577000,0.905576904296875,0.18814635276794434,0.11102467030286789,0.06108647957444191
1789402385419503400,0.91550341796875,0.1899789422750473,0.1611155867576599,-0.03481929376721382
1789402385429429500,0.925429443359375,0.22907429933547974,0.2753472924232483,-0.11056652665138245
1789402385439356000,0.93535595703125,0.2981020212173462,0.39996370673179626,-0.14660754799842834
1789402385449282300,0.9452822265625,0.3952295184135437,0.4653262495994568,-0.15210533142089844
1789402385459208700,0.955208740234375,0.4886918365955353,0.4298960864543915,-0.17104214429855347
1789402385469135000,0.965135009765625,0.5705476999282837,0.3565923273563385,-0.21135921776294708
1789402385479061500,0.9750615234375,0.6407971382141113,0.2533561587333679,-0.24373504519462585
1789402385488987600,0.984987548828125,0.6817250847816467,0.024281874299049377,-0.28038692474365234
1789402385498914000,0.9949140625,0.6957749724388123,-0.2805396616458893,-0.31520622968673706
1789402385508840400,1.00484033203125,0.7342594861984253,-0.5645917654037476,-0.3298669755458832
1789402385518766600,1.0147666015625,0.8167262077331543,-0.7191405892372131,-0.29016077518463135
1789402385528693000,1.02469287109375,0.8723149299621582,-0.6794343590736389,-0.19730933010578156
1789402385538619400,1.034619384765625,0.8668171167373657,-0.490066260099411,-0.08307760953903198
1789402385548545800,1.0445458984375,0.8478803038597107,-0.23044873774051666,0.05192350596189499
1789402385558472000,1.054471923828125,0.8252783417701721,0.11224640160799026,0.18081597983837128
1789402385568398300,1.0643984375,0.8350521326065063,0.4433351159095764,0.3243691921234131
1789402385578324700,1.07432470703125,1.2449424266815186,0.8202387094497681,0.685390293598175
1789402385588251100,1.084251220703125,1.6548327207565308,1.3321434259414673,1.0702351331710815
1789402385598177500,1.094177490234375,1.6212351322174072,1.512959361076355,1.285259485244751
1789402385608103700,1.104103759765625,1.3017528057098389,1.3907864093780518,1.2467750310897827
1789402385618030000,1.114030029296875,0.8436042666435242,1.1433861255645752,1.0293071269989014
1789402385627956500,1.12395654296875,0.5516108870506287,0.753043532371521,0.8735366463661194
1789402385637882600,1.133882568359375,0.5259546041488647,0.47693267464637756,0.7806851863861084
1789402385647809000,1.14380908203125,0.6169734001159668,0.3969093859195709,0.7098248600959778
1789402385657735400,1.1537353515625,0.720820426940918,0.43722647428512573,0.6255255341529846
1789402385667661800,1.163661865234375,0.7904590368270874,0.49342602491378784,0.5174024701118469
1789402385677588200,1.173588134765625,0.8081740736961365,0.48853909969329834,0.4111120104789734
1789402385687514600,1.1835146484375,0.7965676784515381,0.3969093859195709,0.3121519088745117
1789402385697440800,1.193440673828125,0.7745765447616577,0.2655734717845917,0.2156352698802948
1789402385707367200,1.2033671875,0.7635809779167175,0.13790272176265717,0.11545344442129135
1789402385717293600,1.21329345703125,0.7281508445739746,0.013897174037992954,0.009773836471140385
1789402385727219700,1.2232197265625,0.6524035930633545,-0.12354740500450134,-0.08674279600381851
1789402385737146000,1.23314599609375,0.5809323787689209,-0.24510949850082397,-0.13500112295150757
1789402385747072500,1.243072509765625,0.5296197533607483,-0.3361283540725708,-0.1081230640411377
1789402385756999000,1.2529990234375,0.5106829404830933,-0.3672824501991272,-0.008552107028663158
1789402385766925300,1.26292529296875,0.5180133581161499,-0.28848087787628174,0.1337793916463852
1789402385776851500,1.2728515625,0.5338957905769348,-0.1406516134738922,0.27488914132118225
1789402385786777900,1.28277783203125,0.5320632457733154,-0.017867794260382652,0.39889469742774963
1789402385796704300,1.292704345703125,0.5070177912712097,0.0487164668738842,0.4984656572341919
1789402385806630700,1.302630615234375,0.4783071279525757,0.025503603741526604,0.5522217750549316
1789402385816557000,1.31255712890625,0.4618137776851654,-0.0691804364323616,0.5510000586509705
1789402385826483200,1.322483154296875,0.4612029194831848,-0.16447533667087555,0.5125155448913574
1789402385836409600,1.33240966796875,0.4612029194831848,-0.21517711877822876,0.47097674012184143
1789402385846336000,1.3423359375,0.43982264399528503,-0.09117157012224197,0.4367683231830597
1789402385856262400,1.352262451171875,0.37812530994415283,0.017562363296747208,0.40317076444625854
1789402385866188800,1.362188720703125,0.3066541254520416,-0.0019853105768561363,0.360410213470459
1789402385876115000,1.372114990234375,0.25900667905807495,0.03955349326133728,0.3298669755458832
1789402385886041300,1.382041259765625,0.21258094906806946,-0.005650499369949102,0.29016077518463135
1789402385895967700,1.3919677734375,0.19303326308727264,-0.07101303339004517,0.23884813487529755
1789402385905894100,1.40189404296875,0.21502439677715302,-0.141262486577034,0.1539379209280014
1789402385915820500,1.411820556640625,0.26450446248054504,-0.20601414144039154,0.028099779039621353
1789402385925746700,1.42174658203125,0.30543237924575806,-0.2536616027355194,-0.12583814561367035
1789402385935673000,1.431673095703125,0.32070401310920715,-0.31230461597442627,-0.2919933497905731
1789402385945599500,1.441599609375,0.31459537148475647,-0.41065385937690735,-0.4508182108402252
1789402385955526000,1.45152587890625,0.31642794609069824,-0.5438223481178284,-0.5925388336181641
1789402385965452000,1.4614521484375,0.3439168632030487,-0.6549997329711914,-0.695164144039154
1789402385975378400,1.47137841796875,0.41905322670936584,-0.6696605086326599,-0.7195987105369568
1789402385985304800,1.481304931640625,0.5064069032669067,-0.5914698243141174,-0.6695078015327454
1789402385995231200,1.491231201171875,0.5681042671203613,-0.5175551772117615,-0.5601630210876465
1789402386005157600,1.50115771484375,0.5968148708343506,-0.4436405599117279,-0.38179048895835876
1789402386015083800,1.511083740234375,0.5992583632469177,-0.3422369956970215,-0.16126830875873566
1789402386025010200,1.52101025390625,0.5882627964019775,-0.24755294620990753,0.06230820715427399
1789402386034936600,1.5309365234375,0.565049946308136,-0.162031888961792,0.2620609998703003
1789402386044863000,1.540863037109375,0.5296197533607483,-0.1363755613565445,0.39339691400527954
1789402386054789400,1.550789306640625,0.4929678738117218,-0.162031888961792,0.4416552484035492
1789402386064715800,1.5607158203125,0.4471530318260193,-0.16752967238426208,0.4111120104789734
1789402386074642000,1.570641845703125,0.40744680166244507,-0.1308777779340744,0.3029889166355133
1789402386084568300,1.580568359375,0.39400777220726013,-0.10338886082172394,0.1380554437637329
1789402386094494700,1.59049462890625,0.40927940607070923,-0.1003345400094986,-0.05070177838206291
1789402386104421000,1.600421142578125,0.45509424805641174,-0.06368265300989151,-0.22968515753746033
1789402386114347500,1.610347412109375,0.5125155448913574,0.034666575491428375,-0.3811796307563782
1789402386124273700,1.620273681640625,0.546113133430481,0.12263110280036926,-0.5241219997406006
1789402386134200000,1.630199951171875,0.5589412450790405,0.21609342098236084,-0.6261364221572876
1789402386144126500,1.64012646484375,0.5528326034545898,0.3455967605113983,-0.6609556674957275
1789402386154052900,1.650052978515625,0.5332849621772766,0.4488328993320465,-0.6432406306266785
1789402386163979300,1.659979248046875,0.5161807537078857,0.49220430850982666,-0.583375871181488
1789402386173905700,1.66990576171875,0.5149590373039246,0.5123628377914429,-0.4990765154361725
1789402386183831800,1.679831787109375,0.5271763205528259,0.5019781589508057,-0.41294458508491516
1789402386193758200,1.68975830078125,0.5479456782341003,0.4897608458995819,-0.33108872175216675
1789402386203684600,1.6996845703125,0.565049946308136,0.4488328993320465,-0.2565632164478302
1789402386213611000,1.709611083984375,0.5754346251487732,0.37369653582572937,-0.17531819641590118
1789402386223537400,1.719537353515625,0.5827649831771851,0.310166597366333,-0.043371398001909256
1789402386233463800,1.7294638671875,0.5760455131530762,0.2735147178173065,0.143553227186203
1789402386243390000,1.739389892578125,0.56382817029953,0.268627792596817,0.34697118401527405
1789402386253316400,1.74931640625,0.5510000586509705,0.29184064269065857,0.5247328281402588
1789402386263242800,1.75924267578125,0.5271763205528259,0.29367324709892273,0.6371319890022278
1789402386273169200,1.769169189453125,0.5283980369567871,0.24541492760181427,0.6676751971244812
1789402386283095600,1.779095458984375,0.555276095867157,0.145843967795372,0.6065887212753296
1789402386293021700,1.789021728515625,0.5699368119239807,0.004123337101191282,0.48075059056282043
1789402386302948000,1.798947998046875,0.56382817029953,-0.1516471803188324,0.32681265473365784
1789402386312874500,1.80887451171875,0.5479456782341003,-0.25182899832725525,0.18081597983837128
1789402386322801000,1.81880078125,0.5314523577690125,-0.2756527364253998,0.08124501258134842
1789402386332727300,1.828727294921875,0.5161807537078857,-0.21639885008335114,0.05558869615197182
1789402386342653700,1.83865380859375,0.5045742988586426,-0.09911280870437622,0.0977383628487587
1789402386352579800,1.848579833984375,0.5021308660507202,0.04199695214629173,0.1893680840730667
1789402386362506200,1.85850634765625,0.5064069032669067,0.1922696828842163,0.2877173125743866
1789402386372432600,1.8684326171875,0.5174024701118469,0.310166597366333,0.3585776388645172
1789402386382359000,1.878359130859375,0.5283980369567871,0.37491825222969055,0.39889469742774963
1789402386392285400,1.888285400390625,0.536339282989502,0.3822486400604248,0.4251618981361389
1789402386402211600,1.898211669921875,0.5308414697647095,0.3584249019622803,0.462424635887146
1789402386412138000,1.908137939453125,0.4929678738117218,0.38469210267066956,0.5222893953323364
1789402386422064400,1.918064453125,0.43371400237083435,0.46166107058525085,0.5821541547775269
1789402386431990800,1.92799072265625,0.36224281787872314,0.5258018374443054,0.6200277805328369
1789402386441917200,1.937917236328125,0.27000224590301514,0.5539016127586365,0.6151408553123474
1789402386451843600,1.947843505859375,0.185092031955719,0.5502364635467529,0.5198459029197693
1789402386461769700,1.957769775390625,0.13011419773101807,0.4793761372566223,0.30604326725006104
1789402386471696100,1.967696044921875,0.10201441496610641,0.33337944746017456,0.017104214057326317
1789402386481622500,1.97762255859375,0.08429934084415436,0.1568395346403122,-0.2877173125743866
1789402386491549000,1.987548828125,0.0513126403093338,0.006566796451807022,-0.5870410799980164
1789402386501475300,1.997475341796875,-0.009162971749901772,-0.13698641955852509,-0.8558215498924255
1789402386511401700,2.007401611328125,-0.06230820715427399,-0.18402300775051117,-0.9865466356277466
1789402386521328000,2.017328125,-0.059864748269319534,0.0102319847792387,-0.8765909671783447
1789402386531254500,2.027254638671875,-0.025045456364750862,0.3675878942012787,-0.5723803043365479
1789402386541180700,2.0371806640625,0.023212861269712448,0.6583595275878906,-0.2107483446598053
1789402386551107000,2.047107177734375,0.07269290834665298,0.754265308380127,0.11178825795650482
1789402386561033500,2.057033447265625,0.12705987691879272,0.6730202436447144,0.3610210716724396
1789402386570960000,2.0669599609375,0.1954767256975174,0.4995346665382385,0.5510000586509705
1789402386580886300,2.07688623046875,0.28405213356018066,0.2942841053009033,0.7055488228797913
1789402386590812400,2.0868125,0.38179048895835876,0.1049160286784172,0.8429933786392212
1789402386600738800,2.09673876953125,0.4520399272441864,-0.03802633285522461,1.0018181800842285
1789402386610665200,2.106665283203125,0.4789179861545563,-0.18035782873630524,1.1673625707626343
1789402386620591600,2.116591552734375,0.4679224193096161,-0.28237223625183105,1.2895355224609375
1789402386630518000,2.12651806640625,0.41844236850738525,-0.2903134822845459,1.352454662322998
1789402386640444400,2.1364443359375,0.31581708788871765,-0.24327689409255981,1.3475676774978638
1789402386650370800,2.146370849609375,0.18570289015769958,-0.10399972647428513,1.2889246940612793
1789402386660297200,2.156297119140625,0.04459312930703163,0.05543597787618637,1.1655299663543701
1789402386670223400,2.166223388671875,-0.08368847519159317,0.08659008145332336,0.9822705388069153
1789402386680149800,2.176149658203125,-0.19608759880065918,-0.045967575162649155,0.7336485981941223
1789402386690076200,2.186076171875,-0.28527384996414185,-0.2756527364253998,0.4361574649810791
1789402386700002600,2.19600244140625,-0.34636032581329346,-0.540768027305603,0.12034036219120026
1789402386709929000,2.205928955078125,-0.3854556679725647,-0.74540776014328,-0.16737695038318634
1789402386719855400,2.21585546875,-0.3848448097705841,-0.7753401398658752,-0.35246896743774414
1789402386729781800,2.22578173828125,-0.30115634202957153,-0.5902481079101562,-0.37140578031539917
1789402386739708200,2.235708251953125,-0.15515965223312378,-0.3556760251522064,-0.21502439677715302
1789402386749634300,2.24563427734375,-0.03543015569448471,-0.26099199056625366,0.06963858753442764
1789402386759560700,2.255560791015625,0.0409279391169548,-0.3617846667766571,0.45387253165245056
1789402386769487000,2.265487060546875,0.07757982611656189,-0.5988001823425293,0.8429933786392212
1789402386779413500,2.27541357421875,0.07757982611656189,-0.8486438989639282,1.1239912509918213
1789402386789340000,2.28533984375,0.047036588191986084,-1.012966513633728,1.2999202013015747
1789402386799266300,2.295266357421875,0.020769402384757996,-1.0838267803192139,1.416595458984375
1789402386809192400,2.3051923828125,0.025045456364750862,-1.1265873908996582,1.5210533142089844
1789402386819119000,2.315119140625,0.0360410213470459,-1.2017236948013306,1.6395610570907593
1789402386829045200,2.325045166015625,0.03848448023200035,-1.3654354810714722,1.7745622396469116
1789402386838971600,2.3349716796875,0.014660755172371864,-1.539531946182251,1.9065089225769043
1789402386848898000,2.34489794921875,0.0054977829568088055,-1.6849178075790405,1.977980136871338
1789402386858824400,2.354824462890625,0.028099779039621353,-1.8376339673995972,1.9773693084716797
1789402386868750800,2.364750732421875,0.07147117704153061,-2.101527452468872,1.9327762126922607
1789402386878677200,2.37467724609375,0.42882707715034485,-2.5804455280303955,1.915061116218567
1789402386888603400,2.384603271484375,1.1410953998565674,-2.9860596656799316,2.0470077991485596
1789402386898529800,2.39452978515625,1.469740629196167,-3.2340707778930664,2.288910388946533
1789402386908456200,2.404456298828125,1.6713260412216187,-3.492466688156128,2.3542728424072266
1789402386918382600,2.414382568359375,2.215606451034546,-3.6427392959594727,2.1581852436065674
1789402386928309000,2.42430908203125,2.5613560676574707,-3.816225051879883,1.9578216075897217
1789402386938235400,2.4342353515625,2.7696609497070312,-4.21206521987915,1.7256929874420166
1789402386948161800,2.444161865234375,2.6254968643188477,-5.053225994110107,1.1966841220855713
1789402386958088000,2.454087890625,2.6358814239501953,-6.442943572998047,0.5962040424346924
1789402386968014300,2.464014404296875,2.8179192543029785,-6.168665409088135,-0.11911863088607788
1789402386977941000,2.47394091796875,2.9602506160736084,-5.820472240447998,-0.6096430420875549
1789402386987867100,2.4838671875,3.089754104614258,-5.444179534912109,-0.8747583627700806
1789402386997793500,2.49379345703125,3.327991247177124,-4.712974548339844,-1.0720677375793457
1789402387007720000,2.503719970703125,3.7678139209747314,-4.111883640289307,-0.9645555019378662
1789402387017646300,2.513646240234375,4.081798553466797,-3.91518497467041,-0.6554579138755798
1789402387027572700,2.52357275390625,4.116617679595947,-3.817446708679199,-0.3952295184135437
1789402387037499000,2.533498779296875,4.101346015930176,-3.8314967155456543,-0.31520622968673706
1789402387047425500,2.543425537109375,4.164265155792236,-4.046521186828613,-0.3842339515686035
1789402387057352000,2.55335205078125,4.247342586517334,-3.9695520401000977,-0.5662716627120972
1789402387067278000,2.563278076171875,4.316981315612793,-3.4888014793395996,-0.8436042666435242
1789402387077204500,2.57320458984375,4.199695587158203,-2.669020891189575,-1.1319323778152466
1789402387087131000,2.583130859375,3.973675489425659,-1.8626794815063477,-1.4306453466415405
1789402387097057300,2.593057373046875,3.8453938961029053,-1.1143701076507568,-1.6493349075317383
1789402387106983700,2.602983642578125,3.7507097721099854,-0.5988001823425293,-1.7550145387649536
1789402387116910000,2.61291015625,3.6175413131713867,-0.3263545036315918,-1.8197661638259888
1789402387126836500,2.62283642578125,3.5692830085754395,-0.38560840487480164,-1.7501275539398193
1789402387136762600,2.6327626953125,3.514915943145752,-0.892015278339386,-1.324354887008667
1789402387146689000,2.64268896484375,3.2033748626708984,-1.632994294166565,-0.667064368724823
1789402387156615400,2.652615478515625,2.7788238525390625,-2.0215041637420654,-0.2052505612373352
1789402387166541800,2.662541748046875,2.52042818069458,-1.842520833015442,-0.24434591829776764
1789402387176468200,2.67246826171875,2.450789451599121,-1.4619520902633667,-0.5540543794631958
1789402387186394600,2.68239453125,2.503934621810913,-0.8883501291275024,-0.943786084651947
1789402387196321000,2.692321044921875,2.579071044921875,-0.11866047978401184,-1.2675443887710571
1789402387206247400,2.702247314453125,2.5411975383758545,0.679739773273468,-1.342680811882019
1789402387216173600,2.712173583984375,2.294408082962036,1.2032508850097656,-1.1380411386489868
1789402387226100000,2.722099853515625,1.7360776662826538,1.2857176065444946,-0.675616443157196
1789402387236026400,2.7320263671875,1.0641264915466309,1.114675521850586,-0.1081230640411377
1789402387245952800,2.741952880859375,0.6212494969367981,1.0596976280212402,0.22174391150474548
1789402387255879200,2.751879150390625,0.20647229254245758,0.744491457939148,0.37140578031539917
1789402387265805600,2.7618056640625,-0.14172062277793884,0.342542439699173,0.32131487131118774
1789402387275732000,2.77173193359375,-0.40378162264823914,0.11896591633558273,0.05742128938436508
1789402387285658400,2.781658447265625,-0.6090322136878967,0.05177079141139984,-0.3274235129356384
1789402387295584500,2.79158447265625,-0.7513636946678162,-0.05635227635502815,-0.7696896195411682
1789402387305511000,2.801510986328125,-0.842382550239563,-0.21212279796600342,-1.1673625707626343
1789402387315437300,2.811437255859375,-0.7819069027900696,-0.3513999581336975,-1.3555089235305786
1789402387325363700,2.82136376953125,-0.7977893948554993,-0.2683223485946655,-1.3964369297027588
1789402387335290000,2.8312900390625,-0.8888082504272461,-0.07773254066705704,-1.331685185432434
1789402387345216500,2.841216552734375,-0.9749401807785034,-0.029474224895238876,-1.0787872076034546
1789402387355143000,2.851142822265625,-0.9663881063461304,0.028557928279042244,-0.8148936033248901
1789402387365069300,2.8610693359375,-0.9211840629577637,0.14950916171073914,-0.6890554428100586
1789402387374995500,2.870995361328125,-0.7929024696350098,0.07254019379615784,-0.6047561168670654
1789402387384921900,2.880921875,-0.6243038177490234,-0.38927358388900757,-0.3842339515686035
1789402387394848300,2.89084814453125,-0.37201663851737976,-0.8162680864334106,0.07819069176912308
1789402387404774700,2.900774658203125,-0.16859868168830872,-0.9402735829353333,0.42455101013183594
1789402387414701000,2.910701171875,-0.08124501258134842,-0.8956804871559143,0.6591231226921082
1789402387424627500,2.92062744140625,-0.01282816007733345,-0.8462004065513611,0.8545998334884644
1789402387434553900,2.930553955078125,0.1490510106086731,-0.633008599281311,0.9468404054641724
1789402387444480300,2.940480224609375,0.3347539007663727,-0.337350070476532,0.9657772183418274
1789402387454406400,2.950406494140625,0.4734202027320862,-0.15409064292907715,0.9492838382720947
1789402387464332000,2.96033203125,0.5479456782341003,-0.1980729103088379,0.9334014058113098
1789402387511342600,3.007342529296875,0.48563748598098755,-0.7392991185188293,1.1728603839874268
1789402387521269000,3.01726904296875,0.35613417625427246,-0.7600684762001038,1.0604612827301025
1789402387531195400,3.0271953125,0.19120067358016968,-0.7136427760124207,0.8148936033248901
1789402387541121800,3.037121826171875,-0.06902772188186646,-0.6024653911590576,0.42271843552589417
1789402387551048000,3.0470478515625,-0.29016077518463135,-0.5853611826896667,-0.034208428114652634
1789402387560974300,3.056974365234375,-0.19364413619041443,-0.5829176902770996,-0.3640754222869873
1789402387570900700,3.066900634765625,-0.2254091054201126,-0.2787070572376251,-0.6768381595611572
1789402387580827100,3.0768271484375,-0.30482152104377747,-0.1455385386943817,-0.8246674537658691
1789402387590753500,3.08675341796875,-0.33047783374786377,-0.10399972647428513,-0.8686497211456299
1789402387600680000,3.096679931640625,-0.3439168632030487,-0.11255183815956116,-0.7648026943206787
1789402387610606300,3.1066064453125,-0.36224281787872314,-0.16875138878822327,-0.564439058303833
1789402387620532700,3.11653271484375,-0.35246896743774414,-0.2652680277824402,-0.32620179653167725
1789402387630459000,3.126458984375,-0.32070401310920715,-0.388662725687027,-0.08674279600381851
1789402387640385300,3.13638525390625,-0.2779434621334076,-0.523052990436554,0.10995566099882126
1789402387650311700,3.146311767578125,-0.24251331388950348,-0.6073523163795471,0.2528980076313019
1789402387660238000,3.156238037109375,-0.22174391150474548,-0.6000219583511353,0.34208428859710693
1789402387670164500,3.16616455078125,-0.18631376326084137,-0.5291616320610046,0.39217519760131836
1789402387680091000,3.1760908203125,-0.11911863088607788,-0.4534143805503845,0.4276053309440613
1789402387690017300,3.186017333984375,-0.037262752652168274,-0.39477136731147766,0.4667007029056549
1789402387699943700,3.195943603515625,0.029932374134659767,-0.3422369956970215,0.5033525824546814
1789402387709869800,3.205869873046875,0.08124501258134842,-0.3043633699417114,0.5302306413650513
1789402387719796200,3.215796142578125,0.1496618688106537,-0.2835939824581146,0.5253437161445618
1789402387729722600,3.22572265625,0.24862197041511536,-0.2860374450683594,0.4373791813850403
1789402387739649000,3.23564892578125,0.4013381600379944,-0.3459021747112274,0.24801109731197357
1789402387749575400,3.245575439453125,0.5174024701118469,-0.42042768001556396,0.034208428114652634
1789402387759501800,3.255501708984375,0.545502245426178,-0.44608399271965027,-0.10873392969369888
1789402387769428200,3.26542822265625,0.5247328281402588,-0.40088000893592834,-0.1893680840730667
1789402387779354400,3.275354248046875,0.47952884435653687,-0.37400195002555847,-0.20769402384757996
1789402387789280800,3.28528076171875,0.39278605580329895,-0.31902414560317993,-0.2162461280822754
1789402387799207200,3.295207275390625,0.3500255048274994,-0.09422589093446732,-0.2724456787109375
1789402387809133600,3.305133544921875,0.3585776388645172,-0.009926552884280682,-0.2675587832927704
1789402387819060000,3.31506005859375,0.3536907136440277,0.03527744114398956,-0.2993237376213074
1789402387828986400,3.324986328125,0.38301220536231995,0.07192932814359665,-0.3543015718460083
1789402387838912800,3.334912841796875,0.4098902642726898,0.08414662629365921,-0.36774060130119324
1789402387848839000,3.3448388671875,0.4050033390522003,0.09392046183347702,-0.33597561717033386
1789402387858765300,3.354765380859375,0.36712974309921265,0.05849030241370201,-0.2528980076313019
1789402387868691700,3.364691650390625,0.2987128794193268,0.014508038759231567,-0.1380554437637329
1789402387878618000,3.3746181640625,0.20463970303535461,-0.029474224895238876,-0.01954767294228077
1789402387888544500,3.38454443359375,0.11178825795650482,-0.08078686892986298,0.08918625861406326
1789402387898471000,3.394470947265625,0.011606430634856224,-0.1418733447790146,0.18203771114349365
1789402387908397000,3.40439697265625,-0.0873536616563797,-0.2078467458486557,0.26389357447624207
1789402387918323500,3.414323486328125,-0.15821397304534912,-0.264046311378479,0.33597561717033386
1789402387928249900,3.424249755859375,-0.1948658674955368,-0.3092502951622009,0.4007273018360138
1789402387938176300,3.43417626953125,-0.21319180727005005,-0.3568977415561676,0.44837474822998047
1789402387948102700,3.4441025390625,-0.23273947834968567,-0.39110618829727173,0.4776962697505951
1789402387958029000,3.454029052734375,-0.28038692474365234,-0.3556760251522064,0.5094612240791321
1789402387967955500,3.46395556640625,-0.33169957995414734,-0.23472478985786438,0.5412262082099915
1789402387977881900,3.4738818359375,-0.337808221578598,-0.06612611562013626,0.5510000586509705
1789402387987808000,3.48380810546875,-0.29016077518463135,0.11224640160799026,0.5119046568870544
1789402387997734400,3.493734375,-0.2009745091199875,0.2991710305213928,0.4263836145401001
1789402388007660800,3.503660888671875,-0.06780599057674408,0.44089165329933167,0.31031930446624756
1789402388017587200,3.513587158203125,0.07269290834665298,0.5031998753547668,0.18692462146282196
1789402388027513600,3.523513671875,0.205861434340477,0.4970912039279938,0.08552107214927673
1789402388037440000,3.53343994140625,0.33536475896835327,0.44089165329933167,0.03176496922969818
1789402388047366100,3.5433662109375,0.4514290690422058,0.35903576016426086,0.0256563201546669
1789402388057292500,3.55329248046875,0.5601630210876465,0.29306238889694214,0.06963858753442764
1789402388067219000,3.563218994140625,0.6652317643165588,0.29184064269065857,0.15638138353824615
1789402388077145300,3.573145263671875,0.7409789562225342,0.34437501430511475,0.26878049969673157
1789402388087071700,3.58307177734375,0.7422007322311401,0.383470356464386,0.37751442193984985
1789402388096998100,3.592998046875,0.6725621223449707,0.41523534059524536,0.45937031507492065
1789402388106924500,3.602924560546875,0.5845975875854492,0.4812087416648865,0.5192350745201111
1789402388116851000,3.612850830078125,0.4465421438217163,0.5312996506690979,0.5290089249610901
1789402388126777000,3.622777099609375,0.29993459582328796,0.4653262495994568,0.4923570156097412
1789402388136703500,3.632703369140625,0.15821397304534912,0.27107125520706177,0.43982264399528503
1789402388146630000,3.6426298828125,0.05803215503692627,0.004734201822429895,0.39828383922576904
1789402388156556300,3.652556396484375,0.06414080411195755,-0.13698641955852509,0.328645259141922
1789402388166482700,3.662482666015625,0.03848448023200035,-0.17363831400871277,0.3591884970664978
1789402388176408800,3.672408935546875,-0.033597562462091446,-0.44119709730148315,0.5949822664260864
1789402388186335200,3.682335205078125,-0.031154103577136993,-0.4192059636116028,0.711046576499939
1789402388196261600,3.69226171875,0.3035998046398163,0.041386090219020844,0.4166097939014435
1789402388206188000,3.70218798828125,0.17043127119541168,0.41034841537475586,0.9786053895950317
1789402388216114400,3.712114501953125,0.000610864779446274,1.0199915170669556,1.859472393989563
1789402388226040800,3.722040771484375,0.09590577334165573,0.4958694875240326,1.6334524154663086
1789402388235967200,3.73196728515625,0.06536252796649933,-0.4912880063056946,1.1044435501098633
1789402388245893600,3.7418935546875,-0.15577052533626556,-0.46196648478507996,1.2779290676116943
1789402388255819800,3.75181982421875,-0.164322629570961,-0.1101083755493164,1.4746276140213013
1789402388265746200,3.76174609375,-0.2315177470445633,0.11835505068302155,1.821598768234253
1789402388275672600,3.771672607421875,-0.38301220536231995,-0.04046979174017906,2.3200645446777344
1789402388285599000,3.781598876953125,-0.36835145950317383,-0.9604321718215942,1.5247185230255127
1789402388295525400,3.791525390625,-0.4673115611076355,-1.772882342338562,0.49480047821998596
1789402388305451800,3.80145166015625,-0.7788525819778442,-1.2964078187942505,0.471587598323822
1789402388315378000,3.8113779296875,-0.6212494969367981,-0.26648977398872375,0.7342594861984253
1789402388325304300,3.82130419921875,-0.29138249158859253,0.09880737960338593,0.43371400237083435
1789402388335230700,3.831230712890625,-0.05558869615197182,0.351705402135849,0.14782927930355072
1789402388345157000,3.8411572265625,0.1130099818110466,1.060308575630188,0.4056142270565033
1789402388355083500,3.85108349609375,0.29626941680908203,1.992488145828247,1.0396918058395386
1789402388365009700,3.861009765625,0.2156352698802948,1.5172353982925415,0.6352993845939636
1789402388374936000,3.87093603515625,-0.04581485688686371,0.9564615488052368,0.16859868168830872
1789402388384862500,3.880862548828125,-0.41844236850738525,1.2838850021362305,0.9749401807785034
1789402388394788900,3.890788818359375,-0.5955931544303894,1.7029383182525635,2.439793825149536
1789402388404715300,3.90071533203125,-0.337808221578598,0.9466876983642578,2.878394842147827
1789402388414641700,3.9106416015625,0.23396120965480804,-1.0752747058868408,1.5906919240951538
1789402388424567800,3.92056787109375,0.4477638900279999,-1.780212640762329,0.11484257876873016
1789402388434494200,3.930494140625,0.3488037884235382,-1.111926555633545,-0.2834412455558777
1789402388444420600,3.940420654296875,0.011606430634856224,-0.6159043908119202,-1.0140355825424194
1789402388454347000,3.950346923828125,-0.23884813487529755,0.28695371747016907,-1.1924080848693848
1789402388464273400,3.9602734375,-0.39767298102378845,0.8978185057640076,-1.1410953998565674
1789402388474199800,3.97019970703125,-0.4013381600379944,0.7243329286575317,-1.0286962985992432
1789402388484126200,3.980126220703125,-0.3426951467990875,-0.09178243577480316,-0.7635809779167175
1789402388494052600,3.990052490234375,-0.5430588126182556,-1.1070396900177002,-0.277332603931427
1789402388503978800,3.999978759765625,-0.9193515181541443,-1.742339015007019,0.19669845700263977
1789402388513905200,4.0099052734375,-0.9547816514968872,-2.129627227783203,0.4043924808502197
1789402388523831600,4.01983154296875,-0.8399390578269958,-2.344651699066162,0.14782927930355072
1789402388533758000,4.029758056640625,-0.6407971382141113,-3.1082327365875244,-0.7843503952026367
1789402388543684400,4.039684326171875,-0.44898560643196106,-3.121671676635742,-1.6481131315231323
1789402388553610500,4.049610595703125,0.2669478952884674,-2.154062032699585,-2.086714029312134
1789402388563537000,4.059536865234375,1.1197150945663452,-1.2768601179122925,-1.9950844049453735
1789402388573463300,4.06946337890625,1.592524528503418,-0.7234166264533997,-1.2522728443145752
1789402388583389700,4.0793896484375,1.6218459606170654,-1.142469882965088,-0.43860089778900146
1789402388593316000,4.089316162109375,1.211344838142395,-2.000123977661133,0.15271618962287903
1789402388603242500,4.099242431640625,0.758083164691925,-2.4741551876068115,0.5351175665855408
1789402388613169000,4.1091689453125,0.3842339515686035,-2.388633966445923,0.5668824911117554
1789402388623095300,4.11909521484375,0.31093016266822815,-1.5945098400115967,0.3237583339214325
1789402388633021400,4.129021484375,0.38667741417884827,-0.531605064868927,-0.053756099194288254
1789402388642947800,4.13894775390625,0.5247328281402588,0.3773617148399353,-0.3995055556297302
1789402388652874200,4.148874267578125,0.6542361974716187,0.9625701904296875,-0.5803215503692627
1789402388662800600,4.158800537109375,0.8936951756477356,1.2802199125289917,-0.6023126840591431
1789402388672727000,4.16872705078125,1.053741693496704,1.6100867986679077,-0.6255255341529846
1789402388682653400,4.1786533203125,1.0867284536361694,2.0474660396575928,-0.7134900689125061
1789402388692579600,4.18857958984375,0.9938769936561584,2.1000003814697266,-0.9651663303375244
1789402388702506000,4.198506103515625,0.618806004524231,1.7212642431259155,-1.2205078601837158
1789402388712432400,4.208432373046875,-0.007941242307424545,0.9491311311721802,-1.3891065120697021
1789402388722358800,4.21835888671875,-0.7006618976593018,0.1611155867576599,-1.5796962976455688
1789402388732285200,4.22828515625,-1.2064579725265503,-0.05146535858511925,-1.7360776662826538
1789402388742211300,4.23821142578125,-1.357952356338501,0.26129740476608276,-1.703091025352478
1789402388752137700,4.2481376953125,-1.3286309242248535,0.781754195690155,-1.4404191970825195
1789402388762064100,4.258064208984375,-1.0024291276931763,1.2680025100708008,-1.000596523284912
1789402388771990500,4.267990478515625,-0.6921098232269287,1.5917608737945557,-0.49480047821998596
1789402388781917000,4.2779169921875,-0.9498947262763977,1.2325724363327026,0.08063415437936783
1789402388791843300,4.28784326171875,-1.6633847951889038,-0.12476912885904312,0.915075421333313
1789402388801769500,4.29776953125,-1.9028438329696655,-1.4637846946716309,1.3597849607467651
1789402388811695900,4.30769580078125,-1.7244713306427002,-1.6543744802474976,1.3487894535064697
1789402388821622300,4.317622314453125,-1.5485422611236572,-0.771064043045044,1.324354887008667
1789402388831548700,4.327548583984375,-1.4617993831634521,-0.25549420714378357,1.4929535388946533
1789402388841475000,4.33747509765625,-1.426369309425354,-0.16875138878822327,1.6872085332870483
1789402388851401500,4.3474013671875,-1.543655276298523,0.003512472379952669,1.8912373781204224
1789402388861328000,4.357327880859375,-2.050673007965088,0.2808450758457184,2.0292928218841553
1789402388871254300,4.367254150390625,-2.7727153301239014,0.03283398225903511,2.0610578060150146
1789402388881180400,4.377180419921875,-2.4245223999023438,0.5606211423873901,2.177122116088867
1789402388891106800,4.38710693359375,-0.039706211537122726,4.9246392250061035,2.1331398487091064
1789402388901033200,4.397033203125,-0.813060998916626,9.432821273803711,0.9297361969947815
1789402388910959600,4.406959716796875,-1.5595377683639526,9.432821273803711,0.28954991698265076
1789402388920886000,4.416885986328125,-1.8784091472625732,5.915462017059326,0.07941242307424545
1789402388930812200,4.426812255859375,-2.0445644855499268,2.3981025218963623,0.2663370370864868
1789402388940738600,4.436738525390625,-1.9468261003494263,0.3016144931316376,1.0690133571624756
1789402388950665000,4.4466650390625,-1.3005311489105225,0.2087630331516266,1.915671944618225
1789402388960591400,4.45659130859375,-0.3952295184135437,1.6968296766281128,2.467893600463867
1789402388970517800,4.466517822265625,0.30115634202957153,3.7151269912719727,2.8173084259033203
1789402388980444200,4.476444091796875,0.37323838472366333,5.277719020843506,2.9663593769073486
1789402388990370300,4.486370361328125,-0.12522727251052856,5.3522443771362305,2.872286081314087
1789402389000296700,4.496296630859375,-0.3634645342826843,4.521468162536621,2.342055559158325
1789402389010223000,4.50622314453125,-0.5943714380264282,4.957625865936279,1.6603304147720337
1789402389020149500,4.5161494140625,-0.9560033679008484,6.512887477874756,0.7513636946678162
1789402389030076000,4.526075927734375,-1.2174534797668457,7.348550796508789,-0.44470956921577454
1789402389040002300,4.536002197265625,-1.4092650413513184,7.307011604309082,-1.2620465755462646
1789402389049928400,4.545928466796875,-1.4312561750411987,6.417592525482178,-1.6517783403396606
1789402389059854800,4.555854736328125,-1.2174534797668457,4.630202293395996,-1.9718714952468872
1789402389069781200,4.56578125,-0.7690787315368652,2.459188938140869,-2.506989002227783
1789402389079707600,4.575707763671875,-0.09101885557174683,0.32360562682151794,-3.349982500076294
1789402389089634000,4.585634033203125,0.7006618976593018,-1.881616234779358,-4.504517078399658
1789402389099560200,4.595560302734375,1.4666863679885864,-4.081951141357422,-5.681042671203613
1789402389109486600,4.605486572265625,2.0689990520477295,-5.752055644989014,-6.673086643218994
1789402389119413000,4.6154130859375,2.3817617893218994,-7.007993698120117,-7.569836139678955
1789402389129339400,4.62533935546875,2.3267838954925537,-7.761800765991211,-8.473916053771973
1789402389139265800,4.635265869140625,2.0751075744628906,-7.460033416748047,-9.386548042297363
1789402389149192200,4.645192138671875,1.71836256980896,-6.040383815765381,-9.809267044067383
1789402389159118600,4.65511865234375,1.221118688583374,-4.19923734664917,-9.531933784484863
1789402389169045000,4.665044921875,0.8289434909820557,-2.3959643840789795,-8.68649673461914
1789402389178971100,4.67497119140625,0.2938259541988373,-1.374598503112793,-7.351146697998047
1789402389188897500,4.6848974609375,-0.4098902642726898,-1.2927426099777222,-5.275428295135498
1789402389198824000,4.694823974609375,-1.2150100469589233,-1.6824743747711182,-2.850295066833496
1789402389208750300,4.704750244140625,-2.117868185043335,-2.201709270477295,-0.2467893660068512
1789402389218676700,4.7146767578125,-2.855792760848999,-3.009272575378418,2.268751859664917
1789402389228603100,4.72460302734375,-3.2345290184020996,-3.8681485652923584,4.181980133056641
1789402389238529300,4.734529296875,-3.207650899887085,-4.420370101928711,5.368279457092285
1789402389248455700,4.74445556640625,-2.838688611984253,-4.232223987579346,5.988918304443359
1789402389258382000,4.754382080078125,-2.20461106300354,-3.372126340866089,6.156295299530029
1789402389268308500,4.76430859375,-1.4801253080368042,-2.2505786418914795,5.777559280395508
1789402389278235000,4.77423486328125,-0.9046907424926758,-1.3892592191696167,4.886918067932129
1789402389288161000,4.7841611328125,-0.4465421438217163,-1.2096649408340454,2.878394842147827
1789402389298087400,4.79408740234375,0.09468404203653336,-1.75455641746521,-0.5510000586509705
1789402389308013800,4.804013916015625,0.22907429933547974,-0.5548179149627686,-1.1557561159133911
1789402389317940200,4.813940185546875,0.09101885557174683,0.18432845175266266,-0.7122683525085449
1789402389327866600,4.82386669921875,0.006719512399286032,0.5606211423873901,0.43982264399528503
1789402389337793000,4.83379296875,-0.22663083672523499,-0.027030766010284424,1.8912373781204224
1789402389347719200,4.84371923828125,-0.42821621894836426,-0.9335541129112244,2.3677117824554443
1789402389357645600,4.8536455078125,-0.5772672295570374,-1.6690353155136108,2.6450445652008057
1789402389367572000,4.863572021484375,-0.7116574645042419,-2.1809399127960205,2.9016077518463135
1789402389377498400,4.873498291015625,-0.7739656567573547,-1.976911187171936,2.874729633331299
1789402389387424800,4.8834248046875,-0.7006618976593018,-1.3721550703048706,2.6645922660827637
1789402389397351000,4.893350830078125,-0.6310232877731323,-0.09544762223958969,2.2113304138183594
1789402389407277300,4.90327734375,-0.6591231226921082,1.236237645149231,1.422093152999878
1789402389417204000,4.913203857421875,-0.22174391150474548,0.8440623879432678,1.1337649822235107
1789402389427130000,4.923130126953125,-0.001832594396546483,0.5080868005752563,1.5625921487808228
1789402389437056500,4.933056396484375,0.014049889519810677,-0.5926915407180786,1.4477494955062866
1789402389446983000,4.94298291015625,-0.1692095398902893,-0.5645917654037476,1.9816453456878662
1789402389456909300,4.952909423828125,-0.472198486328125,-0.42042768001556396,2.693913698196411
1789402389466835700,4.962835693359375,-0.22907429933547974,-0.4912880063056946,1.8081597089767456
1789402389476761900,4.972761962890625,0.31581708788871765,0.17088942229747772,1.480736255645752
1789402389486688300,4.982688232421875,0.3023780584335327,0.7267763614654541,1.3451242446899414
1789402389496614700,4.99261474609375,0.13011419773101807,0.7060069441795349,1.296255111694336
1789402389506541000,5.002541015625,0.05803215503692627,0.4017963111400604,1.3194679021835327
1789402389516467500,5.012467529296875,-0.08124501258134842,0.16355904936790466,1.342680811882019
1789402389526393900,5.022393798828125,-0.3280344009399414,-0.10644318908452988,1.3561197519302368
1789402389536320000,5.032320068359375,-0.44409868121147156,-0.2591593861579895,1.1899645328521729
1789402389546246400,5.042246337890625,-0.430659681558609,-0.11499529331922531,0.8943060636520386
1789402389556172800,5.0521728515625,-0.4563159942626953,-0.04780016839504242,0.7354812026023865
1789402389566099200,5.06209912109375,-0.4050033390522003,-0.305585116147995,0.5888736248016357
1789402389576025600,5.072025634765625,-0.462424635887146,-0.74540776014328,0.4728093445301056
1789402389585951700,5.08195166015625,-0.5723803043365479,-1.0056360960006714,0.44348782300949097
1789402389595878100,5.091878173828125,-0.6737838387489319,-1.4002548456192017,0.49968740344047546
1789402389605804500,5.101804443359375,-0.6542361974716187,-1.8437426090240479,0.2809978127479553
1789402389615731000,5.11173095703125,-0.5748237371444702,-1.8156428337097168,-0.2968802750110626
1789402389625657300,5.1216572265625,-0.01649334840476513,-2.1528401374816895,-0.6914989352226257
1789402389635583700,5.131583740234375,0.500298261642456,-2.8993170261383057,-0.9272927641868591
1789402389645510000,5.141510009765625,1.174692988395691,-3.40022611618042,-1.0189224481582642
1789402389655436300,5.151436279296875,1.7696752548217773,-3.4967427253723145,-0.8881973624229431
1789402389665362700,5.16136279296875,2.115424633026123,-3.146106243133545,-0.4361574649810791
1789402389675289000,5.1712890625,1.8674136400222778,-2.501033067703247,-0.06719512492418289
1789402389685215500,5.181215576171875,1.4190388917922974,-2.008676052093506,-0.4789179861545563
1789402389695142000,5.191141845703125,1.1588104963302612,-1.4735585451126099,-1.0079269409179688
1789402389705068000,5.201068115234375,0.7715222239494324,-0.5804742574691772,-1.0018181800842285
1789402389714994400,5.210994384765625,0.46975502371788025,-0.2383899837732315,-0.6695078015327454
1789402389724920800,5.2209208984375,0.42455101013183594,-0.4766272306442261,-0.30054548382759094
1789402389734847200,5.23084716796875,0.7116574645042419,-0.7967203855514526,0.056199558079242706
1789402389744773600,5.240773681640625,1.5167772769927979,-0.8516982197761536,0.318871408700943
1789402389754699800,5.25069970703125,2.7030766010284424,-0.4839576184749603,0.3652971386909485
1789402389764626200,5.260626220703125,3.8453938961029053,0.21609342098236084,0.2968802750110626
1789402389774552600,5.270552490234375,4.878976821899414,1.2105813026428223,0.2968802750110626
1789402389784479000,5.28047900390625,5.364003658294678,2.3675591945648193,0.3738492429256439
1789402389794405400,5.2904052734375,5.433642387390137,3.2850780487060547,0.43982264399528503
1789402389804331800,5.300331787109375,4.434267520904541,3.3095126152038574,0.36285367608070374
1789402389814258000,5.3102578125,2.4880521297454834,2.919780969619751,0.25045454502105713
1789402389824184300,5.320184326171875,1.434921383857727,2.344346284866333,-0.45448338985443115
1789402389834110700,5.33011083984375,1.174692988395691,1.7835724353790283,-0.9944878816604614
1789402389844037000,5.340037109375,1.3115266561508179,1.26189386844635,-1.137430191040039
1789402389853963500,5.349963623046875,1.4092650413513184,0.8868229389190674,-1.1423171758651733
1789402389863889700,5.3598896484375,1.3555089235305786,0.3724747896194458,-1.0225876569747925
1789402389873816000,5.369816162109375,1.2675443887710571,-0.1467602699995041,-0.8393282294273376
1789402389883742500,5.379742431640625,1.1441497802734375,-0.521831214427948,-0.6878337264060974
1789402389893668900,5.3896689453125,0.8949168920516968,-0.6684387922286987,-0.5681042671203613
1789402389903595300,5.39959521484375,0.47097674012184143,-0.8712459206581116,-0.3848448097705841
1789402389913521700,5.409521728515625,-0.10201441496610641,-1.384372353553772,-0.22968515753746033
1789402389923447800,5.41944775390625,-0.7556397318840027,-1.7044655084609985,-0.4459312856197357
1789402389933374200,5.429374267578125,-1.561981201171875,-2.2957825660705566,-0.861319363117218
1789402389943300600,5.439300537109375,-2.224158763885498,-2.492480993270874,-1.3060288429260254
1789402389953227000,5.44922705078125,-2.458730697631836,-2.2371394634246826,-1.3084723949432373
1789402389963153400,5.4591533203125,-2.6004514694213867,-1.5896228551864624,-1.2351685762405396
1789402389973079600,5.46907958984375,-3.162446975708008,-1.021518588066101,-0.8820887207984924
1789402389983006000,5.479005859375,-3.3957972526550293,-1.9060508012771606,-0.6023126840591431
1789402389992932400,5.488932373046875,-2.1899502277374268,-1.2426517009735107,0.31154105067253113
1789402390002858800,5.498858642578125,-0.41233372688293457,-0.0746782198548317,0.7476984858512878
1789402390012785200,5.50878515625,0.3121519088745117,0.7218894362449646,0.2724456787109375
1789402390022711600,5.518711669921875,0.3133736252784729,1.2973240613937378,-0.31031930446624756
1789402390032637700,5.5286376953125,0.06536252796649933,1.6882774829864502,-0.5937605500221252
1789402390042564000,5.538564208984375,-0.2461785078048706,1.781129002571106,-0.657290518283844
1789402390052490500,5.548490478515625,-0.5809323787689209,1.5257874727249146,-0.6524035930633545
1789402390062417000,5.5584169921875,-1.0012073516845703,1.1201733350753784,-0.5302306413650513
1789402390072343300,5.56834326171875,-1.0231984853744507,0.6827940940856934,-0.5216785073280334
1789402390082269700,5.578269775390625,0.49418962001800537,-0.07712167501449585,-0.7195987105369568
1789402390092195800,5.58819580078125,1.1710277795791626,-0.6000219583511353,-0.3946186602115631
1789402390102122200,5.598122314453125,1.074511170387268,-0.4558578431606293,0.12950333952903748
1789402390112048600,5.608048583984375,1.0415244102478027,-0.23105959594249725,0.3958403766155243
1789402390121975000,5.61797509765625,1.4776818752288818,0.10980294644832611,0.564439058303833
1789402390131901200,5.627901123046875,1.766010046005249,-0.3006981909275055,0.6963858604431152
1789402390141827600,5.63782763671875,1.9101741313934326,-1.03129243850708,0.8649845123291016
1789402390151754000,5.64775390625,2.5613560676574707,-1.5920662879943848,0.8820887207984924
1789402390161680400,5.657680419921875,3.14900803565979,-1.5077669620513916,0.6792816519737244
1789402390171606800,5.667606689453125,2.7458372116088867,-0.5340485572814941,0.4569268524646759
1789402390181533000,5.677532958984375,1.5778636932373047,0.31383177638053894,0.3640754222869873
1789402390191459300,5.687459228515625,-0.025045456364750862,0.46288278698921204,-0.013439024798572063
1789402390201385700,5.6973857421875,-1.1221586465835571,1.2472331523895264,-0.9395100474357605
1789402390211312000,5.70731201171875,-0.09101885557174683,2.9833109378814697,-1.5320488214492798
1789402390221238500,5.717238525390625,0.7263182401657104,2.431089162826538,-1.646891474723816
1789402390231164700,5.72716455078125,0.5980366468429565,0.8929315805435181,-1.656665325164795
1789402390241091000,5.737091064453125,0.4770853817462921,-0.06734783947467804,-1.508836030960083
1789402390251017500,5.747017578125,-0.3402516841888428,-0.8602503538131714,-2.25531268119812
1789402390260944000,5.75694384765625,-0.6151408553123474,-1.326951026916504,-2.5631885528564453
1789402390270870300,5.766870361328125,0.22174391150474548,1.5685480833053589,-2.0610578060150146
1789402390280796700,5.776796630859375,1.4508038759231567,4.053545951843262,-0.21746785938739777
1789402390290722800,5.786722900390625,2.5247042179107666,2.6888740062713623,0.37140578031539917
1789402390300649200,5.796649169921875,3.5802783966064453,0.6388118267059326,0.12583814561367035
1789402390310575600,5.80657568359375,4.420828342437744,-0.06490438431501389,-0.4068359434604645
1789402390320502000,5.816501953125,4.7348127365112305,0.10858121514320374,-1.0848958492279053
1789402390330428400,5.826428466796875,4.436710834503174,-0.7038689255714417,-1.7910555601119995
1789402390340354600,5.8363544921875,4.066526889801025,-1.5248712301254272,-2.1868958473205566
1789402390350281000,5.846281005859375,4.076300621032715,-1.4283546209335327,-2.324951410293579
1789402390360207000,5.85620703125,3.869828462600708,-1.7117958068847656,-2.4935500621795654
1789402390370133500,5.866133544921875,3.017061233520508,-1.8376339673995972,-2.4568982124328613
1789402390380060000,5.876059814453125,1.904065489768982,-1.2426517009735107,-2.070831537246704
1789402390389986000,5.885986083984375,0.8692606091499329,-0.5083922147750854,-1.479514479637146
1789402390399912400,5.895912353515625,0.08002328872680664,0.19898919761180878,-0.9395100474357605
1789402390409838800,5.9058388671875,-0.3964512348175049,0.6204859018325806,-0.536339282989502
1789402390419765000,5.915764892578125,-0.7886264324188232,0.801301896572113,-0.33719736337661743
1789402390429691400,5.92569140625,-1.2272273302078247,0.7768672704696655,-0.41783151030540466
1789402390439617800,5.93561767578125,-1.7537927627563477,0.6168206930160522,-0.6328558921813965
1789402390449544000,5.9455439453125,-2.2791364192962646,0.42623090744018555,-0.9028581380844116
1789402390459470300,5.95547021484375,-2.8154757022857666,0.3773617148399353,-1.0494656562805176
1789402390469396700,5.965396728515625,-3.1050257682800293,0.6876810193061829,-0.7965676784515381
1789402390479323100,5.9753232421875,-3.135568857192993,1.3070979118347168,-0.19181154668331146
1789402390489249500,5.98524951171875,-3.2259769439697266,2.1549782752990723,0.30543237924575806
1789402390499176000,5.995176025390625,-3.6120433807373047,2.9466590881347656,0.3591884970664978
1789402390509102000,6.00510205078125,-4.027431488037109,3.212996006011963,0.10384701192378998
1789402390519028500,6.015028564453125,-4.037205219268799,3.2007787227630615,-0.010995565913617611
1789402390528955000,6.024954833984375,-3.8942630290985107,3.1555747985839844,0.0256563201546669
1789402390538881300,6.03488134765625,-3.6926774978637695,2.789055824279785,-0.14538581669330597
1789402390548807700,6.0448076171875,-3.4324491024017334,2.3345725536346436,-0.42394015192985535
1789402390558733800,6.05473388671875,-3.316384792327881,1.808007001876831,-0.7916807532310486
1789402390568660200,6.06466015625,-3.357923746109009,1.5037963390350342,-1.2461642026901245
1789402390578586600,6.074586669921875,-3.0891432762145996,1.2802199125289917,-1.517388105392456
1789402390588513000,6.084512939453125,-2.523482322692871,0.9796743988990784,-1.5577051639556885
1789402390598439400,6.094439453125,-2.445291757583618,0.5459604263305664,-1.5344923734664917
1789402390608365800,6.10436572265625,-2.006690740585327,0.15378521382808685,-1.527161955833435
1789402390618292000,6.1142919921875,-1.4520255327224731,-0.3165806829929352,-1.5332705974578857
1789402390628218400,6.12421826171875,-1.1905754804611206,-0.5951350331306458,-1.5063925981521606
1789402390638144800,6.134144775390625,-1.0769546031951904,-0.6195695996284485,-1.361006736755371
1789402390648071200,6.1440712890625,-0.9327905178070068,-0.7490729093551636,-1.0409135818481445
1789402390657997600,6.15399755859375,-0.6493492722511292,-1.0630574226379395,-0.5412262082099915
1789402390667924000,6.163924072265625,-0.24373504519462585,-1.4796671867370605,-0.20769402384757996
1789402390677850000,6.17385009765625,-0.031154103577136993,-2.3898556232452393,-0.695164144039154
1789402390687776500,6.183776611328125,-0.33047783374786377,-3.0324854850769043,-1.1789690256118774
1789402390697703000,6.193702880859375,-0.7812960743904114,-2.8651084899902344,-1.25715970993042
1789402390707629300,6.20362939453125,-1.0195332765579224,-2.184605121612549,-1.0225876569747925
1789402390717555700,6.2135556640625,-0.9450078010559082,-1.3709332942962646,-0.6841685771942139
1789402390727481900,6.22348193359375,-0.6151408553123474,-0.7967203855514526,-0.5045742988586426
1789402390737408300,6.233408203125,-0.24373504519462585,-0.4448622763156891,-0.5619956254959106
1789402390747334700,6.243334716796875,-0.05803215503692627,-0.19074252247810364,-0.6927206516265869
1789402390757261000,6.253260986328125,-0.009162971749901772,0.12812888622283936,-0.7086031436920166
1789402390767187500,6.2631875,0.056810423731803894,0.5606211423873901,-0.47525280714035034
1789402390777113900,6.27311376953125,0.1899789422750473,1.0248783826828003,-0.14538581669330597
1789402390787040000,6.2830400390625,0.3243691921234131,1.254563570022583,0.0769689604640007
1789402390796966400,6.29296630859375,0.4379900395870209,1.1275036334991455,0.19792018830776215
1789402390806892800,6.302892822265625,0.545502245426178,0.7463240623474121,0.2565632164478302
1789402390816819200,6.312819091796875,0.618806004524231,0.3480401933193207,0.2467893660068512
1789402390826745600,6.32274560546875,0.6969966888427734,0.1879936307668686,0.31154105067253113
1789402390836671700,6.332671630859375,0.7947350740432739,0.3065013885498047,0.4276053309440613
1789402390846598100,6.34259814453125,0.8985821008682251,0.5740602016448975,0.471587598323822
1789402390856524500,6.352524658203125,1.007315993309021,0.846505880355835,0.5143481492996216
1789402390866450700,6.36245068359375,1.1343759298324585,0.9747874736785889,0.5436696410179138
1789402390876377000,6.372377197265625,1.2724313735961914,0.7670934200286865,0.5656607747077942
1789402390886303200,6.38230322265625,1.397047758102417,0.3627009689807892,0.6120865345001221
1789402390896229600,6.392229736328125,1.5033382177352905,-0.03436114266514778,0.7195987105369568
1789402390906156000,6.402156005859375,1.599854826927185,-0.33001968264579773,0.8100066781044006
1789402390916082200,6.412082275390625,1.6853759288787842,-0.490066260099411,0.8246674537658691
1789402390926008600,6.422008544921875,1.728136420249939,-0.5377137064933777,0.8478803038597107
1789402390935935000,6.43193505859375,1.7244713306427002,-0.5096139311790466,0.8857539296150208
1789402390945861000,6.441861083984375,1.700036644935608,-0.37522369623184204,0.9456186890602112
1789402390955787500,6.45178759765625,1.6878193616867065,-0.09789107739925385,0.9749401807785034
1789402390965714000,6.4617138671875,1.6853759288787842,0.20509785413742065,0.972496747970581
1789402390975640300,6.471640380859375,1.7024801969528198,0.41034841537475586,1.0286962985992432
1789402390985566700,6.481566650390625,1.7452406883239746,0.5887209177017212,1.0519092082977295
1789402390995493000,6.4914931640625,1.775783896446228,0.6974548697471619,1.0128138065338135
1789402391005419300,6.501419189453125,1.766010046005249,0.6864593029022217,0.9957095980644226
1789402391015345700,6.511345703125,1.7305799722671509,0.6302597522735596,0.9786053895950317
1789402391025272000,6.52127197265625,1.658497929573059,0.597273051738739,0.8881973624229431
1789402391035198500,6.531198486328125,1.564424753189087,0.6107120513916016,0.8100066781044006
1789402391045124900,6.541124755859375,1.4850122928619385,0.6644681692123413,0.7623592615127563
1789402391055051300,6.55105126953125,1.4275909662246704,0.6192641854286194,0.6805033683776855
1789402391064977400,6.560977294921875,1.3371829986572266,0.5019781589508057,0.5681042671203613
1789402391074903800,6.57090380859375,1.211344838142395,0.33460119366645813,0.47036588191986084
1789402391084830200,6.580830322265625,1.073289394378662,0.0951421856880188,0.37751442193984985
1789402391094756600,6.590756591796875,0.9388991594314575,-0.1101083755493164,0.34086254239082336
1789402391104683000,6.60068310546875,0.8484911918640137,-0.2078467458486557,0.3078758418560028
1789402391114609200,6.610609130859375,0.7996219992637634,-0.18463388085365295,0.24801109731197357
1789402391124535600,6.62053564453125,0.7788525819778442,-0.09422589093446732,0.24923282861709595
1789402391134462000,6.6304619140625,0.7654135823249817,-0.033139415085315704,0.2919933497905731
1789402391144388000,6.64038818359375,0.7544180154800415,0.027947064489126205,0.3090975880622864
1789402391154314500,6.650314453125,0.7202095985412598,0.21487168967723846,0.36774060130119324
1789402391164241000,6.660240966796875,0.6298015713691711,0.1415679156780243,0.4068359434604645
1789402391174167000,6.6701669921875,0.4526508152484894,-0.05146535858511925,0.4068359434604645
1789402391184093400,6.680093505859375,0.22907429933547974,-0.26771149039268494,0.34208428859710693
1789402391194019800,6.690019775390625,0.039706211537122726,-0.37400195002555847,0.2516762912273407
1789402391203946000,6.699946044921875,-0.12278381735086441,-0.3263545036315918,0.17104214429855347
1789402391213872400,6.709872314453125,-0.2559523284435272,-0.14798198640346527,0.0977383628487587
1789402391223798500,6.719798583984375,-0.37812530994415283,-0.05635227635502815,-0.004886918235570192
1789402391233725000,6.729724853515625,-0.5137372612953186,-0.11133010685443878,-0.11728604137897491
1789402391243651300,6.7396513671875,-0.6615665555000305,-0.20173808932304382,-0.2162461280822754
1789402391253577700,6.74957763671875,-0.7666352987289429,-0.2738201320171356,-0.30543237924575806
1789402391263504100,6.759504150390625,-0.8191696405410767,-0.3068068325519562,-0.38728827238082886
1789402391273430500,6.769430419921875,-0.8448259830474854,-0.3862192630767822,-0.4630354940891266
1789402391283356700,6.779356689453125,-0.850934624671936,-0.4350884258747101,-0.49968740344047546
1789402391293283000,6.789282958984375,-0.8069523572921753,-0.347123920917511,-0.4935787320137024
1789402391303209500,6.79920947265625,-0.6933315396308899,-0.1821904182434082,-0.4324922561645508
1789402391313135900,6.809135986328125,-0.5980366468429565,-0.11133010685443878,-0.3298669755458832
1789402391323062300,6.819062255859375,-0.5308414697647095,-0.05757400393486023,-0.20647229254245758
1789402391332988400,6.828988525390625,-0.45509424805641174,-0.009926552884280682,-0.09651663154363632
1789402391342914800,6.838914794921875,-0.42088583111763,0.03894263133406639,0.013439024798572063
1789402391352841000,6.848841064453125,-0.43432486057281494,0.043829549103975296,0.07086031138896942
1789402391362767400,6.858767333984375,-0.4221075773239136,0.1415679156780243,0.001221729558892548
1789402391372693800,6.86869384765625,-0.4367683231830597,0.11102467030286789,0.03176496922969818
1789402391382620000,6.878619873046875,-0.4563159942626953,0.1207985132932663,0.10506874322891235
1789402391392546300,6.88854638671875,-0.45998117327690125,0.16844595968723297,0.059864748269319534
1789402391402472700,6.89847265625,-0.43921178579330444,0.1366809904575348,0.010995565913617611
1789402391412398800,6.90839892578125,-0.3915643095970154,0.005955931730568409,0.06108647957444191
1789402391422325200,6.9183251953125,-0.2974911332130432,-0.17119485139846802,0.16615521907806396
1789402391432251600,6.928251708984375,-0.18387030065059662,-0.3605629503726959,0.24556763470172882
1789402391442177800,6.938177734375,-0.10201441496610641,-0.6122392416000366,0.22724169492721558
1789402391452104200,6.948104248046875,-0.05192350596189499,-0.7845031023025513,0.09162971377372742
1789402391462030600,6.958030517578125,-0.02260199747979641,-0.8859066367149353,-0.059864748269319534
1789402391471957000,6.96795703125,-0.004276053514331579,-0.892015278339386,-0.13561198115348816
1789402391481883400,6.97788330078125,-0.011606430634856224,-0.8394809365272522,-0.16004657745361328
1789402391491809800,6.987809814453125,-0.03237583488225937,-0.6769908666610718,-0.12950333952903748
1789402391501736000,6.99773583984375,-0.05558869615197182,-0.5010618567466736,-0.08918625861406326
1789402391511662300,7.007662353515625,-0.0665842592716217,-0.4240928590297699,-0.13194678723812103
1789402391521588700,7.017588623046875,-0.03848448023200035,-0.3862192630767822,-0.22235478460788727
1789402391531515100,7.02751513671875,0.023823726922273636,-0.40576693415641785,-0.2834412455558777
1789402391541441300,7.037441162109375,0.07757982611656189,-0.6305651664733887,-0.32131487131118774
1789402391551367700,7.04736767578125,0.08368847519159317,-0.7686206102371216,-0.3640754222869873
1789402391561293800,7.0572939453125,0.0360410213470459,-0.725860059261322,-0.39217519760131836
1789402391571220200,7.06722021484375,-0.06780599057674408,-0.6268999576568604,-0.37751442193984985
1789402391581146600,7.077146728515625,-0.20341797173023224,-0.541378915309906,-0.36774060130119324
1789402391591072800,7.08707275390625,-0.3341430425643921,-0.4790706932544708,-0.3909534513950348
1789402391600999200,7.096999267578125,-0.4416552484035492,-0.5914698243141174,-0.3860665261745453
1789402391610925600,7.106925537109375,-0.5406153202056885,-0.7820596098899841,-0.36285367608070374
1789402391620851700,7.116851806640625,-0.6798924803733826,-0.7979421019554138,-0.3811796307563782
1789402391630778000,7.126778076171875,-0.8692606091499329,-0.7124210596084595,-0.4825831651687622
1789402391640704500,7.13670458984375,-1.0598503351211548,-0.6830995678901672,-0.6841685771942139
1789402391650631000,7.146630859375,-1.1795798540115356,-0.790611743927002,-0.94439697265625
1789402391660557000,7.15655712890625,-1.2101231813430786,-0.9934188723564148,-1.148425817489624
1789402391670483500,7.1664833984375,-1.1771364212036133,-1.2316560745239258,-1.2302817106246948
1789402391680409900,7.176409912109375,-1.125823736190796,-1.401476502418518,-1.2449424266815186
1789402391690336300,7.186336181640625,-1.1136064529418945,-1.440571904182434,-1.25715970993042
1789402391700262700,7.1962626953125,-1.1404845714569092,-1.3232858180999756,-1.2889246940612793
1789402391710189000,7.20618896484375,-1.1905754804611206,-1.0997092723846436,-1.351232886314392
1789402391720115200,7.216115234375,-1.2382229566574097,-0.8639155030250549,-1.422093152999878
1789402391730041600,7.22604150390625,-1.2553271055221558,-0.6513345837593079,-1.4196497201919556
1789402391739968000,7.235968017578125,-1.2431098222732544,-0.4692968726158142,-1.3304635286331177
1789402391749894100,7.24589404296875,-1.2162318229675293,-0.3006981909275055,-1.1826342344284058
1789402391759820500,7.255820556640625,-1.1759146451950073,-0.15286891162395477,-1.0934479236602783
1789402391769746700,7.26574658203125,-1.1221586465835571,-0.02825249545276165,-1.1166608333587646
1789402391779673000,7.275673095703125,-1.046411395072937,0.08414662629365921,-1.1447606086730957
1789402391789599500,7.285599609375,-0.9816597104072571,0.2234237939119339,-1.099556565284729
1789402391799525600,7.295525634765625,-0.8765909671783447,0.45066550374031067,-0.9602794051170349
1789402391809452000,7.3054521484375,-0.7788525819778442,0.7365502119064331,-0.8197805285453796
1789402391819378400,7.31537841796875,-0.6493492722511292,1.0053306818008423,-0.7354812026023865
1789402391829304600,7.3253046875,-0.500298261642456,1.1311688423156738,-0.6365211009979248
1789402391839231000,7.33523095703125,-0.4013381600379944,1.0945169925689697,-0.4874700903892517
1789402391849157000,7.3451572265625,-0.3610210716724396,1.0554215908050537,-0.3347539007663727
1789402391859083500,7.35508349609375,-0.2974911332130432,1.0749692916870117,-0.21380266547203064
1789402391869010000,7.365010009765625,-0.1899789422750473,1.1140646934509277,-0.17348559200763702
1789402391878936000,7.37493603515625,-0.08124501258134842,1.050534725189209,-0.16859868168830872
1789402391888862500,7.384862548828125,0.02871064469218254,0.8684970140457153,-0.09285144507884979
1789402391898788900,7.394788818359375,0.1496618688106537,0.6974548697471619,0.04764745384454727
1789402391908715000,7.404715087890625,0.2718348205089569,0.5899426341056824,0.19669845700263977
1789402391918641400,7.414641357421875,0.379347026348114,0.5019781589508057,0.3225366175174713
1789402391928567800,7.42456787109375,0.4929678738117218,0.4555523991584778,0.4667007029056549
1789402391938494000,7.434493896484375,0.6407971382141113,0.4286743700504303,0.6291907429695129
1789402391948420400,7.44442041015625,0.8155044913291931,0.4079049527645111,0.768467903137207
1789402391958346800,7.4543466796875,0.9938769936561584,0.44211336970329285,0.9297361969947815
1789402391968273200,7.464273193359375,1.1685843467712402,0.5789470672607422,1.0677915811538696
1789402391978199600,7.474199462890625,1.3457350730895996,0.7573196291923523,1.1740821599960327
1789402391988125700,7.484125732421875,1.5143338441848755,0.9014837145805359,1.2730422019958496
1789402391998052000,7.494052001953125,1.6316198110580444,0.9344704151153564,1.3353503942489624
1789402392007978500,7.503978515625,1.7244713306427002,0.8672752976417542,1.452636480331421
1789402392017905000,7.51390478515625,1.8124357461929321,0.7939714789390564,1.5308271646499634
1789402392027831300,7.523831298828125,1.8955134153366089,0.7829759120941162,1.5699224472045898
1789402392037757400,7.53375732421875,1.971260666847229,0.8440623879432678,1.556483507156372
1789402392047683800,7.543683837890625,1.9969170093536377,0.9442442059516907,1.4660754203796387
1789402392057610000,7.55360986328125,2.0079126358032227,1.0945169925689697,1.4477494955062866
1789402392067536400,7.563536376953125,2.034790515899658,1.1861467361450195,1.5063925981521606
1789402392077462800,7.573462890625,2.0909900665283203,1.1458295583724976,1.51616632938385
1789402392087389000,7.583388916015625,2.1581852436065674,1.0053306818008423,1.488066554069519
1789402392097315300,7.5933154296875,2.148411512374878,0.8037453293800354,1.4001020193099976
1789402392107241700,7.60324169921875,2.0518949031829834,0.6375901103019714,1.3170244693756104
1789402392117167900,7.61316796875,1.9480477571487427,0.4286743700504303,1.3463460206985474
1789402392127094300,7.62309423828125,1.9358304738998413,0.20021092891693115,1.3194679021835327
1789402392137020400,7.6330205078125,1.9737040996551514,-0.02825249545276165,1.2253947257995605
1789402392146946800,7.64294677734375,1.9749258756637573,-0.21151192486286163,1.2131774425506592
1789402392156873200,7.652873291015625,1.8991786241531372,-0.17363831400871277,1.1887428760528564
1789402392166799400,7.66279931640625,1.7916663885116577,0.002290742937475443,1.1362085342407227
1789402392176725800,7.672725830078125,1.6646065711975098,0.1415679156780243,1.0592395067214966
1789402392186652000,7.68265185546875,1.5131120681762695,0.1000291109085083,0.9639446139335632
1789402392196578300,7.692578369140625,1.3616175651550293,-0.19929464161396027,0.8747583627700806
1789402392206504700,7.702504638671875,1.2382229566574097,-0.337350070476532,0.7953459620475769
1789402392216430800,7.712430908203125,1.1368193626403809,-0.22617268562316895,0.7122683525085449
1789402392226357200,7.722357177734375,0.9914335608482361,-0.1663079410791397,0.6707295179367065
1789402392236283600,7.73228369140625,0.8472694754600525,-0.11377356201410294,0.7134900689125061
1789402392246209800,7.742209716796875,0.7519745230674744,-0.039248060435056686,0.7440332770347595
1789402392256136200,7.75213623046875,0.6676751971244812,0.10125083476305008,0.6976075768470764
1789402392266062300,7.762062255859375,0.5393936038017273,0.14034618437290192,0.5852084755897522
1789402392275988700,7.77198876953125,0.3707949221134186,0.10735948383808136,0.4166097939014435
1789402392285915100,7.7819150390625,0.17531819641590118,0.014508038759231567,0.23212862014770508
1789402392295841300,7.79184130859375,-0.039706211537122726,-0.22739441692829132,0.05742128938436508
1789402392305767700,7.801767578125,-0.23396120965480804,-0.39477136731147766,-0.09407317638397217
1789402392315693800,7.81169384765625,-0.45875945687294006,-0.5328267812728882,-0.27855435013771057
1789402392325620200,7.8216201171875,-0.7202095985412598,-0.5462658405303955,-0.48502662777900696
1789402392335546600,7.831546630859375,-0.9474512934684753,-0.347123920917511,-0.6963858604431152
1789402392345472800,7.84147265625,-1.1050543785095215,-0.11499529331922531,-0.916297197341919
1789402392355399200,7.851399169921875,-1.1905754804611206,-0.03802633285522461,-1.0836740732192993
1789402392365325600,7.86132568359375,-1.202792763710022,-0.0038179049734026194,-1.1630865335464478
1789402392375251700,7.871251708984375,-1.1783581972122192,0.003512472379952669,-1.2009601593017578
1789402392385178000,7.88117822265625,-1.1380411386489868,0.009621120058000088,-1.2229512929916382
1789402392395104300,7.891104248046875,-1.0793980360031128,0.014508038759231567,-1.2046253681182861
1789402392405030700,7.90103076171875,-1.0415244102478027,0.02672533318400383,-1.120326042175293
1789402392414957000,7.91095703125,-1.0305289030075073,0.12446369975805283,-0.9615011811256409
1789402392424883200,7.92088330078125,-1.0219768285751343,0.2441931962966919,-0.7916807532310486
1789402392434809600,7.9308095703125,-1.0329723358154297,0.4030180275440216,-0.685390293598175
1789402392444736000,7.940736083984375,-1.063515543937683,0.5093085169792175,-0.5937605500221252
1789402392454662100,7.950662109375,-1.094058871269226,0.3981311321258545,-0.4874700903892517
1789402392464588500,7.960588623046875,-1.1404845714569092,0.13423752784729004,-0.5155698657035828
1789402392474514700,7.9705146484375,-1.2565488815307617,-0.17119485139846802,-0.7831286191940308
1789402392484441000,7.980441162109375,-1.3237439393997192,-0.13942988216876984,-1.0384701490402222
1789402392494367500,7.990367431640625,-1.3127484321594238,0.14401137828826904,-1.0384701490402222
1789402392504293600,8.000293701171875,-1.2968659400939941,0.3370446562767029,-0.9896009564399719
1789402392514220000,8.010219970703124,-1.212566614151001,0.3614792227745056,-0.9541707634925842
1789402392524146400,8.020146484375,-1.053741693496704,0.23441936075687408,-0.8405499458312988
1789402392534072600,8.030072509765626,-0.8558215498924255,-0.033139415085315704,-0.6108647584915161
1789402392543999000,8.0399990234375,-0.6750055551528931,-0.40088000893592834,-0.401949018239975
1789402392553925400,8.04992529296875,-0.5296197533607483,-0.7185297012329102,-0.3481929302215576
1789402392563851800,8.059851806640625,-0.4221075773239136,-0.755181610584259,-0.36163195967674255
1789402392573778200,8.069778076171875,-0.40378162264823914,-0.6696605086326599,-0.3970620930194855
1789402392583704600,8.07970458984375,-0.4477638900279999,-0.6024653911590576,-0.4862483739852905
1789402392593630700,8.089630615234375,-0.5271763205528259,-0.5621483325958252,-0.5974257588386536
1789402392603557000,8.09955712890625,-0.5955931544303894,-0.7832813858985901,-0.7379246354103088
1789402392613483500,8.1094833984375,-0.6200277805328369,-1.0447314977645874,-0.8295543789863586
1789402392623409700,8.11940966796875,-0.6224712133407593,-1.2328778505325317,-0.8185588121414185
1789402392633335800,8.129335693359375,-0.6530144214630127,-1.3990330696105957,-0.7794634699821472
1789402392643262200,8.13926220703125,-0.6688969135284424,-1.4320197105407715,-0.8026763200759888
1789402392653188400,8.149188232421874,-0.6505709886550903,-1.2927426099777222,-0.8747583627700806
1789402392663114500,8.159114501953125,-0.6126973628997803,-1.03129243850708,-0.9334014058113098
1789402392673040600,8.16904052734375,-0.648127555847168,-0.9775363802909851,-0.9676098227500916
1789402392682967000,8.178967041015625,-0.7727439403533936,-0.9347758293151855,-1.072678565979004
1789402392692893200,8.18889306640625,-0.9010255336761475,-0.9164499044418335,-1.2803726196289062
1789402392702819300,8.1988193359375,-0.934012234210968,-1.0887137651443481,-1.4770710468292236
1789402392712745500,8.208745361328125,-0.896138608455658,-1.225547432899475,-1.5063925981521606
1789402392722671900,8.218671875,-0.8484911918640137,-1.2292126417160034,-1.3817760944366455
1789402392732598000,8.228597900390625,-0.8668171167373657,-1.1583523750305176,-1.255937933921814
1789402392742524400,8.2385244140625,-0.9303470849990845,-0.9970840215682983,-1.2290599346160889
1789402392752450800,8.248450927734375,-0.9792162179946899,-0.8223767280578613,-1.3023637533187866
1789402392762377000,8.258376953125,-1.008537769317627,-0.6843212842941284,-1.3866630792617798
1789402392772303400,8.268303466796874,-1.0146464109420776,-0.5364919900894165,-1.3548980951309204
1789402392782229500,8.2782294921875,-0.9975422024726868,-0.3862192630767822,-1.2107340097427368
1789402392792156000,8.288156005859374,-0.9450078010559082,-0.25060728192329407,-1.0739002227783203
1789402392802082300,8.298082275390625,-0.8558215498924255,-0.033139415085315704,-0.9602794051170349
1789402392812008400,8.308008544921876,-0.7703005075454712,0.23564109206199646,-0.8173370957374573
1789402392821934800,8.317934814453125,-0.6933315396308899,0.5251910090446472,-0.6841685771942139
1789402392831861200,8.327861328125,-0.5613847374916077,0.651029109954834,-0.5351175665855408
1789402392841787400,8.337787353515624,-0.3842339515686035,0.688902735710144,-0.31154105067253113
1789402392851713800,8.3477138671875,-0.2205221801996231,0.8025236129760742,-0.18325942754745483
1789402392861640000,8.357639892578124,-0.09590577334165573,0.9699005484580994,-0.12095122784376144
1789402392871566300,8.36756640625,0.025045456364750862,1.1629338264465332,-0.017104214057326317
1789402392881492700,8.37749267578125,0.13011419773101807,1.2985458374023438,0.07574722915887833
1789402392891419000,8.3874189453125,0.14477495849132538,1.1812597513198853,0.18081597983837128
1789402392901345300,8.39734521484375,0.12278381735086441,0.9100357890129089,0.3274235129356384
1789402392911271400,8.407271484375,0.16798780858516693,0.7951932549476624,0.4838049113750458
1789402392921197800,8.41719775390625,0.29016077518463135,0.7072287201881409,0.5974257588386536
1789402392931124000,8.4271240234375,0.4062250852584839,0.42134398221969604,0.6780598759651184
1789402392941050400,8.43705029296875,0.5503891706466675,0.20998476445674896,0.8087849617004395
1789402392950976500,8.4469765625,0.7165443897247314,0.10369429737329483,0.9211840629577637
1789402392960903000,8.45690283203125,0.850934624671936,-0.0001527161948615685,0.9688315391540527
1789402392970829000,8.4668291015625,0.9645555019378662,0.10613775253295898,1.0213658809661865
1789402392980755200,8.476755126953124,1.0769546031951904,0.37980517745018005,1.0885610580444336
1789402392990681600,8.486681640625,1.18446683883667,0.6021599769592285,1.1337649822235107
1789402393000607700,8.496607666015626,1.2834268808364868,0.7560978531837463,1.1740821599960327
1789402393010534100,8.5065341796875,1.386052131652832,0.8355103135108948,1.2302817106246948
1789402393020460300,8.516460205078126,1.4960078001022339,0.8318451046943665,1.3084723949432373
1789402393030386700,8.52638671875,1.6059634685516357,0.9124792814254761,1.3292417526245117
1789402393040313000,8.53631298828125,1.6792672872543335,1.1055124998092651,1.2681553363800049
1789402393050239500,8.546239501953124,1.6731586456298828,1.226463794708252,1.2034035921096802
1789402393060166000,8.556165771484375,1.630398154258728,1.2973240613937378,1.2351685762405396
1789402393070092300,8.56609228515625,1.5607595443725586,1.4182753562927246,1.3402373790740967
1789402393080018400,8.576018310546875,1.4691298007965088,1.2130247354507446,1.2815942764282227
1789402393089944800,8.58594482421875,1.4691298007965088,0.8098539710044861,1.0140355825424194
1789402393099871200,8.595871337890625,1.426369309425354,0.5948295593261719,0.6914989352226257
1789402393109797600,8.605797607421875,1.3261874914169312,0.425009161233902,0.6914989352226257
1789402393119723800,8.615723876953124,1.2944225072860718,0.3016144931316376,0.8967494964599609
1789402393129650000,8.62564990234375,1.1979057788848877,-0.04413498193025589,0.8429933786392212
1789402393139576000,8.635576171875,1.1197150945663452,0.02306014485657215,0.9272927641868591
1789402393149502500,8.64550244140625,1.2064579725265503,0.41523534059524536,1.0482439994812012
1789402393159428600,8.6554287109375,1.268766164779663,0.393244206905365,0.8906408548355103
1789402393169354800,8.665354736328124,1.2968659400939941,0.1879936307668686,0.9089667797088623
1789402393179281000,8.675281005859375,1.3652827739715576,0.08170316368341446,1.1068869829177856
1789402393189207300,8.685207275390624,1.3848304748535156,0.12324196845293045,1.092226266860962
1789402393199133400,8.695133544921875,1.386052131652832,0.4995346665382385,1.0128138065338135
1789402393209059600,8.7050595703125,1.2797616720199585,0.6290380358695984,0.8845322132110596
1789402393218986000,8.714986083984375,1.0977239608764648,0.44577857851982117,0.7977893948554993
1789402393228912000,8.724912109375,0.924238383769989,0.3065013885498047,0.861319363117218
1789402393238838500,8.734838623046874,0.749531090259552,0.18066325783729553,0.8833104968070984
1789402393248765000,8.744764892578125,0.5442805290222168,0.009621120058000088,0.730594277381897
1789402393258691000,8.754691162109374,0.2620609998703003,-0.18829907476902008,0.49480047821998596
1789402393268617500,8.764617431640625,-0.043371398001909256,-0.3984365463256836,0.26022839546203613
1789402393278543600,8.774543701171876,-0.23273947834968567,-0.31291547417640686,0.16249002516269684
1789402393288470000,8.784469970703125,-0.3341430425643921,-0.09178243577480316,0.14660754799842834
1789402393298396400,8.794396484375,-0.3842339515686035,0.002290742937475443,0.1026252806186676
1789402393308322600,8.804322509765624,-0.42332929372787476,-0.09178243577480316,0
1789402393318249000,8.8142490234375,-0.5259546041488647,-0.43753188848495483,-0.15271618962287903
1789402393328175000,8.824175048828126,-0.6688969135284424,-0.7747292518615723,-0.3237583339214325
1789402393338101500,8.8341015625,-0.7336485981941223,-0.7002037763595581,-0.4776962697505951
1789402393348027600,8.844027587890626,-0.6774490475654602,-0.31413722038269043,-0.5204567909240723
1789402393357954000,8.8539541015625,-0.5894845128059387,0.15745039284229279,-0.4202749729156494
1789402393367880200,8.863880126953125,-0.4868592321872711,0.6571378111839294,-0.21991132199764252
1789402393377806300,8.873806396484374,-0.2632827162742615,0.9918916821479797,0.06230820715427399
1789402393387732700,8.883732666015625,-0.1948658674955368,0.9784526824951172,0.2516762912273407
1789402393397659000,8.893658935546876,-0.4172206521034241,0.5190823674201965,0.14172062277793884
1789402393407585300,8.903585205078125,-0.6530144214630127,-0.058795735239982605,-0.26022839546203613
1789402393417511400,8.913511474609376,-0.638353705406189,-0.10277800261974335,-0.6340776681900024
1789402393427437800,8.923437744140625,-0.4929678738117218,0.060933761298656464,-0.6609556674957275
1789402393437364000,8.933364013671875,-0.462424635887146,0.04016435891389847,-0.5766563415527344
1789402393447290400,8.943290283203124,-0.6420188546180725,-0.15775582194328308,-0.6462949514389038
1789402393457216800,8.953216796875,-0.8717040419578552,-0.12232567369937897,-0.7757982611656189
1789402393467143000,8.963142822265626,-0.9743293523788452,0.1049160286784172,-0.8368847370147705
1789402393477069300,8.9730693359375,-0.9193515181541443,0.3016144931316376,-0.7611374855041504
1789402393486995500,8.982995361328125,-0.7861829996109009,0.3663661479949951,-0.5534434914588928
1789402393496921900,8.992921875,-0.6493492722511292,0.1000291109085083,-0.3909534513950348
1789402393506848300,9.00284814453125,-0.5100721120834351,-0.2603811025619507,-0.41783151030540466
1789402393516774400,9.0127744140625,-0.3329212963581085,-0.43753188848495483,-0.5326740741729736
1789402393526700800,9.02270068359375,-0.12278381735086441,-0.45097091794013977,-0.5827649831771851
1789402393536627200,9.032627197265626,0.004276053514331579,-0.5401571989059448,-0.5314523577690125
1789402393546553600,9.0425537109375,-0.01282816007733345,-0.716086208820343,-0.44837474822998047
1789402393556480000,9.05247998046875,-0.08491020649671555,-0.8480330109596252,-0.4361574649810791
1789402393566406100,9.06240625,-0.1386663019657135,-0.8016073107719421,-0.5155698657035828
1789402393576332500,9.07233251953125,-0.2205221801996231,-0.614682674407959,-0.6206386089324951
1789402393586259000,9.082259033203124,-0.3231474757194519,-0.624456524848938,-0.7220421433448792
1789402393596185300,9.092185302734375,-0.42821621894836426,-0.949436604976654,-0.8796452879905701
1789402393606111700,9.10211181640625,-0.48075059056282043,-1.4479022026062012,-1.1398736238479614
1789402393616038000,9.112037841796875,-0.48563748598098755,-1.7008002996444702,-1.3023637533187866
1789402393625964000,9.121964111328126,-0.5161807537078857,-1.4356849193572998,-1.2498292922973633
1789402393635890200,9.13189013671875,-0.6298015713691711,-0.9897536635398865,-1.1924080848693848
1789402393645816300,9.14181640625,-0.7751874327659607,-0.6769908666610718,-1.2596031427383423
1789402393655742700,9.15174267578125,-0.9169080257415771,-0.8150463104248047,-1.4062107801437378
1789402393665668900,9.1616689453125,-0.9572250843048096,-1.4234676361083984,-1.5479313135147095
1789402393675595000,9.171594970703126,-0.8631519079208374,-1.9353723526000977,-1.5552617311477661
1789402393685521200,9.181521240234375,-0.7360920310020447,-1.9133812189102173,-1.4355322122573853
1789402393695447300,9.191447265625,-0.739757239818573,-1.559079647064209,-1.341459035873413
1789402393705373400,9.20137353515625,-0.841160774230957,-1.2487603425979614,-1.380554437637329
1789402393715299600,9.211299560546875,-0.9682206511497498,-1.042288064956665,-1.5112794637680054
1789402393725225700,9.221225830078126,-1.1038326025009155,-0.8993456959724426,-1.5870267152786255
1789402393735151900,9.23115185546875,-1.1759146451950073,-0.755181610584259,-1.4953969717025757
1789402393745078300,9.241078369140626,-1.229670763015747,-0.4607447683811188,-1.2901464700698853
1789402393755004400,9.25100439453125,-1.320078730583191,-0.13942988216876984,-1.1875211000442505
1789402393764930800,9.260930908203125,-1.4324779510498047,0.08536835014820099,-1.1789690256118774
1789402393774857000,9.27085693359375,-1.4813470840454102,0.2991710305213928,-1.0470222234725952
1789402393784783000,9.280783203125,-1.4324779510498047,0.3614792227745056,-0.7880155444145203
1789402393794709500,9.29070947265625,-1.3518437147140503,0.42745262384414673,-0.7000510096549988
1789402393804635600,9.3006357421875,-1.2003493309020996,0.539851725101471,-0.6450732350349426
1789402393814562000,9.31056201171875,-0.9731075763702393,0.607046902179718,-0.4581485986709595
1789402393824488200,9.32048828125,-0.7238747477531433,0.6339249014854431,-0.26022839546203613
1789402393834414600,9.33041455078125,-0.5247328281402588,0.6546943187713623,-0.1698204129934311
1789402393844340700,9.3403408203125,-0.4880809485912323,0.5740602016448975,-0.18325942754745483
1789402393854267000,9.350266845703125,-0.462424635887146,0.7023417949676514,-0.20280711352825165
1789402393864193300,9.360193359375,-0.3231474757194519,1.0236566066741943,-0.03176496922969818
1789402393874119400,9.370119384765625,-0.10323614627122879,1.291215419769287,0.26511532068252563
1789402393884045800,9.3800458984375,0.12767073512077332,1.3975058794021606,0.4276053309440613
1789402393893972000,9.389971923828124,0.2730565667152405,1.1397209167480469,0.42394015192985535
1789402393903898000,9.399898193359375,0.379347026348114,0.6693550944328308,0.4569268524646759
1789402393913824500,9.409824462890626,0.5015199780464172,0.2893971800804138,0.5913171172142029
1789402393923750700,9.419750732421875,0.6737838387489319,0.14034618437290192,0.8710931539535522
1789402393933677000,9.429677001953126,0.8545998334884644,0.2026543915271759,1.0580178499221802
1789402393943603200,9.439603271484375,1.01708984375,0.32360562682151794,1.0140355825424194
1789402393953529300,9.449529296875,1.2064579725265503,0.41034841537475586,1.0409135818481445
1789402393963455700,9.459455810546874,1.4080432653427124,0.49342602491378784,1.2119556665420532
1789402393973382000,9.4693818359375,1.533881425857544,0.5312996506690979,1.3365721702575684
1789402393983308300,9.479308349609376,1.6267329454421997,0.5997164845466614,1.4538581371307373
1789402393993234400,9.489234375,1.7513493299484253,0.6424770355224609,1.5332705974578857
1789402394003160800,9.499160888671875,1.8405355215072632,0.6424770355224609,1.4465278387069702
1789402394013087000,9.5090869140625,1.8979568481445312,0.6876810193061829,1.4098758697509766
1789402394023013400,9.519013427734375,1.9456043243408203,0.8379537463188171,1.470962405204773
1789402394032939800,9.528939697265624,1.9297218322753906,1.068860650062561,1.4660754203796387
1789402394042866000,9.538865966796875,1.981034517288208,0.9931133985519409,1.4196497201919556
1789402394052792300,9.548792236328126,2.0445644855499268,0.9271399974822998,1.4062107801437378
1789402394062718700,9.55871875,2.0665555000305176,0.8856012225151062,1.2547162771224976
1789402394072645000,9.56864501953125,2.0408992767333984,0.7841976881027222,1.2119556665420532
1789402394082571500,9.578571533203124,2.033568859100342,0.7108938694000244,1.3023637533187866
1789402394092498000,9.588497802734375,2.03723406791687,0.6754637360572815,1.304807186126709
1789402394102424000,9.598424072265624,1.9492695331573486,0.6302597522735596,1.2327251434326172
1789402394112350500,9.6083505859375,1.7611231803894043,0.45066550374031067,1.1239912509918213
1789402394122276600,9.618276611328126,1.6328415870666504,0.351705402135849,1.0213658809661865
1789402394132202800,9.62820263671875,1.591302752494812,0.32360562682151794,0.998153030872345
1789402394142129000,9.63812890625,1.5387684106826782,0.1415679156780243,1.0250310897827148
1789402394152055000,9.648054931640624,1.4679080247879028,0.04016435891389847,0.998153030872345
1789402394161981200,9.657981201171875,1.4202606678009033,0.018173227086663246,0.8466585874557495
1789402394171907300,9.6679072265625,1.3127484321594238,-0.029474224895238876,0.6780598759651184
1789402394181833500,9.67783349609375,1.1575887203216553,0.1256854236125946,0.7391464114189148
1789402394191759600,9.687759521484375,0.9792162179946899,0.2234237939119339,0.8967494964599609
1789402394201685800,9.697685791015624,0.7568614482879639,-0.1773035079240799,0.861319363117218
1789402394211612000,9.70761181640625,0.5772672295570374,-0.4656316637992859,0.7330377101898193
1789402394221538300,9.717538330078124,0.430659681558609,-0.388662725687027,0.6255255341529846
1789402394231464400,9.72746435546875,0.29626941680908203,-0.03802633285522461,0.4886918365955353
1789402394241390600,9.737390625,0.06902772188186646,0.051159925758838654,0.25045454502105713
1789402394251317000,9.74731689453125,-0.2816086709499359,-0.14920371770858765,0.014660755172371864
1789402394261243100,9.7572431640625,-0.6591231226921082,-0.4240928590297699,-0.17837251722812653
1789402394271169500,9.76716943359375,-1.0146464109420776,-0.7038689255714417,-0.3970620930194855
1789402394281095700,9.777095703125,-1.2846486568450928,-0.7796161770820618,-0.5998691916465759
1789402394291022000,9.78702197265625,-1.4007129669189453,-0.5059487819671631,-0.7330377101898193
1789402394300948200,9.7969482421875,-1.3652827739715576,-0.32879796624183655,-0.7709113359451294
1789402394310874400,9.806874267578126,-1.2663227319717407,-0.5267181396484375,-0.7880155444145203
1789402394320800800,9.81680078125,-1.2174534797668457,-0.6745474338531494,-0.8295543789863586
1789402394330727000,9.826726806640625,-1.1954623460769653,-0.44608399271965027,-0.8845322132110596
1789402394340653000,9.836653076171874,-1.0793980360031128,0.08903354406356812,-0.8759800791740417
1789402394350579200,9.8465791015625,-0.8387173414230347,0.39446592330932617,-0.6450732350349426
1789402394360505300,9.85650537109375,-0.7031053900718689,0.2075413018465042,-0.34086254239082336
1789402394370431700,9.866431640625,-0.7654135823249817,0.047494735568761826,-0.28588470816612244
1789402394380358000,9.87635791015625,-0.7861829996109009,0.2124282270669937,-0.328645259141922
1789402394390284000,9.886283935546874,-0.7629700899124146,0.5203040838241577,-0.2626718580722809
1789402394400210200,9.896210205078125,-0.7458658814430237,0.4335612654685974,-0.18325942754745483
1789402394410136600,9.906136474609376,-0.6908880472183228,0.005955931730568409,-0.2577849328517914
1789402394420062700,9.916062744140625,-0.638353705406189,-0.11499529331922531,-0.39339691400527954
1789402394429988900,9.92598876953125,-0.5858193039894104,0.051159925758838654,-0.4373791813850403
1789402394439915300,9.935915283203125,-0.5161807537078857,0.20021092891693115,-0.401949018239975
1789402394449841400,9.94584130859375,-0.4379900395870209,0.12690715491771698,-0.35185810923576355
1789402394459767800,9.955767822265624,-0.3329212963581085,-0.03436114266514778,-0.3090975880622864
1789402394469694000,9.96569384765625,-0.2315177470445633,-0.233503058552742,-0.2809978127479553
1789402394479620000,9.9756201171875,-0.15699224174022675,-0.45219266414642334,-0.27855435013771057
1789402394489546500,9.98554638671875,-0.13988803327083588,-0.551152765750885,-0.27000224590301514
1789402394499472600,9.99547265625,-0.16798780858516693,-0.4802924394607544,-0.235793799161911
1789402394509399000,10.00539892578125,-0.24373504519462585,-0.4387536346912384,-0.1844811588525772
1789402394519325200,10.0153251953125,-0.39278605580329895,-0.4558578431606293,-0.23212862014770508
1789402394529251600,10.02525146484375,-0.5064069032669067,-0.6024653911590576,-0.4557051360607147
1789402394539177700,10.035177734375,-0.4831940531730652,-0.74540776014328,-0.7086031436920166
1789402394549104000,10.045104248046876,-0.39889469742774963,-0.6562215089797974,-0.8283326625823975
1789402394559030500,10.055030517578125,-0.3646862804889679,-0.7698423266410828,-0.84177166223526
1789402394568956700,10.064956787109375,-0.39400777220726013,-1.2780818939208984,-0.8148936033248901
1789402394578883000,10.074883056640624,-0.4831940531730652,-1.6690353155136108,-0.8161153197288513
1789402394588809500,10.0848095703125,-0.5674933791160583,-1.540753722190857,-0.924849271774292
1789402394598735600,10.094735595703124,-0.6420188546180725,-1.0557270050048828,-1.1044435501098633
1789402394608662000,10.104662109375,-0.7409789562225342,-0.7649554014205933,-1.2412772178649902
1789402394618588200,10.114588134765626,-0.8594867587089539,-0.7099775671958923,-1.323133111000061
1789402394628514300,10.124514404296875,-1.0109812021255493,-0.8956804871559143,-1.4025455713272095
1789402394638440400,10.1344404296875,-1.1673625707626343,-0.9897536635398865,-1.5039490461349487
1789402394648366600,10.14436669921875,-1.2834268808364868,-0.8773545622825623,-1.5503748655319214
1789402394658292700,10.154292724609375,-1.3408482074737549,-0.7637336850166321,-1.5112794637680054
1789402394668219000,10.164218994140626,-1.357952356338501,-0.7038689255714417,-1.4734058380126953
1789402394678145000,10.17414501953125,-1.388495683670044,-0.717307984828949,-1.4563016891479492
1789402394688071200,10.1840712890625,-1.388495683670044,-0.6366738080978394,-1.3854413032531738
1789402394697997300,10.193997314453124,-1.357952356338501,-0.31902414560317993,-1.2034035921096802
1789402394707923500,10.20392333984375,-1.4007129669189453,-0.35811948776245117,-1.0421353578567505
1789402394717849900,10.213849853515624,-1.5228859186172485,-0.5926915407180786,-1.0983349084854126
1789402394727776000,10.22377587890625,-1.5399900674819946,-0.3813323378562927,-1.237612009048462
1789402394737702100,10.2337021484375,-1.4422518014907837,-0.0746782198548317,-1.120326042175293
1789402394747628300,10.243628173828125,-1.22234046459198,0.4494437575340271,-0.7929024696350098
1789402394757554400,10.253554443359375,-0.9926552772521973,0.8807142972946167,-0.5583304166793823
1789402394767480800,10.263480712890624,-0.7788525819778442,0.7903063297271729,-0.40317076444625854
1789402394777407000,10.273406982421875,-0.583375871181488,0.5911644101142883,-0.24312418699264526
1789402394787333000,10.2833330078125,-0.43310311436653137,0.607046902179718,-0.14538581669330597
1789402394797259300,10.29325927734375,-0.3756818473339081,0.6412553191184998,-0.0720820426940918
1789402394807185400,10.303185302734375,-0.32192572951316833,0.7988584041595459,0.08063415437936783
1789402394817111800,10.31311181640625,-0.185092031955719,0.9271399974822998,0.30543237924575806
1789402394827038000,10.323037841796875,0.06047561392188072,0.9503529071807861,0.5021308660507202
1789402394836964000,10.332964111328126,0.3231474757194519,1.0089958906173706,0.637742817401886
1789402394846890500,10.342890380859375,0.5601630210876465,1.1910336017608643,0.7391464114189148
1789402394856816600,10.352816650390626,0.6835576891899109,1.1409426927566528,0.7147117853164673
1789402394866743000,10.362742919921875,0.7226530313491821,0.698676586151123,0.7623592615127563
1789402394876669200,10.372669189453125,0.7996219992637634,0.2503018379211426,0.9676098227500916
1789402394886595600,10.382595703125,0.925460159778595,0.07681624591350555,1.0445787906646729
1789402394896521700,10.392521728515625,1.0610721111297607,0.11835505068302155,1.0751219987869263
1789402394906448000,10.40244775390625,1.1417062282562256,0.36880961060523987,1.1252129077911377
1789402394916374300,10.412374267578125,1.1282672882080078,0.46776971220970154,1.0873392820358276
1789402394926300400,10.422300537109376,1.2479966878890991,0.5068650245666504,1.3390156030654907
1789402394936226600,10.4322265625,1.4752384424209595,0.5422952175140381,1.6322306394577026
1789402394946152700,10.442152587890625,1.6413936614990234,0.5923861265182495,1.5870267152786255
1789402394956079000,10.4520791015625,1.6975932121276855,0.5716167092323303,1.422093152999878
1789402394966005200,10.462005126953125,1.6963714361190796,0.6009382009506226,1.3829978704452515
1789402394975931400,10.471931396484376,1.7012584209442139,0.8697187304496765,1.3866630792617798
1789402394985857500,10.481857421875,1.747684121131897,1.3571888208389282,1.2974767684936523
1789402394995783700,10.49178369140625,1.8161009550094604,1.6601777076721191,1.1349867582321167
1789402395005710000,10.5017099609375,1.8637484312057495,1.6467387676239014,1.0506874322891235
1789402395015636200,10.51163623046875,1.8417572975158691,1.4610358476638794,1.0482439994812012
1789402395025562400,10.521562255859376,1.7818925380706787,1.2118029594421387,1.1117738485336304
1789402395035488800,10.53148876953125,1.7611231803894043,1.0480912923812866,1.1948515176773071
1789402395045415200,10.541415283203126,1.7696752548217773,1.0041090250015259,1.1154390573501587
1789402395055341300,10.55134130859375,1.638950228691101,0.8880446553230286,0.7696896195411682
1789402395065267700,10.561267822265625,1.3665045499801636,0.393244206905365,0.4862483739852905
1789402395075194000,10.571194091796874,1.155145287513733,-0.07712167501449585,0.5045742988586426
1789402395085120300,10.581120361328125,1.0427461862564087,-0.029474224895238876,0.5192350745201111
1789402395095046700,10.591046630859376,0.9828814268112183,0.3272708058357239,0.46914416551589966
1789402395104972800,10.600972900390625,0.9731075763702393,0.393244206905365,0.4471530318260193
1789402395114899200,10.610899169921876,0.8888082504272461,-0.1406516134738922,0.370184063911438
1789402395124825600,10.62082568359375,0.7922916412353516,-0.4130973219871521,0.49602219462394714
1789402395134751700,10.630751708984375,0.7703005075454712,-0.264046311378479,0.7183769941329956
1789402395144678100,10.64067822265625,0.8057306408882141,0.09758564829826355,0.7696896195411682
1789402395154604500,10.6506044921875,0.8619301915168762,0.4689914286136627,0.748920202255249
1789402395164530700,10.66053076171875,0.7556397318840027,0.3174969553947449,0.6805033683776855
1789402395174457000,10.67045703125,0.5516108870506287,-0.0062613640911877155,0.6316341757774353
1789402395184383200,10.68038330078125,0.3707949221134186,-0.13698641955852509,0.6047561168670654
1789402395194308900,10.690308837890624,0.21441353857517242,-0.21639885008335114,0.5131264328956604
1789402395204234200,10.700234130859375,0.13500112295150757,-0.06246092543005943,0.41905322670936584
1789402395214160600,10.71016064453125,0.03848448023200035,-0.16019928455352783,0.31154105067253113
1789402395224086800,10.720086669921875,-0.12767073512077332,-0.5108356475830078,0.2211330533027649
1789402395234013200,10.73001318359375,-0.3194822669029236,-0.7588467597961426,0.12095122784376144
1789402395243939300,10.739939208984374,-0.47464191913604736,-0.6733257174491882,-0.03176496922969818
1789402395253865500,10.749865478515625,-0.5308414697647095,-0.1663079410791397,-0.13927717506885529
1789402395263791600,10.75979150390625,-0.4477638900279999,0.3223838806152344,-0.10751219838857651
1789402395273717800,10.7697177734375,-0.39889469742774963,0.15867212414741516,-0.04764745384454727
1789402395283644200,10.77964404296875,-0.45509424805641174,-0.09300415962934494,-0.07452550530433655
1789402395293570300,10.7895703125,-0.648127555847168,-0.5633700489997864,-0.32009315490722656
1789402395303496400,10.799496337890625,-0.8692606091499329,-0.7832813858985901,-0.7770199775695801
1789402395313422800,10.8094228515625,-1.0158681869506836,-0.2029598206281662,-1.1814124584197998
1789402395323349000,10.819348876953125,-1.007315993309021,0.8147408962249756,-1.1875211000442505
1789402395333275100,10.829275146484376,-0.8216131329536438,1.3205369710922241,-0.7391464114189148
1789402395343201300,10.839201171875,-0.7079922556877136,0.9014837145805359,-0.2528980076313019
1789402395353127400,10.84912744140625,-0.832608699798584,0.4176788032054901,-0.16859868168830872
1789402395363053800,10.8590537109375,-0.9181297421455383,0.2649625837802887,-0.37751442193984985
1789402395372980000,10.86897998046875,-0.7348703145980835,0.19043709337711334,-0.5510000586509705
1789402395382906000,10.878906005859376,-0.41233372688293457,0.11224640160799026,-0.5082395076751709
1789402395392832300,10.888832275390625,-0.15088360011577606,-0.10155627131462097,-0.2932150959968567
1789402395402758700,10.898758544921876,-0.0054977829568088055,-0.46807512640953064,-0.11239911615848541
1789402395412684800,10.908684814453125,0.0409279391169548,-0.7392991185188293,-0.15271618962287903
1789402395422611000,10.91861083984375,0.04825831577181816,-0.7893900275230408,-0.3652971386909485
1789402395432537300,10.928537353515624,-0.029932374134659767,-0.7197514176368713,-0.6291907429695129
1789402395442463500,10.93846337890625,-0.19608759880065918,-0.5523744821548462,-0.84177166223526
1789402395452389600,10.9483896484375,-0.4062250852584839,-0.42042768001556396,-0.9334014058113098
1789402395462315800,10.958315673828125,-0.6114756464958191,-0.2591593861579895,-0.962722897529602
1789402395472242000,10.968241943359375,-0.7800742983818054,-0.027030766010284424,-0.9419534802436829
1789402395482168300,10.978168212890624,-0.9120211005210876,0.015729768201708794,-0.8552106618881226
1789402395492094500,10.988094482421875,-0.9071341753005981,-0.3556760251522064,-0.8063415288925171
1789402395502020600,10.9980205078125,-0.7703005075454712,-0.8297070860862732,-0.9089667797088623
1789402395511946800,11.00794677734375,-0.6175842881202698,-1.3318378925323486,-1.0800089836120605
1789402395521873000,11.017872802734376,-0.5112938284873962,-1.6421571969985962,-1.1056652069091797
1789402395531799300,11.02779931640625,-0.5381718873977661,-1.7753257751464844,-1.0384701490402222
1789402395541725400,11.037725341796875,-0.7238747477531433,-1.6714787483215332,-1.1459823846817017
1789402395551651600,11.047651611328124,-0.953559935092926,-1.1864521503448486,-1.4966187477111816
1789402395561577700,11.05757763671875,-1.0390809774398804,-0.6818777918815613,-1.8032728433609009
1789402395571504000,11.067504150390626,-0.9755510687828064,-0.5083922147750854,-1.7421863079071045
1789402395581430300,11.07743017578125,-0.8998038172721863,-0.6403390169143677,-1.4355322122573853
1789402395591356400,11.0873564453125,-0.9902117848396301,-0.8419243693351746,-1.1887428760528564
1789402395601282600,11.097282470703124,-1.174692988395691,-0.8077159523963928,-1.1215476989746094
1789402395611208700,11.107208740234375,-1.3188570737838745,-0.5975784659385681,-1.1716386079788208
1789402395621135000,11.117135009765626,-1.368947982788086,-0.4179842174053192,-1.275485634803772
1789402395631061200,11.127061279296875,-1.3713914155960083,-0.4277580678462982,-1.3756674528121948
1789402395640987400,11.1369873046875,-1.36772620677948,-0.6574432253837585,-1.351232886314392
1789402395650913500,11.14691357421875,-1.3225222826004028,-0.8736893534660339,-1.099556565284729
1789402395660840000,11.15683984375,-1.288313865661621,-0.8260418772697449,-0.7745765447616577
1789402395670766000,11.16676611328125,-1.3005311489105225,-0.5083922147750854,-0.6218603253364563
1789402395680692200,11.176692138671875,-1.2809834480285645,-0.06490438431501389,-0.5937605500221252
1789402395690618400,11.186618408203126,-1.163697361946106,0.26251915097236633,-0.5619956254959106
1789402395700544800,11.196544677734375,-0.9914335608482361,0.23564109206199646,-0.44959646463394165
1789402395710471000,11.206470947265625,-0.8521563410758972,0.09147699922323227,-0.23823726177215576
1789402395720397000,11.21639697265625,-0.739757239818573,0.38102689385414124,-0.18081597983837128
1789402395730323200,11.2263232421875,-0.565049946308136,0.7585413455963135,-0.20402882993221283
1789402395740249300,11.236249267578126,-0.3952295184135437,0.8721621632575989,-0.036651886999607086
1789402395750175700,11.24617578125,-0.22785256803035736,0.8147408962249756,0.29565855860710144
1789402395760102000,11.256101806640626,-0.0824667438864708,0.7157807946205139,0.5864301919937134
1789402395770028000,11.266028076171875,0.05558869615197182,0.7414371371269226,0.6890554428100586
1789402395779954200,11.2759541015625,0.23029601573944092,0.836732029914856,0.5876519083976746
1789402395789880600,11.285880615234374,0.4221075773239136,0.7744238376617432,0.5009090900421143
1789402395799806700,11.295806640625,0.5308414697647095,0.6265945434570312,0.5534434914588928
1789402395809732900,11.30573291015625,0.5626064538955688,0.597273051738739,0.7354812026023865
1789402395819659000,11.315658935546875,0.6102539300918579,0.6363683938980103,0.9260709881782532
1789402395829585200,11.325585205078125,0.6994401812553406,0.7499892115592957,1.0042617321014404
1789402395839511600,11.335511474609374,0.8619301915168762,0.7414371371269226,1.081230640411377
1789402395849437700,11.345437744140625,1.0855066776275635,0.5203040838241577,1.1679733991622925
1789402395859363800,11.35536376953125,1.3066397905349731,0.20387612283229828,1.2400555610656738
1789402395869290000,11.3652900390625,1.5167772769927979,0.12446369975805283,1.3182462453842163
1789402395879216000,11.375216064453125,1.6377284526824951,0.37369653582572937,1.2327251434326172
1789402395889142500,11.385142578125,1.6438370943069458,0.7658717036247253,1.1496474742889404
1789402395899068700,11.395068603515625,1.6145156621932983,1.1018472909927368,1.2070688009262085
1789402395908994800,11.404994873046874,1.609628677368164,1.2594504356384277,1.2424989938735962
1789402395918921000,11.4149208984375,1.6890411376953125,1.205694317817688,1.2315033674240112
1789402395928847000,11.42484716796875,1.7916663885116577,1.0651954412460327,1.1398736238479614
1789402395938773200,11.434773193359375,1.813657522201538,0.8782708644866943,0.9883792400360107
1789402395948699600,11.44469970703125,1.8222095966339111,0.9063706398010254,1.0164790153503418
1789402395958625800,11.454625732421874,1.8442007303237915,0.9772309064865112,1.1227694749832153
1789402395968552000,11.464552001953125,1.8674136400222778,0.9967786073684692,1.1801908016204834
1789402395978478000,11.47447802734375,1.8808526992797852,1.0554215908050537,1.1838558912277222
1789402395988404200,11.484404296875,1.8075488805770874,0.9369138479232788,1.033583164215088
1789402395998330600,11.49433056640625,1.630398154258728,0.5752819180488586,0.8478803038597107
1789402396008256800,11.5042568359375,1.4813470840454102,0.4543306827545166,0.7428115606307983
1789402396018183000,11.514182861328125,1.4227041006088257,0.5984947681427002,0.7220421433448792
1789402396028109000,11.524109130859374,1.3811652660369873,0.6473639607429504,0.7538071274757385
1789402396038035200,11.53403515625,1.3261874914169312,0.48731738328933716,0.695164144039154
1789402396047961600,11.543961669921876,1.1881320476531982,0.03894263133406639,0.5253437161445618
1789402396057887700,11.5538876953125,1.063515543937683,-0.04169152304530144,0.554665207862854
1789402396067814000,11.56381396484375,1.0891718864440918,0.28817546367645264,0.7599157691001892
1789402396077740000,11.573739990234374,1.232114315032959,0.5227475166320801,0.833219587802887
1789402396087666200,11.583666259765625,1.1710277795791626,0.2649625837802887,0.6560688018798828
1789402396097592600,11.593592529296876,0.870482325553894,-0.22739441692829132,0.43493571877479553
1789402396107518700,11.603518798828125,0.5271763205528259,-0.49984011054039,0.35063639283180237
1789402396117444900,11.61344482421875,0.2889390289783478,-0.24816381931304932,0.2993237376213074
1789402396127371000,11.62337109375,0.1740964651107788,-0.011148282326757908,0.21502439677715302
1789402396137297400,11.63329736328125,0.10934479534626007,-0.1467602699995041,0.12461641430854797
1789402396147223600,11.6432236328125,-0.027488915249705315,-0.4912880063056946,-0.008552107028663158
1789402396157149700,11.653149658203125,-0.20830489695072174,-0.6061305999755859,-0.11239911615848541
1789402396167075800,11.663075927734376,-0.3402516841888428,-0.37522369623184204,-0.1637117564678192
1789402396177002000,11.673001953125,-0.4159989058971405,-0.3214675784111023,-0.1893680840730667
1789402396186928000,11.68292822265625,-0.500298261642456,-0.6159043908119202,-0.24923282861709595
1789402396196854300,11.692854248046874,-0.5797106623649597,-0.7735075354576111,-0.3591884970664978
1789402396206780700,11.70278076171875,-0.6017017960548401,-0.6769908666610718,-0.4422661066055298
1789402396216706800,11.712706787109376,-0.5662716627120972,-0.4277580678462982,-0.46914416551589966
1789402396226633000,11.722633056640625,-0.49052441120147705,-0.029474224895238876,-0.4312705397605896
1789402396236559000,11.73255908203125,-0.42088583111763,0.25274530053138733,-0.3494146466255188
1789402396246485200,11.7424853515625,-0.4428769648075104,0.2955058515071869,-0.3225366175174713
1789402396256411600,11.75241162109375,-0.5564978122711182,0.34315329790115356,-0.34574946761131287
1789402396266337800,11.762337890625,-0.7531962990760803,0.20021092891693115,-0.46059203147888184
1789402396276264000,11.772263916015625,-0.9596685767173767,0.1366809904575348,-0.7147117853164673
1789402396286190000,11.782190185546876,-1.0036507844924927,0.43600472807884216,-0.916297197341919
1789402396296116200,11.7921162109375,-0.8814778923988342,0.6595812439918518,-0.8625410795211792
1789402396306042400,11.80204248046875,-0.7409789562225342,0.4751000702381134,-0.667064368724823
1789402396315968500,11.811968505859374,-0.6395754218101501,0.10613775253295898,-0.5326740741729736
1789402396325895000,11.82189501953125,-0.5393936038017273,-0.2237292230129242,-0.4776962697505951
1789402396335821000,11.831821044921876,-0.4367683231830597,-0.4607447683811188,-0.49480047821998596
1789402396345747200,11.841747314453125,-0.3292561173439026,-0.5181660652160645,-0.5253437161445618
1789402396355673300,11.85167333984375,-0.21319180727005005,-0.5377137064933777,-0.48502662777900696
1789402396365599700,11.861599853515624,-0.18753549456596375,-0.7564033269882202,-0.5180133581161499
1789402396375526000,11.87152587890625,-0.24862197041511536,-0.8431460857391357,-0.695164144039154
1789402396385452000,11.8814521484375,-0.30970844626426697,-0.6769908666610718,-0.8173370957374573
1789402396395378200,11.891378173828125,-0.35613417625427246,-0.4912880063056946,-0.8588758707046509
1789402396405304300,11.90130419921875,-0.39767298102378845,-0.3605629503726959,-0.8442151546478271
1789402396415230500,11.91123046875,-0.4098902642726898,-0.4143190383911133,-0.7012727856636047
1789402396425156600,11.921156494140625,-0.3646862804889679,-0.7111993432044983,-0.5241219997406006
1789402396435083000,11.9310830078125,-0.37323838472366333,-1.0276272296905518,-0.5155698657035828
1789402396445009200,11.941009033203125,-0.5247328281402588,-1.23654305934906,-0.7709113359451294
1789402396454935300,11.950935302734376,-0.7409789562225342,-1.287855625152588,-1.119104266166687
1789402396464861400,11.960861328125,-0.9010255336761475,-1.1290308237075806,-1.3475676774978638
1789402396474787600,11.97078759765625,-0.9743293523788452,-0.9311106204986572,-1.4379756450653076
1789402396484713700,11.980713623046874,-0.9547816514968872,-1.0288490056991577,-1.3976585865020752
1789402396494639900,11.990639892578125,-0.934012234210968,-1.430798053741455,-1.2180644273757935
1789402396504566300,12.000566162109376,-1.0024291276931763,-1.687361240386963,-1.0677915811538696
1789402396514492400,12.010492431640625,-1.1148282289505005,-1.4527891874313354,-1.1447606086730957
1789402396524418600,12.02041845703125,-1.1991275548934937,-1.041066288948059,-1.3891065120697021
1789402396534344700,12.0303447265625,-1.2174534797668457,-0.9078977704048157,-1.536935806274414
1789402396544271000,12.04027099609375,-1.2174534797668457,-0.9983057379722595,-1.4355322122573853
1789402396554197200,12.050197265625,-1.3041963577270508,-1.080161690711975,-1.25715970993042
1789402396564123400,12.060123291015625,-1.433699607849121,-0.9140064120292664,-1.2290599346160889
1789402396574049500,12.070049560546876,-1.505781650543213,-0.6415607333183289,-1.2412772178649902
1789402396583975700,12.0799755859375,-1.4764602184295654,-0.5022835731506348,-1.071456789970398
1789402396593901800,12.08990185546875,-1.3811652660369873,-0.20906847715377808,-0.7648026943206787
1789402396603828000,12.099827880859374,-1.3249657154083252,0.16600249707698822,-0.5314523577690125
1789402396613754400,12.10975439453125,-1.2797616720199585,0.37980517745018005,-0.5424479246139526
1789402396623680500,12.119680419921876,-1.1710277795791626,0.41645705699920654,-0.7476984858512878
1789402396633606700,12.129606689453125,-1.0769546031951904,0.38957902789115906,-0.7733548283576965
1789402396643532800,12.13953271484375,-1.0122029781341553,0.6119337677955627,-0.4581485986709595
1789402396653459000,12.149458984375,-0.924238383769989,0.8758273720741272,-0.08674279600381851
1789402396663385000,12.159385009765625,-0.6872228980064392,0.8440623879432678,0.13439024984836578
1789402396673311200,12.169311279296876,-0.42943793535232544,0.6461422443389893,0.12950333952903748
1789402396683237600,12.179237548828125,-0.22663083672523499,0.523969292640686,0.06963858753442764
1789402396693163800,12.189163818359376,-0.0922405794262886,0.5569559335708618,0.09285144507884979
1789402396703090000,12.19908984375,-0.000610864779446274,0.5361865758895874,0.20158538222312927
1789402396713016000,12.20901611328125,0.09834922850131989,0.393244206905365,0.37629270553588867
1789402396722942200,12.218942138671874,0.17531819641590118,0.41157013177871704,0.4581485986709595
1789402396732868400,12.228868408203125,0.2571740746498108,0.4689914286136627,0.48991355299949646
1789402396742794800,12.238794677734376,0.45020735263824463,0.708450436592102,0.6243038177490234
1789402396752721000,12.248720947265625,0.7654135823249817,1.1519381999969482,0.8161153197288513
1789402396762647000,12.25864697265625,1.1221586465835571,1.3254238367080688,1.0067051649093628
1789402396772573200,12.2685732421875,1.3103049993515015,1.0664172172546387,1.0519092082977295
1789402396782499300,12.278499267578125,1.395825982093811,0.6950113773345947,1.061682939529419
1789402396792425500,12.288425537109376,1.4935643672943115,0.39446592330932617,1.1227694749832153
1789402396802351600,12.2983515625,1.601076602935791,0.3871355652809143,1.1875211000442505
1789402396812278000,12.308278076171876,1.6829324960708618,0.5435169339179993,1.29503333568573
1789402396822204200,12.3182041015625,1.7122539281845093,0.58749920129776,1.3585633039474487
1789402396832130300,12.32813037109375,1.7024801969528198,0.5960513353347778,1.3096940517425537
1789402396842056400,12.338056396484374,1.6890411376953125,0.5557342171669006,1.2510510683059692
1789402396851982600,12.347982666015625,1.7171409130096436,0.6473639607429504,1.2632683515548706
1789402396861908700,12.35790869140625,1.7647883892059326,0.9833396077156067,1.29503333568573
1789402396871835000,12.3678349609375,1.824653148651123,1.2301290035247803,1.3500111103057861
1789402396881761000,12.377760986328125,1.8344268798828125,1.2460113763809204,1.3829978704452515
1789402396891687200,12.387687255859374,1.7904446125030518,1.0749692916870117,1.3720022439956665
1789402396901613600,12.397613525390625,1.7611231803894043,0.8025236129760742,1.3267983198165894
1789402396911539700,12.407539794921876,1.7733404636383057,0.5349648594856262,1.1716386079788208
1789402396921465900,12.4174658203125,1.7989968061447144,0.5435169339179993,1.0299180746078491
1789402396931392000,12.42739208984375,1.8686354160308838,0.8355103135108948,1.099556565284729
1789402396941318100,12.437318115234374,1.952934741973877,1.2851067781448364,1.2241730690002441
1789402396951244300,12.447244384765625,1.9370522499084473,1.5819870233535767,1.1349867582321167
1789402396961170700,12.457170654296876,1.6475023031234741,1.197142243385315,0.8393282294273376
1789402396971096800,12.467096923828125,1.1661409139633179,0.4066832363605499,0.7293725609779358
1789402396981023000,12.47702294921875,0.8057306408882141,-0.2689332067966461,0.8185588121414185
1789402396990949000,12.48694921875,0.6407971382141113,-0.6195695996284485,0.7672461867332458
1789402397000875300,12.496875244140625,0.5723803043365479,-0.4558578431606293,0.5913171172142029
