time,seconds_elapsed,z,y,x
1789022014798388500,0.224388427734375,-0.2516762912273407,0.014049889519810677,0.05925388261675835
1789022014808314000,0.234314208984375,-0.19730933010578156,0.07086031138896942,0.07635809481143951
1789022014818239700,0.24423974609375,-0.17226386070251465,0.11423171311616898,0.0922405794262886
1789022014828165400,0.254165283203125,-0.19242240488529205,0.10873392969369888,0.08124501258134842
1789022014838091000,0.264091064453125,-0.235793799161911,0.0873536616563797,0.037262752652168274
1789022014848016600,0.2740166015625,-0.28466299176216125,0.050090912729501724,-0.03237583488225937
1789022014857942300,0.2839423828125,-0.32070401310920715,-0.02871064469218254,-0.11056652665138245
1789022014867868000,0.293867919921875,-0.3231474757194519,-0.1588248461484909,-0.17165300250053406
1789022014877793500,0.30379345703125,-0.3072649836540222,-0.3335321843624115,-0.20280711352825165
1789022014887719000,0.313718994140625,-0.2828303873538971,-0.47097674012184143,-0.20280711352825165
1789022014897644500,0.32364453125,-0.21685700118541718,-0.5076286196708679,-0.18325942754745483
1789022014907570200,0.333570068359375,-0.1698204129934311,-0.5345066785812378,-0.18753549456596375
1789022014917495800,0.343495849609375,-0.1496618688106537,-0.5387827157974243,-0.22418737411499023
1789022014927421400,0.35342138671875,-0.12705987691879272,-0.4575377106666565,-0.2809978127479553
1789022014937347000,0.36334716796875,-0.10140355676412582,-0.3341430425643921,-0.35246896743774414
1789022014947272700,0.373272705078125,-0.07819069176912308,-0.24923282861709595,-0.43371400237083435
1789022014957198300,0.3831982421875,-0.05497783049941063,-0.2657261788845062,-0.5021308660507202
1789022014967124000,0.3931240234375,-0.040317077189683914,-0.35124725103378296,-0.5412262082099915
1789022014977049600,0.403049560546875,-0.031154103577136993,-0.45937031507492065,-0.5467239618301392
1789022014986975200,0.412975341796875,-0.020769402384757996,-0.5778780579566956,-0.5204567909240723
1789022014996900900,0.42290087890625,-0.0054977829568088055,-0.711046576499939,-0.471587598323822
1789022015006826500,0.432826416015625,0.018325943499803543,-0.8216131329536438,-0.40805765986442566
1789022015016752000,0.442752197265625,0.04153880476951599,-0.8631519079208374,-0.33719736337661743
1789022015026677800,0.452677734375,0.059864748269319534,-0.8240565657615662,-0.2577849328517914
1789022015036603400,0.462603271484375,0.09162971377372742,-0.6884446144104004,-0.15821397304534912
1789022015046529000,0.472529052734375,0.11911863088607788,-0.5057960152626038,-0.02932151034474373
1789022015056454700,0.48245458984375,0.14172062277793884,-0.2889390289783478,0.11484257876873016
1789022015066380300,0.49238037109375,0.24434591829776764,-0.09896009415388107,0.2528980076313019
1789022015076306000,0.502305908203125,0.44470956921577454,0.20769402384757996,0.36651885509490967
1789022015086231600,0.5122314453125,0.5204567909240723,0.5045742988586426,0.5094612240791321
1789022015096157200,0.5221572265625,0.5271763205528259,0.4984656572341919,0.6682860851287842
1789022015106082800,0.532082763671875,0.5174024701118469,0.30482152104377747,0.8387173414230347
1789022015116008400,0.542008544921875,0.5375609993934631,-0.01282816007733345,1.0195332765579224
1789022015125934000,0.55193408203125,0.5821541547775269,-0.3964512348175049,1.1887428760528564
1789022015135859700,0.561859619140625,0.6603448390960693,-0.758083164691925,1.3457350730895996
1789022015145785600,0.57178564453125,0.7812960743904114,-0.9877683520317078,1.4862339496612549
1789022015155711200,0.581711181640625,0.9230166673660278,-1.0806198120117188,1.588248372077942
1789022015165636900,0.591636962890625,1.053741693496704,-1.1087195873260498,1.635895848274231
1789022015175562500,0.6015625,1.1343759298324585,-1.1099413633346558,1.6114612817764282
1789022015185488000,0.61148779296875,1.137430191040039,-1.1038326025009155,1.4691298007965088
1789022015195413800,0.621413818359375,0.9950987100601196,-1.100778341293335,1.1594213247299194
1789022015205339400,0.63133935546875,0.7648026943206787,-0.8857539296150208,0.7739656567573547
1789022015215265000,0.64126513671875,0.5717694163322449,-0.462424635887146,0.4581485986709595
1789022015225190700,0.651190673828125,0.4453204274177551,-0.014049889519810677,0.30604326725006104
1789022015235116300,0.6611162109375,0.35246896743774414,0.3127627670764923,0.31581708788871765
1789022015245042000,0.6710419921875,0.2724456787109375,0.4886918365955353,0.4569268524646759
1789022015254967600,0.680967529296875,0.19914191961288452,0.544891357421875,0.6640099883079529
1789022015264893200,0.69089306640625,0.12705987691879272,0.5308414697647095,0.8313869833946228
1789022015274818800,0.70081884765625,0.07147117704153061,0.2761108875274658,0.8912517428398132
1789022015284744400,0.710744384765625,0.06230820715427399,-0.17531819641590118,0.8503237962722778
1789022015294670000,0.720670166015625,0.10201441496610641,-0.5021308660507202,0.7672461867332458
1789022015304595700,0.730595703125,0.18325942754745483,-0.6304124593734741,0.6493492722511292
1789022015314521600,0.740521484375,0.3347539007663727,-0.5705476999282837,0.4770853817462921
1789022015324447200,0.750447265625,0.5027416944503784,-0.4734202027320862,0.2828303873538971
1789022015334372900,0.760372802734375,0.62857985496521,-0.4056142270565033,0.10079269111156464
1789022015344298500,0.770298583984375,0.7006618976593018,-0.3585776388645172,-0.053756099194288254
1789022015354224000,0.78022412109375,0.7049379348754883,-0.31642794609069824,-0.20158538222312927
1789022015364149800,0.790149658203125,0.618806004524231,-0.32009315490722656,-0.3439168632030487
1789022015374075400,0.800075439453125,0.4581485986709595,-0.3909534513950348,-0.45387253165245056
1789022015384001000,0.8100009765625,0.277332603931427,-0.47464191913604736,-0.4917461574077606
1789022015393927000,0.819927001953125,0.1441640853881836,-0.6145299673080444,-0.42394015192985535
1789022015403852500,0.8298525390625,0.10079269111156464,-0.8240565657615662,-0.2834412455558777
1789022015413778200,0.839778076171875,0.11056652665138245,-0.9224058389663696,-0.050090912729501724
1789022015423703800,0.849703857421875,0.08429934084415436,-1.025641918182373,0.23518294095993042
1789022015433629400,0.85962939453125,-0.024434590712189674,-1.183245062828064,0.4935787320137024
1789022015443555000,0.86955517578125,-0.19242240488529205,-1.2870920896530151,0.6866120100021362
1789022015453480700,0.879480712890625,-0.3659079968929291,-1.2528836727142334,0.8118392825126648
1789022015463406600,0.889406494140625,-0.4526508152484894,-1.2901464700698853,0.9480621218681335
1789022015473332200,0.899332275390625,-0.4581485986709595,-1.4923427104949951,1.1227694749832153
1789022015483257900,0.9092578125,-0.4251618981361389,-1.6438370943069458,1.2534945011138916
1789022015493183500,0.91918359375,-0.28038692474365234,-1.8460333347320557,1.0286962985992432
1789022015503109000,0.929109130859375,-0.3042106628417969,-1.7831143140792847,0.5400044918060303
1789022015513034800,0.93903466796875,-0.3494146466255188,-1.2363903522491455,0.11239911615848541
1789022015522960600,0.948960693359375,-0.28954991698265076,-0.5815432667732239,-0.10018182545900345
1789022015532886300,0.95888623046875,-0.22174391150474548,-0.25534147024154663,-0.07757982611656189
1789022015542812000,0.96881201171875,-0.24434591829776764,-0.2779434621334076,0.04764745384454727
1789022015552737800,0.97873779296875,-0.3689623177051544,-0.4196641147136688,0.235793799161911
1789022015562663400,0.988663330078125,-0.4581485986709595,-0.5522217750549316,0.4557051360607147
1789022015572589000,0.998589111328125,-0.3946186602115631,-0.6835576891899109,0.5827649831771851
1789022015582514700,1.0085146484375,-0.1948658674955368,-0.7977893948554993,0.5381718873977661
1789022015592440300,1.0184404296875,0.023212861269712448,-0.8637627959251404,0.37140578031539917
1789022015602366200,1.0283662109375,0.20769402384757996,-0.851545512676239,0.20280711352825165
1789022015612291800,1.038291748046875,0.38850998878479004,-0.8283326625823975,0.05742128938436508
1789022015622217500,1.048217529296875,0.5497782826423645,-0.8069523572921753,-0.0513126403093338
1789022015632143000,1.05814306640625,0.6194168925285339,-0.8057306408882141,-0.11056652665138245
1789022015642069000,1.068069091796875,0.5790998339653015,-0.851545512676239,-0.10934479534626007
1789022015651994600,1.07799462890625,0.5681042671203613,-0.9132428169250488,-0.025045456364750862
1789022015661920300,1.087920166015625,0.6407971382141113,-1.071456789970398,0.09957095980644226
1789022015671846100,1.09784619140625,0.7531962990760803,-1.4062107801437378,0.22357651591300964
1789022015681771800,1.107771728515625,0.768467903137207,-1.9645410776138306,0.3445277214050293
1789022015691697400,1.117697509765625,0.7703005075454712,-2.671311616897583,0.4831940531730652
1789022015701623000,1.127623046875,0.9663881063461304,-3.3347108364105225,0.6426297426223755
1789022015711549000,1.137548828125,0.962722897529602,-3.8802130222320557,0.7605266571044922
1789022015721474600,1.147474609375,0.8277217745780945,-4.490467071533203,0.8851430416107178
1789022015731400200,1.157400146484375,0.7666352987289429,-5.037801742553711,1.0390809774398804
1789022015741326000,1.167326171875,0.7849612236022949,-5.250382900238037,1.1209368705749512
1789022015751251700,1.177251708984375,0.8399390578269958,-5.083616733551025,1.0793980360031128
1789022015761177300,1.18717724609375,0.9053016304969788,-4.693274021148682,0.9089667797088623
1789022015771103000,1.19710302734375,1.071456789970398,-4.312094688415527,0.5882627964019775
1789022015781028900,1.20702880859375,1.3213005065917969,-4.165486812591553,0.22663083672523499
1789022015790954500,1.21695458984375,1.5137228965759277,-4.384176731109619,-0.10873392969369888
1789022015800880400,1.22688037109375,1.6963714361190796,-4.752528190612793,-0.3597993552684784
1789022015810806000,1.236805908203125,1.9217805862426758,-5.108051300048828,-0.5192350745201111
1789022015820731600,1.246731689453125,2.176511287689209,-5.416537761688232,-0.6090322136878967
1789022015830657500,1.256657470703125,2.4581198692321777,-5.671268463134766,-0.6652317643165588
1789022015840583200,1.266583251953125,2.6975789070129395,-5.860025882720947,-0.739757239818573
1789022015850509000,1.276509033203125,2.858236312866211,-5.879573345184326,-0.8906408548355103
1789022015860434700,1.2864345703125,2.9938483238220215,-5.683485984802246,-1.1001675128936768
1789022015870360300,1.2963603515625,3.0579891204833984,-5.491063594818115,-1.36772620677948
1789022015880286200,1.3062861328125,3.071428060531616,-5.321854114532471,-1.6658282279968262
1789022015890211800,1.3162119140625,3.126405954360962,-4.980991363525391,-1.9633194208145142
1789022015900137500,1.326137451171875,3.1337363719940186,-4.427547931671143,-2.212552309036255
1789022015910063400,1.3360634765625,3.0078980922698975,-3.7427685260772705,-2.411083221435547
1789022015919989000,1.345989013671875,2.8716752529144287,-2.9907939434051514,-2.610225200653076
1789022015929915000,1.355914794921875,2.8600687980651855,-2.232100009918213,-2.8240277767181396
1789022015939840500,1.365840576171875,2.9413139820098877,-1.552207350730896,-2.989572286605835
1789022015949766100,1.37576611328125,3.0054547786712646,-0.9755510687828064,-3.0463826656341553
1789022015959692000,1.385692138671875,2.967581033706665,-0.33658650517463684,-2.8991641998291016
1789022015969617700,1.39561767578125,2.8851144313812256,0.4923570156097412,-2.3237295150756836
1789022015979543300,1.405543212890625,2.785543441772461,0.9938769936561584,-1.6249003410339355
1789022015989469200,1.41546923828125,2.682307243347168,1.4391974210739136,-0.8772017955780029
1789022015999394800,1.425394775390625,2.506989002227783,1.6157373189926147,-0.32192572951316833
1789022016009320700,1.43532080078125,2.2314889430999756,1.4025455713272095,-0.053756099194288254
1789022016019246300,1.445246337890625,1.9443825483322144,0.9792162179946899,0.09529490768909454
1789022016029172000,1.455171875,1.731190800666809,0.5613847374916077,0.31581708788871765
1789022016039097900,1.465097900390625,1.5296053886413574,0.23396120965480804,0.574212908744812
1789022016049023500,1.4750234375,1.3420698642730713,-0.20341797173023224,0.9040798544883728
1789022016058949400,1.484949462890625,1.3194679021835327,-0.2981020212173462,1.0708459615707397
1789022016068875000,1.494875,1.2003493309020996,0.08491020649671555,0.8216131329536438
1789022016078801000,1.50480078125,1.1545344591140747,-0.19608759880065918,0.8594867587089539
1789022016088726500,1.5147265625,1.1753038167953491,-0.2559523284435272,0.9920443892478943
1789022016098652200,1.524652099609375,1.250440239906311,-0.2926042377948761,1.3072506189346313
1789022016108578000,1.534578125,1.2156208753585815,0.10567960888147354,1.2760965824127197
1789022016118503700,1.544503662109375,1.284037709236145,0.07880155742168427,1.2058470249176025
1789022016128429600,1.5544296875,1.4233149290084839,-0.31459537148475647,1.441640853881836
1789022016138355200,1.564355224609375,1.5131120681762695,-0.44898560643196106,1.7177517414093018
1789022016148281000,1.574281005859375,1.5106686353683472,-0.17592905461788177,1.6279546022415161
1789022016158206700,1.584206787109375,1.2736530303955078,0.12156209349632263,1.000596523284912
1789022016168132400,1.59413232421875,0.9089667797088623,0.2315177470445633,0.22235478460788727
1789022016178058200,1.604058349609375,0.6945532560348511,0.8381064534187317,-0.47464191913604736
1789022016187984000,1.61398388671875,0.6969966888427734,1.3371829986572266,-1.1410953998565674
1789022016197909800,1.62390966796875,0.8087849617004395,1.3939933776855469,-1.3878847360610962
1789022016207835400,1.63383544921875,0.7556397318840027,1.4960078001022339,-1.0512982606887817
1789022016217761300,1.64376123046875,0.3384190797805786,1.2003493309020996,-0.44898560643196106
1789022016227687000,1.65368701171875,-0.22235478460788727,0.42088583111763,-0.053756099194288254
1789022016237612800,1.66361279296875,-0.3805687427520752,-0.31093016266822815,-0.1649334877729416
1789022016247538400,1.673538330078125,-0.5082395076751709,-1.591302752494812,0.30604326725006104
1789022016257464300,1.68346435546875,0.06108647957444191,-1.7537927627563477,1.5625921487808228
1789022016267390000,1.693389892578125,0.21868959069252014,0.205861434340477,2.0836596488952637
1789022016277315600,1.703315673828125,-0.09468404203653336,0.1795942485332489,1.0763437747955322
1789022016287241500,1.713241455078125,-0.3659079968929291,-0.4111120104789734,0.04276053607463837
1789022016339211000,1.7652109375,0.2528980076313019,-0.8881973624229431,1.2412772178649902
1789022016349136600,1.77513671875,0.22968515753746033,0.036651886999607086,0.8747583627700806
1789022016359062500,1.7850625,0.10751219838857651,0.42882707715034485,1.3170244693756104
1789022016368988200,1.79498828125,-0.017104214057326317,0.3799578845500946,2.129474639892578
1789022016378914000,1.8049140625,-0.1905898153781891,-0.33108872175216675,1.9511021375656128
1789022016388839700,1.814839599609375,-0.4679224193096161,-0.3176496922969818,0.9553925395011902
1789022016398765600,1.824765625,-0.34574946761131287,0.3274235129356384,0.4935787320137024
1789022016408690700,1.834690673828125,-0.006108647678047419,0.9321796298027039,0.471587598323822
1789022016418616600,1.844616455078125,0.046425722539424896,0.84177166223526,0.14172062277793884
1789022016428542200,1.854542236328125,-0.13927717506885529,0.4361574649810791,0.01954767294228077
1789022016438468000,1.864468017578125,-0.19914191961288452,0.0256563201546669,0.25411975383758545
1789022016448393700,1.874393798828125,-0.17104214429855347,-0.14538581669330597,0.5070177912712097
1789022016458319600,1.884319580078125,-0.1185077652335167,-0.11117739230394363,0.5925388336181641
1789022016468245200,1.894245361328125,-0.11606431007385254,-0.021991131827235222,0.5974257588386536
1789022016478171100,1.904171142578125,-0.16859868168830872,-0.14782927930355072,0.5864301919937134
1789022016488096800,1.9140966796875,-0.25045454502105713,-0.4263836145401001,0.6829468011856079
1789022016498022700,1.924022705078125,-0.3298669755458832,-0.8197805285453796,0.7391464114189148
1789022016507948300,1.9339482421875,-0.4740310609340668,-0.962722897529602,0.7770199775695801
1789022016517874200,1.943874267578125,-0.45326167345046997,-1.0592395067214966,0.6768381595611572
1789022016527799800,1.9537998046875,-0.4825831651687622,-0.9883792400360107,0.5571087002754211
1789022016537725700,1.9637255859375,-0.7293725609779358,-0.9492838382720947,0.6133082509040833
1789022016547651300,1.9736513671875,-0.8454368710517883,-1.2547162771224976,0.7965676784515381
1789022016557577200,1.9835771484375,-1.0787872076034546,-1.4844014644622803,1.1129956245422363
1789022016567503000,1.993503173828125,-1.2070688009262085,-1.7189735174179077,0.9896009564399719
1789022016577428700,2.0034287109375,-1.110552191734314,-1.7336342334747314,0.3274235129356384
1789022016587354600,2.013354736328125,-0.8014546036720276,-1.2058470249176025,-0.04886918142437935
1789022016597280300,2.0232802734375,-0.6695078015327454,-0.7012727856636047,-0.22479823231697083
1789022016607206100,2.0332060546875,-0.9602794051170349,-0.7525854110717773,-0.03787361457943916
1789022016617131800,2.0431318359375,-1.0567960739135742,-1.186299443244934,0.833219587802887
1789022016627057700,2.0530576171875,-0.26389357447624207,-1.830150842666626,0.9932661056518555
1789022016636983300,2.0629833984375,-0.1893680840730667,-2.0573925971984863,0.8918625712394714
1789022016646909200,2.0729091796875,-0.0977383628487587,-2.3151774406433105,1.1557561159133911
1789022016656835000,2.0828349609375,0.04153880476951599,-2.690248489379883,1.1520910263061523
1789022016666760700,2.0927607421875,-0.19181154668331146,-2.791651964187622,0.8637627959251404
1789022016676686600,2.1026865234375,-0.4202749729156494,-2.0964879989624023,0.7147117853164673
1789022016686612200,2.1126123046875,0.3750709891319275,-0.9590576887130737,0.7391464114189148
1789022016696538000,2.1225380859375,0.6805033683776855,-1.0299180746078491,0.07086031138896942
1789022016706463700,2.132463623046875,0.4667007029056549,-1.071456789970398,-0.3237583339214325
1789022016716389600,2.1423896484375,0.4520399272441864,-1.2547162771224976,-0.7061597108840942
1789022016726315500,2.1523154296875,0.2419024556875229,-1.0604612827301025,-0.7696896195411682
1789022016736241200,2.1622412109375,0.18692462146282196,-0.8564324378967285,-0.7660244107246399
1789022016746167000,2.1721669921875,-0.01954767294228077,-0.748920202255249,-0.851545512676239
1789022016756092700,2.1820927734375,0.21135921776294708,-0.5766563415527344,-0.7293725609779358
1789022016766018600,2.1920185546875,0.4214966893196106,-0.3274235129356384,-0.5681042671203613
1789022016775944400,2.2019443359375,0.2822195291519165,-0.2370155304670334,-0.4886918365955353
1789022016785870000,2.2118701171875,0.1905898153781891,0.02932151034474373,-0.5253437161445618
1789022016795796000,2.2217958984375,0.17226386070251465,0.3494146466255188,-0.45326167345046997
1789022016805721900,2.231721923828125,0.16126830875873566,0.5998691916465759,-0.24434591829776764
1789022016815647500,2.2416474609375,0.3066541254520416,0.9297361969947815,-0.08796452730894089
1789022016825573400,2.251573486328125,0.4874700903892517,1.227838158607483,-0.06108647957444191
1789022016835499000,2.2614990234375,0.4984656572341919,1.351232886314392,0.01588248461484909
1789022016845425000,2.2714248046875,0.46547895669937134,1.4734058380126953,0.1282816082239151
1789022016855350800,2.281350830078125,0.38850998878479004,1.3463460206985474,0.3591884970664978
1789022016865276400,2.2912763671875,0.34086254239082336,1.303585410118103,0.7000510096549988
1789022016875202300,2.301202392578125,0.13927717506885529,1.1972949504852295,0.9847140312194824
1789022016885128200,2.311128173828125,-0.07330377399921417,1.0787872076034546,0.8246674537658691
1789022016895053800,2.3210537109375,0.0977383628487587,1.6200133562088013,0.7476984858512878
1789022016904979700,2.330979736328125,0.6414080262184143,3.0946409702301025,0.6206386089324951
1789022016914905600,2.340905517578125,0.7171552777290344,3.881434917449951,-0.036651886999607086
1789022016924831200,2.350831298828125,0.15638138353824615,2.5973970890045166,-0.6389645338058472
1789022016934757000,2.360757080078125,0.15149445831775665,1.6908737421035767,-0.24556763470172882
1789022016944682800,2.370682861328125,0.46425724029541016,1.9339978694915771,0.7330377101898193
1789022016954608600,2.380608642578125,0.2003636509180069,1.1044435501098633,0.19425499439239502
1789022016964534500,2.390534423828125,0.03909534588456154,0.3066541254520416,-0.3347539007663727
1789022016974460400,2.40046044921875,0.04764745384454727,0.4789179861545563,-0.35674503445625305
1789022016984386000,2.410385986328125,0.14049890637397766,0.7379246354103088,-0.33719736337661743
1789022016994312000,2.42031201171875,-0.05497783049941063,-0.001221729558892548,-0.25900667905807495
1789022017004237800,2.43023779296875,-0.287106454372406,-0.9004147052764893,-0.29565855860710144
1789022017014163500,2.44016357421875,-0.06475166976451874,-1.4123194217681885,-0.13927717506885529
1789022017024089300,2.45008935546875,0.0818558782339096,-1.72141695022583,-0.11606431007385254
1789022017034015200,2.46001513671875,0.16859868168830872,-1.8533637523651123,-0.14049890637397766
1789022017043940900,2.46994091796875,0.0720820426940918,-2.114813804626465,-0.6133082509040833
1789022017053866800,2.47986669921875,-0.15027274191379547,-2.0586142539978027,-0.6316341757774353
1789022017063792600,2.489792724609375,0.07330377399921417,-2.6303837299346924,-0.9883792400360107
1789022017073718300,2.49971826171875,-0.07941242307424545,-3.758040189743042,-1.1691951751708984
1789022017083644200,2.50964404296875,-0.09407317638397217,-4.582707405090332,-1.1887428760528564
1789022017093570000,2.519570068359375,-0.22235478460788727,-3.7006187438964844,-1.1691951751708984
1789022017103495700,2.52949560546875,-0.3897317349910736,-1.9657628536224365,-1.5833615064620972
1789022017113421600,2.539421630859375,-0.07819069176912308,-1.5515965223312378,-1.7580687999725342
1789022017123347500,2.549347412109375,0.05864302068948746,-2.3371686935424805,-1.099556565284729
1789022017133273300,2.5592734375,-0.023212861269712448,-2.1221442222595215,-0.823445737361908
1789022017143199000,2.569198974609375,-0.1893680840730667,-1.2327251434326172,-1.000596523284912
1789022017153124900,2.579124755859375,-0.14172062277793884,-0.3811796307563782,-1.3390156030654907
1789022017163050800,2.58905078125,0.008552107028663158,0.024434590712189674,-1.6077960729599
1789022017172976400,2.598976318359375,0.29443681240081787,0.31520622968673706,-1.8643592596054077
1789022017182902300,2.60890234375,0.8466585874557495,0.8210022449493408,-1.9596542119979858
1789022017192828200,2.618828125,1.7580687999725342,1.5760310888290405,-1.9559890031814575
1789022017202753800,2.62875390625,2.998124361038208,1.9608759880065918,-1.8985676765441895
1789022017212679700,2.6386796875,4.489856243133545,2.0659446716308594,-1.7201951742172241
1789022017222605600,2.64860546875,5.828871726989746,2.249204158782959,-1.4538581371307373
1789022017232531500,2.658531494140625,6.860011577606201,2.9235987663269043,-1.109330415725708
1789022017242457000,2.66845703125,7.979115962982178,3.747044563293457,-0.4508182108402252
1789022017252383000,2.678383056640625,8.35418701171875,4.081798553466797,0.39339691400527954
1789022017262308900,2.688308837890625,7.841060161590576,4.350578784942627,0.9419534802436829
1789022017272234800,2.69823486328125,3.1312928199768066,3.7128360271453857,1.3768892288208008
1789022017282160400,2.708160400390625,0.9908226728439331,3.5613417625427246,0.1747073233127594
1789022017292086300,2.718086181640625,1.5674790143966675,3.6334238052368164,-0.833219587802887
1789022017302012200,2.72801220703125,2.014631986618042,3.7091710567474365,-0.8344413042068481
1789022017311938000,2.73793798828125,2.0268492698669434,3.2290313243865967,-1.0250310897827148
1789022017321863700,2.74786376953125,1.977980136871338,2.467893600463867,-1.1594213247299194
1789022017331789600,2.75778955078125,1.7825034856796265,1.51616632938385,-1.1129956245422363
1789022017341715500,2.767715576171875,1.3683371543884277,0.4630354940891266,-0.9334014058113098
1789022017351641000,2.77764111328125,0.915075421333313,-0.45326167345046997,-0.8808670043945312
1789022017361567000,2.78756689453125,0.5962040424346924,-1.0543526411056519,-1.0274745225906372
1789022017371492900,2.797492919921875,-0.030543239787220955,-1.6224569082260132,-0.9590576887130737
1789022017381418800,2.807418701171875,-0.9334014058113098,-3.0640976428985596,-0.8161153197288513
1789022017391344600,2.8173447265625,-1.5308271646499634,-4.157545566558838,-1.0445787906646729
1789022017401270300,2.827270263671875,-1.627343773841858,-4.497186660766602,-0.9407317638397217
1789022017411196200,2.837196044921875,-1.8900156021118164,-4.175871849060059,-1.043357014656067
1789022017421122000,2.8471220703125,-2.001193046569824,-2.945590019226074,-1.6114612817764282
1789022017431048000,2.8570478515625,-1.6884303092956543,-0.8918625712394714,-2.2846343517303467
1789022017440973600,2.8669736328125,-1.879020094871521,-0.8759800791740417,-2.8124215602874756
1789022017450899500,2.8768994140625,-2.7110178470611572,-1.5296053886413574,-2.506989002227783
1789022017460825300,2.886825439453125,-1.9388848543167114,0.7428115606307983,-0.5974257588386536
1789022017470751200,2.896751220703125,-0.8442151546478271,0.9101884961128235,-1.1423171758651733
1789022017480676900,2.9066767578125,-0.43004879355430603,1.2351685762405396,-1.237612009048462
1789022017490602800,2.916602783203125,-0.19181154668331146,1.137430191040039,-0.8381064534187317
1789022017500528600,2.926528564453125,0.06597339361906052,0.7513636946678162,-0.471587598323822
1789022017510454500,2.93645458984375,0.06230820715427399,0.41905322670936584,-0.17348559200763702
1789022017520380200,2.946380126953125,-0.09162971377372742,0.4068359434604645,-0.06841685622930527
1789022017530306000,2.95630615234375,-0.37751442193984985,0.685390293598175,-0.06719512492418289
1789022017540232000,2.96623193359375,-0.7721330523490906,0.9358448386192322,-0.1441640853881836
1789022017550157800,2.97615771484375,-0.8662062287330627,1.0189224481582642,-0.36285367608070374
1789022017560083700,2.986083740234375,-0.9211840629577637,0.5766563415527344,-0.7525854110717773
1789022017570009300,2.99600927734375,-0.28466299176216125,-0.008552107028663158,-1.0506874322891235
1789022017579935200,3.005935302734375,0.924849271774292,0.5277871489524841,-0.5326740741729736
1789022017589861000,3.015861083984375,1.5198315382003784,0.962722897529602,-0.2822195291519165
1789022017599787000,3.025787109375,1.1520910263061523,0.5790998339653015,-0.37629270553588867
1789022017609713000,3.035712890625,0.695164144039154,-0.2626718580722809,-0.2761108875274658
1789022017619638500,3.045638427734375,0.7648026943206787,-0.7257073521614075,-0.15027274191379547
1789022017629564400,3.055564453125,0.778241753578186,-0.6328558921813965,-0.15760311484336853
1789022017639490300,3.065490234375,0.44470956921577454,-0.3995055556297302,-0.2822195291519165
1789022017649416200,3.075416259765625,0.401949018239975,-0.2822195291519165,-0.4214966893196106
1789022017659341800,3.085341796875,0.5057960152626038,0.09529490768909454,-0.5827649831771851
1789022017669267700,3.095267822265625,0.2822195291519165,0.8881973624229431,-0.6010909676551819
1789022017679193600,3.105193603515625,-0.1282816082239151,1.7482949495315552,-0.7183769941329956
1789022017689119500,3.115119384765625,-0.34574946761131287,2.283412456512451,-0.6902772188186646
1789022017699045400,3.12504541015625,-0.2981020212173462,1.362228512763977,-0.516791582107544
1789022017708971000,3.134970947265625,-0.31642794609069824,0.8222240209579468,-0.5815432667732239
1789022017718897000,3.14489697265625,0.11484257876873016,0.31154105067253113,-0.7037162184715271
1789022017728822800,3.15482275390625,1.4953969717025757,0.3249800503253937,-0.6792816519737244
1789022017738748700,3.164748779296875,1.4746276140213013,1.0751219987869263,-0.4068359434604645
1789022017748674600,3.174674560546875,0.6071996092796326,1.1459823846817017,-1.2327251434326172
1789022017758600200,3.18460009765625,-0.2712239623069763,1.109330415725708,-2.414137601852417
1789022017768526000,3.194526123046875,-0.06475166976451874,2.6169447898864746,-2.4239113330841064
1789022017778452000,3.204451904296875,0.41905322670936584,3.995055675506592,-1.9181153774261475
1789022017788377900,3.2143779296875,0.30054548382759094,4.243066787719727,-1.6872085332870483
1789022017798303700,3.2243037109375,0.7648026943206787,5.214341640472412,-1.811824917793274
1789022017808229400,3.2342294921875,1.0409135818481445,4.2345147132873535,-1.2327251434326172
1789022017818155300,3.2441552734375,1.1716386079788208,1.1508692502975464,-0.7672461867332458
1789022017828081200,3.2540810546875,0.6743947267532349,1.176525592803955,0.3078758418560028
1789022017838007000,3.264007080078125,0.6829468011856079,1.091004490852356,-0.3787361681461334
1789022017847933000,3.273932861328125,0.962722897529602,0.45448338985443115,-0.4838049113750458
1789022017857858600,3.283858642578125,0.056199558079242706,0.6621774435043335,0.2419024556875229
1789022017867784400,3.293784423828125,-0.13561198115348816,1.0653481483459473,0.277332603931427
1789022017877710300,3.30371044921875,-0.06597339361906052,0.8442151546478271,-0.014660755172371864
1789022017887636200,3.31363623046875,-0.23457208275794983,0.6071996092796326,-0.3225366175174713
1789022017897562000,3.32356201171875,-0.45448338985443115,0.4214966893196106,-0.49113526940345764
1789022017907488000,3.333488037109375,-0.5937605500221252,0.35063639283180237,-0.4740310609340668
1789022017917413600,3.34341357421875,-0.5998691916465759,0.27977606654167175,-0.49480047821998596
1789022017927339500,3.353339599609375,-0.4984656572341919,0.24312418699264526,-0.5314523577690125
1789022017937265400,3.363265380859375,-0.3176496922969818,0.31642794609069824,-0.5192350745201111
1789022017947191300,3.37319140625,-0.10873392969369888,0.3970620930194855,-0.536339282989502
1789022017957117000,3.383116943359375,0.020769402384757996,0.18814635276794434,-0.5864301919937134
1789022017967042800,3.393042724609375,0.08063415437936783,-0.06108647957444191,-0.6218603253364563
1789022017976968700,3.40296875,0.11362084746360779,-0.018325943499803543,-0.5827649831771851
1789022017986894600,3.41289453125,0.16615521907806396,0.05497783049941063,-0.5375609993934631
1789022017996820500,3.422820556640625,0.22235478460788727,-0.03787361457943916,-0.5839866995811462
1789022018006746400,3.432746337890625,0.23823726177215576,-0.24312418699264526,-0.6536253094673157
1789022018016672000,3.442672119140625,0.20402882993221283,-0.2724456787109375,-0.5949822664260864
1789022018026598000,3.452597900390625,0.21868959069252014,-0.07452550530433655,-0.47525280714035034
1789022018036523800,3.462523681640625,0.2809978127479553,-0.03298669680953026,-0.4324922561645508
1789022018046449700,3.47244970703125,0.35185810923576355,-0.1905898153781891,-0.4557051360607147
1789022018056375600,3.48237548828125,0.37140578031539917,-0.34574946761131287,-0.471587598323822
1789022018066301400,3.492301513671875,0.328645259141922,-0.33719736337661743,-0.3860665261745453
1789022018076227000,3.50222705078125,0.33597561717033386,-0.235793799161911,-0.18814635276794434
1789022018086153000,3.512153076171875,0.41783151030540466,-0.2663370370864868,-0.06963858753442764
1789022018096078800,3.522078857421875,0.42271843552589417,-0.3237583339214325,-0.1331685185432434
1789022018106004700,3.532004638671875,0.370184063911438,-0.2626718580722809,-0.2419024556875229
1789022018115930600,3.5419306640625,0.31520622968673706,-0.18814635276794434,-0.29077163338661194
1789022018125856300,3.551856201171875,0.27000224590301514,-0.16126830875873566,-0.21380266547203064
1789022018135782100,3.5617822265625,0.24312418699264526,-0.19303326308727264,-0.11239911615848541
1789022018145708000,3.5717080078125,0.15027274191379547,-0.15515965223312378,-0.1233946830034256
1789022018155634000,3.581634033203125,0.013439024798572063,0.04276053607463837,-0.2419024556875229
1789022018165559800,3.591559814453125,-0.10629047453403473,0.23945899307727814,-0.3787361681461334
1789022018175485700,3.601485595703125,-0.18081597983837128,0.4043924808502197,-0.4202749729156494
1789022018185411300,3.611411376953125,-0.2052505612373352,0.45937031507492065,-0.42394015192985535
1789022018195337200,3.621337158203125,-0.23823726177215576,0.48013970255851746,-0.5082395076751709
1789022018205263000,3.63126318359375,-0.31031930446624756,0.5974257588386536,-0.6536253094673157
1789022018215189000,3.64118896484375,-0.4202749729156494,0.6328558921813965,-0.7916807532310486
1789022018225115000,3.651114990234375,-0.516791582107544,0.5754346251487732,-0.934623122215271
1789022018235040800,3.661040771484375,-0.6328558921813965,0.3335321843624115,-1.102000117301941
1789022018244966400,3.67096630859375,-0.7415898442268372,0.008552107028663158,-1.3365721702575684
1789022018254892300,3.680892333984375,-0.8246674537658691,-0.14172062277793884,-1.528383731842041
1789022018264818200,3.690818115234375,-0.8759800791740417,-0.13439024984836578,-1.5968005657196045
1789022018274744000,3.700744140625,-0.9089667797088623,-0.07086031138896942,-1.5503748655319214
1789022018284670000,3.710669921875,-0.924849271774292,0.05253437161445618,-1.4233149290084839
1789022018294595800,3.720595947265625,-0.9016364216804504,0.2467893660068512,-1.286481261253357
1789022018304521700,3.730521728515625,-0.8307760953903198,0.49602219462394714,-1.1753038167953491
1789022018314447400,3.740447265625,-0.8124501705169678,0.9834923148155212,-1.0396918058395386
1789022018324373200,3.750373291015625,-0.8429933786392212,1.4001020193099976,-0.8991929292678833
1789022018334299100,3.760299072265625,-0.8393282294273376,1.4672971963882446,-0.7635809779167175
1789022018344225000,3.77022509765625,-0.7965676784515381,1.2608249187469482,-0.7550288438796997
1789022018354151000,3.78015087890625,-0.7428115606307983,1.0128138065338135,-0.8442151546478271
1789022018364076800,3.790076904296875,-0.7269290685653687,0.7330377101898193,-0.8881973624229431
1789022018374002700,3.800002685546875,-0.7354812026023865,0.3958403766155243,-0.8955277800559998
1789022018383928300,3.80992822265625,-0.7244856357574463,0.020769402384757996,-0.9480621218681335
1789022018393854200,3.819854248046875,-0.6902772188186646,-0.3897317349910736,-1.0225876569747925
1789022018403780000,3.829780029296875,-0.6499601006507874,-0.6646208763122559,-1.0506874322891235
1789022018413706000,3.8397060546875,-0.6866120100021362,-0.36163195967674255,-1.0018181800842285
1789022018423632000,3.8496318359375,-0.6866120100021362,0.14049890637397766,-0.8368847370147705
1789022018433557800,3.859557861328125,-0.711046576499939,0.6035344004631042,-0.6792816519737244
1789022018443483400,3.8694833984375,-0.84177166223526,0.972496747970581,-0.7281508445739746
1789022018453409300,3.8794091796875,-0.8710931539535522,0.675616443157196,-0.998153030872345
1789022018463335200,3.889335205078125,-0.823445737361908,-0.3689623177051544,-1.275485634803772
1789022018473261000,3.899260986328125,-0.7367029190063477,-1.4049890041351318,-1.4025455713272095
1789022018483187000,3.90918701171875,-0.6743947267532349,-1.5589269399642944,-1.324354887008667
1789022018493112800,3.91911279296875,-0.667064368724823,-1.1032217741012573,-1.1337649822235107
1789022018503038700,3.929038818359375,-0.6939423680305481,-0.4728093445301056,-1.0225876569747925
1789022018512964400,3.93896435546875,-0.7599157691001892,-0.043982263654470444,-0.9883792400360107
1789022018522890200,3.94889013671875,-0.8955277800559998,-0.10629047453403473,-1.0079269409179688
1789022018532816100,3.958816162109375,-0.9517273306846619,-0.6890554428100586,-1.0861176252365112
1789022018542742000,3.968741943359375,-0.924849271774292,-1.3023637533187866,-1.1459823846817017
1789022018552668000,3.97866796875,-0.9028581380844116,-1.3500111103057861,-1.2095122337341309
1789022018562593800,3.98859375,-0.8674280047416687,-0.8869756460189819,-1.2449424266815186
1789022018572519700,3.998519775390625,-0.8295543789863586,-0.3787361681461334,-1.2168426513671875
1789022018582445600,4.008445556640625,-0.7476984858512878,-0.2211330533027649,-1.1545344591140747
1789022018592371200,4.01837109375,-0.6988292932510376,-0.546113133430481,-1.0396918058395386
1789022018602297000,4.028297119140625,-0.6487383842468262,-0.915075421333313,-0.9798271059989929
1789022018612223000,4.038222900390625,-0.5485565662384033,-0.8161153197288513,-1.0152572393417358
1789022018622148900,4.04814892578125,-0.43004879355430603,-0.5106829404830933,-0.9541707634925842
1789022018632074800,4.05807470703125,-0.26022839546203613,-0.3066541254520416,-0.7513636946678162
1789022018642000600,4.068000732421875,-0.20158538222312927,-0.3836230933666229,-0.574212908744812
1789022018651926500,4.077926513671875,-0.33597561717033386,-0.5253437161445618,-0.47525280714035034
1789022018661852400,4.087852294921875,-0.3139844834804535,-0.35674503445625305,-0.5314523577690125
1789022018671778300,4.0977783203125,-0.21746785938739777,-0.10506874322891235,-0.4618137776851654
1789022018681704000,4.107703857421875,-0.12950333952903748,-0.018325943499803543,-0.2675587832927704
1789022018691629800,4.1176298828125,-0.06475166976451874,0.06475166976451874,-0.1844811588525772
1789022018701555700,4.1275556640625,-0.020769402384757996,0.13683371245861053,-0.17592905461788177
1789022018711481600,4.137481689453125,0.06108647957444191,0.1441640853881836,-0.04520399495959282
1789022018721407500,4.147407470703125,0.14782927930355072,0.21258094906806946,0.06963858753442764
1789022018731333400,4.15733349609375,0.24434591829776764,0.32009315490722656,0.059864748269319534
1789022018741259300,4.16725927734375,0.2467893660068512,0.21991132199764252,0.0256563201546669
1789022018751185000,4.177184814453125,0.277332603931427,0.0720820426940918,0.030543239787220955
1789022018761110800,4.18711083984375,0.38240134716033936,0.06230820715427399,0.04276053607463837
1789022018771036700,4.19703662109375,0.5436696410179138,0.2809978127479553,0.07330377399921417
1789022018780962600,4.206962646484375,0.7122683525085449,0.5888736248016357,0.09162971377372742
1789022018790888400,4.216888427734375,0.8283326625823975,0.7037162184715271,0.13683371245861053
1789022018800814300,4.226814453125,0.9297361969947815,0.5925388336181641,0.2162461280822754
1789022018810740200,4.236740234375,1.0189224481582642,0.40317076444625854,0.20280711352825165
1789022018820666000,4.246666015625,1.0775654315948486,0.19425499439239502,0.1905898153781891
1789022018830592000,4.256592041015625,1.1337649822235107,0.21502439677715302,0.20891575515270233
1789022018840518000,4.266517822265625,1.2168426513671875,0.4618137776851654,0.1747073233127594
1789022018850443500,4.276443603515625,1.2986985445022583,0.5839866995811462,0.19792018830776215
1789022018860369400,4.286369384765625,1.3597849607467651,0.554665207862854,0.23457208275794983
1789022018870295300,4.29629541015625,1.3952151536941528,0.4862483739852905,0.21135921776294708
1789022018880221200,4.30622119140625,1.4025455713272095,0.33231043815612793,0.24923282861709595
1789022018890147000,4.31614697265625,1.4734058380126953,0.25900667905807495,0.32620179653167725
1789022018900073000,4.326072998046875,1.5601485967636108,0.401949018239975,0.2309068888425827
1789022018909998800,4.335998779296875,1.6444480419158936,0.750141978263855,0.013439024798572063
1789022018919924700,4.3459248046875,1.848476767539978,1.1887428760528564,-0.050090912729501724
1789022018929850400,4.355850341796875,1.9840887784957886,1.2021819353103638,0.06352993845939636
1789022018939776300,4.3657763671875,1.887572169303894,0.8747583627700806,0.17348559200763702
1789022018949702100,4.3757021484375,1.7250821590423584,0.516791582107544,0.16126830875873566
1789022018959628000,4.3856279296875,1.5919135808944702,0.08674279600381851,0.15149445831775665
1789022018969554000,4.395553955078125,1.5528182983398438,-0.04153880476951599,0.19303326308727264
1789022018979479800,4.405479736328125,1.635895848274231,0.1185077652335167,0.19303326308727264
1789022018989405700,4.41540576171875,1.6713260412216187,0.2528980076313019,0.11606431007385254
1789022018999331600,4.42533154296875,1.6016874313354492,0.0818558782339096,0.11606431007385254
1789022019009257500,4.435257568359375,1.5149446725845337,-0.11606431007385254,0.21258094906806946
1789022019019183400,4.445183349609375,1.490510106086731,0.030543239787220955,0.31520622968673706
1789022019029109200,4.455109130859375,1.51616632938385,0.5717694163322449,0.3078758418560028
1789022019039035000,4.465034912109375,1.545487880706787,0.9321796298027039,0.24923282861709595
1789022019048960800,4.474960693359375,1.535714030265808,0.823445737361908,0.26389357447624207
1789022019058886700,4.48488671875,1.5112794637680054,0.47525280714035034,0.2724456787109375
1789022019068812500,4.4948125,1.4074324369430542,0.11728604137897491,0.2211330533027649
1789022019078738400,4.504738525390625,1.2705987691879272,0.030543239787220955,0.2516762912273407
1789022019088664300,4.514664306640625,1.1777472496032715,0.21868959069252014,0.2968802750110626
1789022019098590200,4.524590087890625,1.1056652069091797,0.3787361681461334,0.23335035145282745
1789022019108516000,4.53451611328125,1.0384701490402222,0.4728093445301056,0.1649334877729416
1789022019118441700,4.544441650390625,0.9786053895950317,0.41416633129119873,0.1441640853881836
1789022019128367600,4.55436767578125,0.823445737361908,0.13683371245861053,0.07330377399921417
1789022019138293500,4.56429345703125,0.6157516837120056,-0.046425722539424896,-0.007330377586185932
1789022019148219400,4.574219482421875,0.3836230933666229,-0.07574722915887833,-0.10384701192378998
1789022019158145300,4.584145263671875,0.1588248461484909,-0.16859868168830872,-0.15760311484336853
1789022019168071200,4.5940712890625,0.030543239787220955,-0.2003636509180069,-0.11606431007385254
1789022019177997000,4.6039970703125,-0.04276053607463837,-0.277332603931427,-0.1026252806186676
1789022019187923000,4.6139228515625,-0.06352993845939636,-0.27977606654167175,-0.10018182545900345
1789022019197848800,4.623848876953125,-0.10506874322891235,-0.3811796307563782,-0.16126830875873566
1789022019207774700,4.633774658203125,-0.1893680840730667,-0.6646208763122559,-0.2932150959968567
1789022019217700400,4.643700439453125,-0.23212862014770508,-0.7660244107246399,-0.3591884970664978
1789022019227626200,4.653626220703125,-0.2052505612373352,-0.637742817401886,-0.3652971386909485
1789022019237552000,4.66355224609375,-0.16859868168830872,-0.35063639283180237,-0.34574946761131287
1789022019247478000,4.67347802734375,-0.13439024984836578,0.10995566099882126,-0.23457208275794983
1789022019257404000,4.68340380859375,-0.10140355676412582,0.46059203147888184,-0.0720820426940918
1789022019267329800,4.693329833984375,-0.14660754799842834,0.516791582107544,-0.013439024798572063
1789022019277255700,4.703255615234375,-0.23945899307727814,0.6157516837120056,-0.08307760953903198
1789022019287181600,4.713181640625,-0.3481929302215576,0.7696896195411682,-0.22479823231697083
1789022019297107500,4.723107421875,-0.40805765986442566,0.7757982611656189,-0.3738492429256439
1789022019307033000,4.733033203125,-0.4056142270565033,0.7733548283576965,-0.4459312856197357
1789022019316959000,4.742958984375,-0.4618137776851654,0.6768381595611572,-0.4825831651687622
1789022019326884900,4.752884765625,-0.5497782826423645,0.4923570156097412,-0.5338957905769348
1789022019336810800,4.762810791015625,-0.6304124593734741,0.4923570156097412,-0.5534434914588928
1789022019346736600,4.772736572265625,-0.6365211009979248,0.6206386089324951,-0.48502662777900696
1789022019356662500,4.78266259765625,-0.5253437161445618,0.5131264328956604,-0.2809978127479553
1789022019366588400,4.79258837890625,-0.401949018239975,0.30543237924575806,-0.030543239787220955
1789022019376514300,4.802514404296875,-0.3042106628417969,0.14782927930355072,0.053756099194288254
1789022019386440000,4.81243994140625,-0.3090975880622864,-0.018325943499803543,-0.059864748269319534
1789022019396365800,4.82236572265625,-0.38240134716033936,0.013439024798572063,-0.23212862014770508
1789022019406291700,4.832291748046875,-0.3946186602115631,0.1490510106086731,-0.3127627670764923
1789022019416217600,4.842217529296875,-0.35063639283180237,0.1490510106086731,-0.26511532068252563
1789022019426143500,4.8521435546875,-0.34697118401527405,0.14172062277793884,-0.14294235408306122
1789022019436069400,4.8620693359375,-0.32620179653167725,0.1539379209280014,-0.06719512492418289
1789022019445995300,4.871995361328125,-0.30054548382759094,0.10873392969369888,-0.06230820715427399
1789022019455921200,4.881921142578125,-0.2993237376213074,0.03787361457943916,-0.10995566099882126
1789022019465847000,4.891846923828125,-0.318871408700943,-0.22968515753746033,-0.2101374864578247
1789022019475772700,4.901772705078125,-0.3652971386909485,-0.526565432548523,-0.2968802750110626
1789022019485698600,4.911698486328125,-0.4520399272441864,-0.546113133430481,-0.3396408259868622
1789022019495624400,4.92162451171875,-0.554665207862854,-0.2932150959968567,-0.35674503445625305
1789022019505550300,4.93155029296875,-0.6450732350349426,0.0720820426940918,-0.38728827238082886
1789022019515476200,4.941476318359375,-0.7318159937858582,0.4471530318260193,-0.4618137776851654
1789022019525402000,4.951402099609375,-0.8161153197288513,0.5387827157974243,-0.6096430420875549
1789022019535328000,4.961327880859375,-0.8906408548355103,0.21135921776294708,-0.7855721116065979
1789022019545253600,4.971253662109375,-0.9138537049293518,-0.19303326308727264,-0.8588758707046509
1789022019555179500,4.981179443359375,-0.924849271774292,-0.37751442193984985,-0.8600975871086121
1789022019565105400,4.99110546875,-0.9615011811256409,-0.31154105067253113,-0.84177166223526
1789022019575031300,5.00103125,-1.2217295169830322,-0.05742128938436508,-0.8637627959251404
1789022019584957200,5.010957275390625,-1.422093152999878,0.1588248461484909,-0.9700532555580139
1789022019594883000,5.020883056640625,-1.508836030960083,0.09529490768909454,-1.0177006721496582
1789022019604809000,5.03080908203125,-1.5308271646499634,-0.27855435013771057,-1.071456789970398
1789022019614734800,5.04073486328125,-1.535714030265808,-0.6059778332710266,-1.176525592803955
1789022019624660500,5.050660400390625,-1.5540399551391602,-0.6438514590263367,-1.2046253681182861
1789022019634586400,5.06058642578125,-1.5308271646499634,-0.5534434914588928,-1.1850776672363281
1789022019644512300,5.07051220703125,-1.4721840620040894,-0.5717694163322449,-1.1081087589263916
1789022019654438100,5.080438232421875,-1.4782928228378296,-0.7733548283576965,-0.9639446139335632
1789022019664364000,5.090364013671875,-1.5222749710083008,-0.9260709881782532,-0.8869756460189819
1789022019674290000,5.1002900390625,-1.4660754203796387,-0.823445737361908,-0.8552106618881226
1789022019684215800,5.1102158203125,-1.3964369297027588,-0.6927206516265869,-0.7929024696350098
1789022019694141700,5.1201416015625,-1.2913681268692017,-0.3946186602115631,-0.7599157691001892
1789022019704067300,5.1300673828125,-1.0983349084854126,0.04764745384454727,-0.7269290685653687
1789022019713993200,5.1399931640625,-0.8600975871086121,0.36163195967674255,-0.5571087002754211
1789022019723919000,5.149919189453125,-0.6340776681900024,0.5155698657035828,-0.277332603931427
1789022019733845000,5.159844970703125,-0.3970620930194855,0.5681042671203613,-0.05497783049941063
1789022019743771000,5.16977099609375,-0.2577849328517914,0.3481929302215576,0.023212861269712448
1789022019753696800,5.17969677734375,-0.11362084746360779,0.08918625861406326,0.01588248461484909
1789022019763622700,5.18962255859375,0.017104214057326317,-0.006108647678047419,-0.004886918235570192
1789022019773548300,5.19954833984375,0.12950333952903748,0.12095122784376144,0.020769402384757996
1789022019783474200,5.20947412109375,0.29443681240081787,0.4838049113750458,0.08307760953903198
1789022019793400000,5.219400146484375,0.4935787320137024,0.962722897529602,0.08796452730894089
1789022019803326000,5.229325927734375,0.6365211009979248,1.0042617321014404,0.1233946830034256
1789022019813251800,5.239251953125,0.740368127822876,0.711046576499939,0.2101374864578247
1789022019823177700,5.249177734375,0.8625410795211792,0.4935787320137024,0.3017672002315521
1789022019833103600,5.259103515625,1.0274745225906372,0.4679224193096161,0.3530798554420471
1789022019843029500,5.269029541015625,1.1972949504852295,0.4422661066055298,0.3860665261745453
1789022019852955100,5.278955078125,1.3720022439956665,0.370184063911438,0.4581485986709595
1789022019862881000,5.288881103515625,1.5625921487808228,0.3591884970664978,0.4667007029056549
1789022019872807000,5.298806884765625,1.7140865325927734,0.21991132199764252,0.4667007029056549
1789022019882732800,5.30873291015625,1.8387030363082886,0.1539379209280014,0.5473348498344421
1789022019892658700,5.31865869140625,1.935219645500183,0.3481929302215576,0.5131264328956604
1789022019902584600,5.32858447265625,1.9547673463821411,0.5790998339653015,0.4324922561645508
1789022019912510500,5.338510498046875,1.9706497192382812,0.7122683525085449,0.38850998878479004
1789022019922436000,5.34843603515625,1.9694280624389648,0.7892373204231262,0.3042106628417969
1789022019932362000,5.358362060546875,1.9889757633209229,0.5962040424346924,0.26511532068252563
1789022019942288000,5.368287841796875,2.0182971954345703,0.43982264399528503,0.2712239623069763
1789022019952213800,5.3782138671875,2.0024147033691406,0.43982264399528503,0.21746785938739777
1789022019962139600,5.3881396484375,1.9315544366836548,0.36285367608070374,0.20891575515270233
1789022019972065500,5.3980654296875,1.9046764373779297,0.1905898153781891,0.2724456787109375
1789022019981991400,5.407991455078125,1.9401065111160278,0.41416633129119873,0.21746785938739777
1789022019991917300,5.417917236328125,1.9816453456878662,0.7220421433448792,0.09896009415388107
1789022020001843200,5.42784326171875,1.9694280624389648,0.5986474752426147,0.08063415437936783
1789022020011768800,5.437768798828125,1.9132285118103027,0.44348782300949097,0.08429934084415436
1789022020021694700,5.44769482421875,1.8545855283737183,0.544891357421875,0.059864748269319534
1789022020031620600,5.45762060546875,1.7702860832214355,0.8283326625823975,0.11117739230394363
1789022020041546500,5.46754638671875,1.7055344581604004,0.9077450633049011,0.13072505593299866
1789022020051472400,5.477472412109375,1.6126830577850342,0.7476984858512878,0.1185077652335167
1789022020061398300,5.487398193359375,1.5308271646499634,0.5656607747077942,0.14172062277793884
1789022020071324200,5.49732421875,1.4538581371307373,0.48013970255851746,0.12705987691879272
1789022020081250000,5.50725,1.3487894535064697,0.526565432548523,0.12217295914888382
1789022020091176000,5.517176025390625,1.2730422019958496,0.7525854110717773,0.1026252806186676
1789022020101101800,5.527101806640625,1.1826342344284058,0.8185588121414185,0.07574722915887833
1789022020111027700,5.53702783203125,0.9969313144683838,0.5962040424346924,0.10629047453403473
1789022020120953300,5.546953369140625,0.8002328872680664,0.37629270553588867,0.08063415437936783
1789022020130879200,5.556879150390625,0.5962040424346924,0.14782927930355072,-0.07330377399921417
1789022020140805000,5.56680517578125,0.3298669755458832,0.10751219838857651,-0.21991132199764252
1789022020150731000,5.57673095703125,0.06841685622930527,0.043982263654470444,-0.3139844834804535
1789022020160657000,5.586656982421875,-0.16615521907806396,-0.2309068888425827,-0.37140578031539917
1789022020170582800,5.596582763671875,-0.35796675086021423,-0.4740310609340668,-0.4312705397605896
1789022020180508700,5.6065087890625,-0.4886918365955353,-0.5082395076751709,-0.46914416551589966
1789022020190434600,5.6164345703125,-0.5986474752426147,-0.5192350745201111,-0.5558869242668152
1789022020200360400,5.6263603515625,-0.6743947267532349,-0.45448338985443115,-0.6597339510917664
1789022020210286300,5.636286376953125,-0.6902772188186646,-0.19914191961288452,-0.7073814272880554
1789022020220212200,5.646212158203125,-0.6511818766593933,0.10751219838857651,-0.6499601006507874
1789022020230138000,5.65613818359375,-0.6194168925285339,0.13439024984836578,-0.5766563415527344
1789022020240064000,5.66606396484375,-0.6035344004631042,-0.04886918142437935,-0.5106829404830933
1789022020249990000,5.675989990234375,-0.5986474752426147,-0.04153880476951599,-0.42882707715034485
1789022020259915800,5.685915771484375,-0.6450732350349426,0.21991132199764252,-0.3530798554420471
1789022020269841700,5.695841552734375,-0.7354812026023865,0.33597561717033386,-0.401949018239975
1789022020279767600,5.705767578125,-0.8014546036720276,0.2565632164478302,-0.6059778332710266
1789022020289693200,5.715693115234375,-0.8087849617004395,0.3090975880622864,-0.80389803647995
1789022020299619000,5.725619140625,-0.7904590368270874,0.5351175665855408,-0.8295543789863586
1789022020309545000,5.735544921875,-0.7709113359451294,0.6316341757774353,-0.6230821013450623
1789022020319470800,5.745470947265625,-0.7122683525085449,0.4776962697505951,-0.35063639283180237
1789022020329396700,5.755396728515625,-0.5522217750549316,0.16249002516269684,-0.15149445831775665
1789022020339322600,5.765322509765625,-0.3445277214050293,-0.2419024556875229,-0.10384701192378998
1789022020349248500,5.77524853515625,-0.28954991698265076,-0.5009090900421143,-0.24312418699264526
1789022020359174400,5.78517431640625,-0.31031930446624756,-0.3848448097705841,-0.42271843552589417
1789022020369100300,5.795100341796875,-0.11117739230394363,-0.08429934084415436,-0.3836230933666229
1789022020379026200,5.805026123046875,0.0977383628487587,-0.07819069176912308,-0.1441640853881836
1789022020388952000,5.8149521484375,0.02932151034474373,-0.1539379209280014,-0.021991131827235222
1789022020398878000,5.8248779296875,-0.1539379209280014,-0.2993237376213074,-0.12950333952903748
1789022020408803800,5.834803955078125,-0.3066541254520416,-0.5852084755897522,-0.23945899307727814
1789022020418729700,5.844729736328125,-0.43493571877479553,-0.8222240209579468,-0.24923282861709595
1789022020428655600,5.854655517578125,-0.4508182108402252,-0.8698714375495911,-0.22846342623233795
1789022020438581500,5.86458154296875,-0.42882707715034485,-0.6548470258712769,-0.2528980076313019
1789022020448507400,5.87450732421875,-0.4862483739852905,-0.3066541254520416,-0.3543015718460083
1789022020458433300,5.884433349609375,-0.5729911923408508,-0.08307760953903198,-0.4825831651687622
1789022020468359200,5.894359130859375,-0.6817250847816467,-0.2052505612373352,-0.5876519083976746
1789022020478285000,5.90428515625,-0.8063415288925171,-0.5668824911117554,-0.6976075768470764
1789022020488211000,5.9142109375,-0.8955277800559998,-1.0018181800842285,-0.9089667797088623
1789022020498136800,5.92413671875,-0.9602794051170349,-1.247385859489441,-1.1325433254241943
1789022020508062700,5.934062744140625,-1.0250310897827148,-1.1875211000442505,-1.1679733991622925
1789022020517988600,5.943988525390625,-1.156977891921997,-0.915075421333313,-1.0665699243545532
1789022020527914500,5.95391455078125,-1.3781108856201172,-0.5412262082099915,-1.0494656562805176
1789022020537840400,5.96384033203125,-1.6029092073440552,-0.12705987691879272,-1.1716386079788208
1789022020547766300,5.973766357421875,-1.7421863079071045,0.10873392969369888,-1.3072506189346313
1789022020557692200,5.983692138671875,-1.8264856338500977,-0.11728604137897491,-1.3182462453842163
1789022020567618000,5.9936181640625,-1.9034546613693237,-0.6792816519737244,-1.2241730690002441
1789022020577544000,6.0035439453125,-1.9938626289367676,-1.082452416419983,-1.1410953998565674
1789022020587469800,6.0134697265625,-2.0195188522338867,-1.0115920305252075,-1.08978271484375
1789022020597395700,6.023395751953125,-1.977980136871338,-0.7257073521614075,-0.9944878816604614
1789022020607321600,6.033321533203125,-1.9376630783081055,-0.5216785073280334,-0.8576541543006897
1789022020617247500,6.04324755859375,-1.8997894525527954,-0.3274235129356384,-0.7086031436920166
1789022020627173400,6.05317333984375,-1.8997894525527954,-0.26389357447624207,-0.5522217750549316
1789022020637099000,6.06309912109375,-1.8631376028060913,-0.42394015192985535,-0.46547895669937134
1789022020647025200,6.073025146484375,-1.7079778909683228,-0.5571087002754211,-0.370184063911438
1789022020656950800,6.08295068359375,-1.528383731842041,-0.4886918365955353,-0.21135921776294708
1789022020666876700,6.092876708984375,-1.2400555610656738,-0.1233946830034256,-0.06597339361906052
1789022020676802600,6.102802490234375,-0.8075632452964783,0.36774060130119324,0.034208428114652634
1789022020686728400,6.112728515625,-0.46914416551589966,0.45937031507492065,0.12583814561367035
1789022020696654300,6.122654296875,-0.24556763470172882,0.2883281707763672,0.21746785938739777
1789022020706580200,6.132580322265625,-0.04764745384454727,0.23335035145282745,0.27855435013771057
1789022020716506000,6.142506103515625,0.10873392969369888,0.4459312856197357,0.3384190797805786
1789022020726432000,6.152431884765625,0.2712239623069763,0.7098248600959778,0.3848448097705841
1789022020736358000,6.16235791015625,0.49480047821998596,0.8625410795211792,0.45326167345046997
1789022020746283800,6.17228369140625,0.7904590368270874,0.9395100474357605,0.5583304166793823
1789022020756209700,6.182209716796875,1.0641264915466309,0.7855721116065979,0.5790998339653015
1789022020766135600,6.192135498046875,1.286481261253357,0.360410213470459,0.5619956254959106
1789022020776061400,6.2020615234375,1.3976585865020752,-0.11117739230394363,0.5974257588386536
1789022020785987300,6.2119873046875,1.4208714962005615,-0.47036588191986084,0.7122683525085449
1789022020795913200,6.221913330078125,1.4721840620040894,-0.44837474822998047,0.7916807532310486
1789022020805839000,6.231839111328125,1.6676608324050903,-0.034208428114652634,0.7855721116065979
1789022020815765000,6.241764892578125,1.9193371534347534,0.3298669755458832,0.7183769941329956
1789022020825691000,6.25169091796875,2.1025965213775635,0.48991355299949646,0.7513636946678162
1789022020835616800,6.26161669921875,2.257756233215332,0.5192350745201111,0.8112284541130066
1789022020845542700,6.271542724609375,2.3176209926605225,0.5839866995811462,0.7867938280105591
1789022020855468500,6.281468505859375,2.2308781147003174,0.32009315490722656,0.7709113359451294
1789022020865394400,6.29139453125,2.1783437728881836,-0.05742128938436508,0.758694052696228
1789022020875320300,6.3013203125,2.199113130569458,0.04886918142437935,0.7159335017204285
1789022020885246200,6.31124609375,2.193004608154297,0.2577849328517914,0.6646208763122559
1789022020895172000,6.321172119140625,2.1795654296875,0.277332603931427,0.6976075768470764
1789022020905098000,6.331097900390625,2.188117742538452,0.19425499439239502,0.8197805285453796
1789022020915024000,6.34102392578125,2.2247695922851562,0.27366742491722107,0.8747583627700806
1789022020924949800,6.35094970703125,2.2418737411499023,0.3860665261745453,0.8833104968070984
1789022020934875600,6.360875732421875,2.184452533721924,0.2467893660068512,1.0079269409179688
1789022020944801500,6.370801513671875,2.0720534324645996,-0.05497783049941063,1.119104266166687
1789022020954727400,6.3807275390625,1.9498803615570068,-0.20402882993221283,1.0140355825424194
1789022020964653300,6.3906533203125,1.8570289611816406,-0.19181154668331146,0.794124186038971
1789022020974579200,6.4005791015625,1.8057162761688232,-0.02932151034474373,0.6805033683776855
1789022020984505000,6.410505126953125,1.7617340087890625,0.3738492429256439,0.6829468011856079
1789022020994430700,6.4204306640625,1.6884303092956543,0.8393282294273376,0.7134900689125061
1789022021004356600,6.430356689453125,1.5515965223312378,1.0299180746078491,0.6743947267532349
1789022021014282500,6.440282470703125,1.2632683515548706,0.7696896195411682,0.5473348498344421
1789022021024208400,6.45020849609375,0.9358448386192322,0.0720820426940918,0.370184063911438
1789022021034134300,6.46013427734375,0.7134900689125061,-0.3029889166355133,0.3249800503253937
1789022021044060200,6.47006005859375,0.5571087002754211,-0.24923282861709595,0.29565855860710144
1789022021053986000,6.479986083984375,0.370184063911438,-0.21380266547203064,0.20891575515270233
1789022021063912000,6.489911865234375,0.1539379209280014,-0.09162971377372742,0.1490510106086731
1789022021073837800,6.499837890625,-0.10629047453403473,0.04276053607463837,0.06230820715427399
1789022021083763700,6.509763671875,-0.44348782300949097,-0.014660755172371864,-0.11606431007385254
1789022021093689600,6.519689697265625,-0.7574723362922668,-0.3750709891319275,-0.34574946761131287
1789022021103615500,6.529615478515625,-1.0238093137741089,-0.943175196647644,-0.5326740741729736
1789022021113541400,6.539541259765625,-1.2388337850570679,-1.2877029180526733,-0.6230821013450623
1789022021123467300,6.54946728515625,-1.3158026933670044,-1.1166608333587646,-0.6328558921813965
1789022021133393200,6.55939306640625,-1.3072506189346313,-0.5937605500221252,-0.5839866995811462
1789022021143319000,6.569319091796875,-1.3109158277511597,-0.14049890637397766,-0.5351175665855408
1789022021153245000,6.579244873046875,-1.29503333568573,0.026878049597144127,-0.46059203147888184
1789022021163170800,6.5891708984375,-1.2974767684936523,-0.14782927930355072,-0.3543015718460083
1789022021173096700,6.5990966796875,-1.296255111694336,-0.34697118401527405,-0.1893680840730667
1789022021183022600,6.609022705078125,-1.3377938270568848,-0.22479823231697083,-0.07452550530433655
1789022021192948200,6.6189482421875,-1.3793326616287231,0.12950333952903748,-0.009773836471140385
1789022021202874000,6.6288740234375,-1.4379756450653076,0.22846342623233795,-0.024434590712189674
1789022021212800000,6.638800048828125,-1.390328288078308,0.33108872175216675,-0.018325943499803543
1789022021222726000,6.648725830078125,-1.2241730690002441,0.33231043815612793,0.03543015569448471
1789022021232651800,6.65865185546875,-1.092226266860962,0.14294235408306122,0.06475166976451874
1789022021242577700,6.66857763671875,-0.9578359723091125,0.0977383628487587,0.0818558782339096
1789022021252503600,6.678503662109375,-0.730594277381897,0.06597339361906052,0.14172062277793884
1789022021262429400,6.688429443359375,-0.5131264328956604,0.002443459117785096,0.17348559200763702
1789022021272355300,6.698355224609375,-0.37140578031539917,0.056199558079242706,0.1331685185432434
1789022021282281200,6.70828125,-0.28466299176216125,0.06352993845939636,0.08307760953903198
1789022021292207000,6.71820703125,-0.2528980076313019,-0.06719512492418289,0.028099779039621353
1789022021302133000,6.728133056640625,-0.4105011224746704,-0.3335321843624115,-0.06230820715427399
1789022021312059000,6.738058837890625,-0.6316341757774353,-0.4740310609340668,-0.11728604137897491
1789022021321984800,6.74798486328125,-0.7916807532310486,-0.3445277214050293,-0.06230820715427399
1789022021331910700,6.75791064453125,-0.8539889454841614,0.010995565913617611,0.04276053607463837
1789022021341836500,6.76783642578125,-0.8002328872680664,0.4263836145401001,0.06963858753442764
1789022021351762200,6.77776220703125,-0.7977893948554993,0.516791582107544,-0.009773836471140385
1789022021361688000,6.78768798828125,-0.831997811794281,-0.008552107028663158,-0.1698204129934311
1789022021371614000,6.797614013671875,-0.8539889454841614,-0.8759800791740417,-0.30543237924575806
1789022021381539800,6.807539794921875,-0.9053016304969788,-1.5222749710083008,-0.39217519760131836
1789022021391465700,6.8174658203125,-1.053130865097046,-1.6688826084136963,-0.45448338985443115
1789022021401391600,6.8273916015625,-1.266933560371399,-1.390328288078308,-0.5412262082099915
1789022021411317500,6.8373173828125,-1.4453060626983643,-0.8539889454841614,-0.6401863098144531
1789022021421243400,6.847243408203125,-1.5552617311477661,-0.31031930446624756,-0.7171552777290344
1789022021431169300,6.857169189453125,-1.646891474723816,-0.06719512492418289,-0.8026763200759888
1789022021441095200,6.86709521484375,-1.7470732927322388,-0.09896009415388107,-0.8576541543006897
1789022021451021000,6.87702099609375,-1.8106032609939575,-0.3225366175174713,-0.8662062287330627
1789022021460947000,6.886947021484375,-1.8228205442428589,-0.5143481492996216,-0.8698714375495911
1789022021470872600,6.89687255859375,-1.7983858585357666,-0.44959646463394165,-0.8283326625823975
1789022021480798500,6.906798583984375,-1.666439175605774,-0.33231043815612793,-0.7709113359451294
1789022021490724400,6.916724365234375,-1.5381574630737305,-0.328645259141922,-0.7281508445739746
1789022021500650200,6.926650146484375,-1.545487880706787,-0.48991355299949646,-0.6462949514389038
1789022021510576000,6.936576171875,-1.5968005657196045,-0.5192350745201111,-0.4874700903892517
1789022021520502000,6.946501953125,-1.5687007904052734,-0.3029889166355133,-0.3591884970664978
1789022021530428000,6.956427978515625,-1.4746276140213013,-0.014660755172371864,-0.27977606654167175
1789022021540353800,6.966353759765625,-1.352454662322998,0.2467893660068512,-0.24312418699264526
1789022021550279700,6.97627978515625,-1.1129956245422363,0.4471530318260193,-0.19181154668331146
1789022021560205300,6.986205322265625,-0.7855721116065979,0.637742817401886,-0.06597339361906052
1789022021570131200,6.996131103515625,-0.4862483739852905,0.778241753578186,0.09285144507884979
1789022021580057000,7.00605712890625,-0.25411975383758545,0.6743947267532349,0.2052505612373352
1789022021589983000,7.01598291015625,-0.030543239787220955,0.5045742988586426,0.19669845700263977
1789022021599908900,7.025908935546875,0.19914191961288452,0.43371400237083435,0.17592905461788177
1789022021609834800,7.035834716796875,0.42882707715034485,0.44470956921577454,0.27488914132118225
1789022021619760600,7.0457607421875,0.6743947267532349,0.6084213256835938,0.3787361681461334
1789022021629686500,7.0556865234375,0.9211840629577637,0.9187406301498413,0.4276053309440613
1789022021639612200,7.065612060546875,1.1801908016204834,1.1117738485336304,0.4874700903892517
1789022021649538300,7.075538330078125,1.3842196464538574,1.0543526411056519,0.45326167345046997
1789022021659464000,7.0854638671875,1.508836030960083,0.8491020202636719,0.4361574649810791
1789022021669389800,7.095389892578125,1.6212351322174072,0.5839866995811462,0.47036588191986084
1789022021679315700,7.105315673828125,1.7482949495315552,0.4923570156097412,0.4618137776851654
1789022021689241600,7.11524169921875,1.839924693107605,0.4361574649810791,0.4324922561645508
1789022021699167500,7.12516748046875,1.9401065111160278,0.3530798554420471,0.37140578031539917
1789022021709093400,7.13509326171875,2.0463969707489014,0.4972439408302307,0.31031930446624756
1789022021719019000,7.14501904296875,2.134361505508423,0.6096430420875549,0.25900667905807495
1789022021728945000,7.15494482421875,2.173456907272339,0.4361574649810791,0.2614501118659973
1789022021738870800,7.164870849609375,2.2027783393859863,0.17226386070251465,0.3029889166355133
1789022021748796700,7.174796630859375,2.299294948577881,0.21502439677715302,0.2932150959968567
1789022021758722600,7.18472265625,2.377485752105713,0.4972439408302307,0.2211330533027649
1789022021768648400,7.1946484375,2.4092507362365723,0.6633991599082947,0.2516762912273407
1789022021778574300,7.20457421875,2.425133228302002,0.7599157691001892,0.3909534513950348
1789022021788500200,7.214500244140625,2.394589900970459,0.9517273306846619,0.49113526940345764
1789022021798426000,7.224426025390625,2.316399335861206,1.0018181800842285,0.5998691916465759
1789022021808352000,7.23435205078125,2.3090689182281494,0.833219587802887,0.6939423680305481
1789022021818277600,7.244277587890625,2.327394723892212,0.8552106618881226,0.6609556674957275
1789022021828203500,7.25420361328125,2.3041820526123047,0.9773836731910706,0.6133082509040833
1789022021838129400,7.26412939453125,2.2027783393859863,1.0030399560928345,0.6255255341529846
1789022021848055300,7.27405517578125,1.9950844049453735,0.8100066781044006,0.6120865345001221
1789022021857981200,7.283981201171875,1.750738501548767,0.6230821013450623,0.6194168925285339
1789022021867907000,7.293906982421875,1.5320488214492798,0.6071996092796326,0.5815432667732239
1789022021877832700,7.303832763671875,1.2718204259872437,0.4667007029056549,0.3848448097705841
1789022021887758600,7.313758544921875,0.972496747970581,0.3078758418560028,0.20769402384757996
1789022021897684500,7.3236845703125,0.6829468011856079,0.18814635276794434,0.12461641430854797
1789022021907610400,7.3336103515625,0.4153880476951599,-0.1893680840730667,0.017104214057326317
1789022021917536300,7.343536376953125,0.1539379209280014,-0.6328558921813965,-0.08063415437936783
1789022021927462100,7.353462158203125,-0.08063415437936783,-0.84177166223526,-0.11972949653863907
1789022021937388000,7.363387939453125,-0.3396408259868622,-1.0128138065338135,-0.1747073233127594
1789022021947313700,7.373313720703125,-0.516791582107544,-0.8393282294273376,-0.14782927930355072
1789022021957239600,7.383239501953125,-0.6157516837120056,-0.5485565662384033,-0.08918625861406326
1789022021967165400,7.39316552734375,-0.6805033683776855,-0.34086254239082336,-0.04153880476951599
1789022021977091300,7.40309130859375,-0.730594277381897,-0.22846342623233795,-0.034208428114652634
1789022021987017200,7.413017333984375,-0.8161153197288513,-0.36774060130119324,-0.10506874322891235
1789022021996943000,7.422943115234375,-0.8698714375495911,-0.6169734001159668,-0.14782927930355072
1789022022006869000,7.432868896484375,-0.8625410795211792,-0.46547895669937134,-0.026878049597144127
1789022022016794600,7.442794677734375,-0.8625410795211792,0.1441640853881836,0.23823726177215576
1789022022026720500,7.452720458984375,-0.9737184643745422,0.6218603253364563,0.41416633129119873
1789022022036646400,7.462646484375,-1.156977891921997,0.2406807243824005,0.31154105067253113
1789022022046572300,7.472572265625,-1.2461642026901245,-0.2626718580722809,0.15271618962287903
1789022022056498200,7.482498291015625,-1.1337649822235107,-0.2162461280822754,-0.01954767294228077
1789022022066423800,7.492423828125,-0.8979712128639221,0.0769689604640007,-0.1747073233127594
1789022022076349700,7.502349609375,-0.6145299673080444,0.16126830875873566,-0.22357651591300964
1789022022086275600,7.512275634765625,-0.5033525824546814,0.17837251722812653,-0.16126830875873566
1789022022096201500,7.522201416015625,-0.5314523577690125,0.20891575515270233,-0.056199558079242706
1789022022106127400,7.53212744140625,-0.5302306413650513,0.07941242307424545,-0.020769402384757996
1789022022116053200,7.54205322265625,-0.4838049113750458,-0.16615521907806396,-0.06841685622930527
1789022022125979000,7.551978759765625,-0.5070177912712097,-0.2834412455558777,-0.13927717506885529
1789022022135904800,7.56190478515625,-0.554665207862854,-0.21502439677715302,-0.19792018830776215
1789022022145830700,7.57183056640625,-0.5766563415527344,-0.14294235408306122,-0.27366742491722107
1789022022155756500,7.581756591796875,-0.6536253094673157,-0.034208428114652634,-0.3652971386909485
1789022022165682400,7.591682373046875,-0.7648026943206787,0.15760311484336853,-0.40805765986442566
1789022022175608000,7.601608154296875,-0.8344413042068481,0.3396408259868622,-0.3042106628417969
1789022022185534000,7.611533935546875,-0.6963858604431152,0.6450732350349426,-0.14538581669330597
1789022022195459800,7.6214599609375,-0.4667007029056549,0.8405499458312988,-0.06352993845939636
1789022022205385700,7.6313857421875,-0.3396408259868622,0.675616443157196,-0.03787361457943916
1789022022215311600,7.6413115234375,-0.46425724029541016,0.16737695038318634,-0.07452550530433655
1789022022225237500,7.651237548828125,-0.7415898442268372,-0.4361574649810791,-0.21991132199764252
1789022022235163100,7.6611630859375,-1.0677915811538696,-0.8723149299621582,-0.35796675086021423
1789022022245089000,7.671089111328125,-1.3720022439956665,-1.0128138065338135,-0.36285367608070374
1789022022255015000,7.681014892578125,-1.6236785650253296,-0.9798271059989929,-0.42394015192985535
1789022022264940800,7.69094091796875,-1.859472393989563,-0.9004147052764893,-0.6817250847816467
1789022022274866700,7.70086669921875,-2.0182971954345703,-0.7880155444145203,-0.8955277800559998
1789022022284792300,7.710792236328125,-2.0488405227661133,-0.49602219462394714,-0.924849271774292
1789022022294718200,7.72071826171875,-2.0378448963165283,-0.07452550530433655,-0.8637627959251404
1789022022304644000,7.73064404296875,-2.008523464202881,0.03787361457943916,-0.7318159937858582
1789022022314570000,7.740570068359375,-1.915671944618225,-0.2565632164478302,-0.5510000586509705
1789022022324496000,7.750495849609375,-1.8374812602996826,-0.411722868680954,-0.35674503445625305
1789022022334421500,7.76042138671875,-1.8044945001602173,-0.3396408259868622,-0.24312418699264526
1789022022344347400,7.770347412109375,-1.8533637523651123,-0.3237583339214325,-0.15271618962287903
1789022022354273300,7.780273193359375,-1.8900156021118164,-0.5412262082099915,-0.11362084746360779
1789022022364199200,7.79019921875,-1.8264856338500977,-0.6145299673080444,-0.1954767256975174
1789022022374124800,7.800124755859375,-1.666439175605774,-0.4679224193096161,-0.1905898153781891
1789022022384050700,7.81005078125,-1.4245367050170898,-0.27366742491722107,0.003665188793092966
1789022022393976600,7.8199765625,-1.1704169511795044,0.0513126403093338,0.12583814561367035
1789022022403902500,7.82990234375,-0.9114102721214294,0.526565432548523,0.06841685622930527
1789022022413828400,7.839828369140625,-0.6389645338058472,1.0323615074157715,0.013439024798572063
1789022022423754200,7.849754150390625,-0.4068359434604645,1.2412772178649902,0.1380554437637329
1789022022433680000,7.859679931640625,-0.16615521907806396,1.0848958492279053,0.4361574649810791
1789022022443605800,7.869605712890625,0.03909534588456154,0.8173370957374573,0.5852084755897522
1789022022453531600,7.87953173828125,0.22968515753746033,0.6181951761245728,0.5436696410179138
1789022022463457500,7.88945751953125,0.46425724029541016,0.647516667842865,0.5033525824546814
1789022022473383200,7.899383056640625,0.7257073521614075,0.7367029190063477,0.5070177912712097
1789022022483309000,7.90930908203125,0.9944878816604614,0.7538071274757385,0.5131264328956604
1789022022493235000,7.91923486328125,1.2449424266815186,0.6719512343406677,0.5326740741729736
1789022022503160800,7.929160888671875,1.4257583618164062,0.6084213256835938,0.49480047821998596
1789022022513086700,7.939086669921875,1.5406010150909424,0.5962040424346924,0.43371400237083435
1789022022523012400,7.949012451171875,1.7091996669769287,0.7794634699821472,0.45937031507492065
1789022022532938200,7.958938232421875,1.9425499439239502,1.0506874322891235,0.5229002237319946
1789022022542864100,7.968864013671875,2.145357131958008,1.1887428760528564,0.44837474822998047
1789022022552790000,7.9787900390625,2.283412456512451,1.100778341293335,0.30543237924575806
1789022022562715600,7.988715576171875,2.414137601852417,0.8368847370147705,0.23212862014770508
1789022022572641500,7.9986416015625,2.5411975383758545,0.7195987105369568,0.19914191961288452
1789022022582567400,8.0085673828125,2.576627731323242,0.6365211009979248,0.16859868168830872
1789022022592493300,8.018493408203126,2.5668537616729736,0.4520399272441864,0.22968515753746033
1789022022602419200,8.028419189453125,2.5839579105377197,0.33108872175216675,0.32620179653167725
1789022022612344800,8.0383447265625,2.598618745803833,0.49602219462394714,0.3335321843624115
1789022022622270700,8.048270751953124,2.5692973136901855,0.7513636946678162,0.2626718580722809
1789022022632196600,8.058196533203125,2.475224018096924,0.8295543789863586,0.13194678723812103
1789022022642122500,8.06812255859375,2.397033452987671,0.7916807532310486,0.06597339361906052
1789022022652048100,8.078048095703124,2.3371686935424805,0.7965676784515381,0.04886918142437935
1789022022661974000,8.08797412109375,2.2956297397613525,0.7806851863861084,0.0769689604640007
1789022022671900000,8.09789990234375,2.2956297397613525,0.657290518283844,0.1747073233127594
1789022022681825800,8.10782568359375,2.327394723892212,0.647516667842865,0.24556763470172882
1789022022691751400,8.11775146484375,2.288299560546875,0.5888736248016357,0.23335035145282745
1789022022701677300,8.12767724609375,2.1001532077789307,0.49968740344047546,0.18570289015769958
1789022022711603200,8.137603271484375,1.8374812602996826,0.42271843552589417,0.13683371245861053
1789022022721529000,8.147529052734376,1.5809180736541748,0.31154105067253113,0.10751219838857651
1789022022731454700,8.157454833984374,1.313359260559082,0.18570289015769958,0.08063415437936783
1789022022741380600,8.167380615234375,1.0238093137741089,0.08674279600381851,0.08307760953903198
1789022022751306500,8.177306396484376,0.7183769941329956,-0.043982263654470444,0.024434590712189674
1789022022761232100,8.187232177734375,0.3298669755458832,-0.3335321843624115,-0.1795942485332489
1789022022771158000,8.197157958984375,-0.053756099194288254,-0.6499601006507874,-0.32620179653167725
1789022022781084000,8.207083984375,-0.3738492429256439,-0.6792816519737244,-0.3298669755458832
1789022022791009800,8.217009765625,-0.6340776681900024,-0.411722868680954,-0.29077163338661194
1789022022800935700,8.226935791015626,-0.9016364216804504,0.013439024798572063,-0.29443681240081787
1789022022810861300,8.236861328125,-1.2180644273757935,0.17715078592300415,-0.3995055556297302
1789022022820787200,8.246787109375,-1.4746276140213013,-0.14782927930355072,-0.6059778332710266
1789022022830713000,8.256713134765626,-1.6224569082260132,-0.5729911923408508,-0.8258891701698303
1789022022840639000,8.266638916015625,-1.7250821590423584,-0.7147117853164673,-0.9468404054641724
1789022022850564600,8.276564697265625,-1.6688826084136963,-0.5681042671203613,-0.915075421333313
1789022022860490500,8.286490478515624,-1.546709656715393,-0.44348782300949097,-0.7953459620475769
1789022022870416400,8.29641650390625,-1.499062180519104,-0.5155698657035828,-0.6401863098144531
1789022022880342300,8.30634228515625,-1.5125012397766113,-0.2822195291519165,-0.43371400237083435
1789022022890268000,8.316267822265624,-1.5491530895233154,0.26878049969673157,-0.34208428859710693
1789022022900193800,8.32619384765625,-1.4575233459472656,0.7037162184715271,-0.3799578845500946
1789022022910119700,8.33611962890625,-1.1618647575378418,0.6047561168670654,-0.27855435013771057
1789022022920045600,8.346045654296875,-0.8307760953903198,0.33597561717033386,-0.12583814561367035
1789022022929971200,8.35597119140625,-0.6169734001159668,0.411722868680954,-0.07086031138896942
1789022022939897000,8.36589697265625,-0.4214966893196106,0.4630354940891266,-0.0513126403093338
1789022022949823000,8.375822998046875,-0.25900667905807495,0.3249800503253937,-0.08429934084415436
1789022022959748900,8.385748779296875,-0.24312418699264526,0.1698204129934311,-0.21502439677715302
1789022022969674500,8.395674560546874,-0.30543237924575806,-0.13561198115348816,-0.40927940607070923
1789022022979600400,8.405600341796875,-0.4373791813850403,-0.2467893660068512,-0.4667007029056549
1789022022989526300,8.4155263671875,-0.5656607747077942,-0.14049890637397766,-0.3396408259868622
1789022022999452200,8.4254521484375,-0.5962040424346924,-0.2309068888425827,-0.13927717506885529
1789022023009377800,8.435377685546875,-0.720820426940918,-0.18692462146282196,-0.07819069176912308
1789022023019303700,8.4453037109375,-0.9126319885253906,0.09407317638397217,-0.15149445831775665
1789022023029229600,8.4552294921875,-0.9480621218681335,0.4312705397605896,-0.25900667905807495
1789022023039155200,8.4651552734375,-0.8405499458312988,0.5094612240791321,-0.35185810923576355
1789022023049081000,8.4750810546875,-0.7538071274757385,0.277332603931427,-0.3494146466255188
1789022023059007000,8.485007080078125,-0.7892373204231262,-0.16615521907806396,-0.24556763470172882
1789022023068932900,8.494932861328126,-0.9896009564399719,-0.5229002237319946,-0.1698204129934311
1789022023078858500,8.5048583984375,-1.2547162771224976,-0.794124186038971,-0.2565632164478302
1789022023088784400,8.514784423828125,-1.433088779449463,-1.0409135818481445,-0.43004879355430603
1789022023098710300,8.524710205078126,-1.4941751956939697,-1.1215476989746094,-0.5913171172142029
1789022023108636200,8.53463623046875,-1.545487880706787,-1.0140355825424194,-0.7159335017204285
1789022023118561800,8.544561767578125,-1.6077960729599,-0.9101884961128235,-0.740368127822876
1789022023128487700,8.55448779296875,-1.6395610570907593,-0.8185588121414185,-0.6695078015327454
1789022023138413600,8.56441357421875,-1.6591087579727173,-0.6389645338058472,-0.5668824911117554
1789022023148339500,8.57433935546875,-1.6591087579727173,-0.3640754222869873,-0.4740310609340668
1789022023158265000,8.58426513671875,-1.6420044898986816,-0.1649334877729416,-0.3738492429256439
1789022023168191000,8.59419091796875,-1.6481131315231323,-0.11728604137897491,-0.235793799161911
1789022023178116900,8.604116943359376,-1.64566969871521,-0.024434590712189674,-0.10995566099882126
1789022023188042500,8.61404248046875,-1.6090178489685059,0.08674279600381851,-0.018325943499803543
1789022023197968400,8.623968505859375,-1.536935806274414,0.036651886999607086,0.13561198115348816
1789022023207894300,8.633894287109374,-1.4172062873840332,0.020769402384757996,0.21868959069252014
1789022023217820200,8.643820068359375,-1.2156208753585815,0.08918625861406326,0.13927717506885529
1789022023227745800,8.653745849609376,-0.9749401807785034,0.1637117564678192,0.05864302068948746
1789022023237671700,8.663671630859374,-0.7098248600959778,0.22846342623233795,0.008552107028663158
1789022023247597600,8.67359765625,-0.46059203147888184,0.11239911615848541,-0.014660755172371864
1789022023257523500,8.6835234375,-0.2309068888425827,0.006108647678047419,-0.024434590712189674
1789022023267449300,8.693449462890625,0.03787361457943916,0.21868959069252014,0.017104214057326317
1789022023277375000,8.703375,0.34697118401527405,0.6145299673080444,0.11972949653863907
1789022023287300900,8.71330078125,0.6524035930633545,0.9834923148155212,0.2211330533027649
1789022023297226800,8.723226806640625,0.952949047088623,1.1117738485336304,0.3066541254520416
1789022023307152600,8.733152587890626,1.2400555610656738,0.9896009564399719,0.33231043815612793
1789022023317078300,8.743078369140624,1.490510106086731,0.7977893948554993,0.28588470816612244
1789022023327004200,8.753004150390625,1.6810998916625977,0.6328558921813965,0.2516762912273407
1789022023336930000,8.762929931640626,1.7776165008544922,0.4618137776851654,0.2467893660068512
1789022023346856000,8.77285595703125,1.8545855283737183,0.29565855860710144,0.25045454502105713
1789022023356781600,8.782781494140625,2.0073015689849854,0.2883281707763672,0.23212862014770508
1789022023366707500,8.79270751953125,2.218660831451416,0.5436696410179138,0.18570289015769958
1789022023376633300,8.80263330078125,2.3787074089050293,0.8539889454841614,0.15638138353824615
1789022023386559200,8.812559326171876,2.472780704498291,0.9077450633049011,0.1588248461484909
1789022023396485000,8.822485107421874,2.5656321048736572,0.7819069027900696,0.22479823231697083
1789022023406410800,8.83241064453125,2.646266222000122,0.5949822664260864,0.21991132199764252
1789022023416336600,8.842336669921876,2.6218316555023193,0.2919933497905731,0.1185077652335167
1789022023426262500,8.852262451171875,2.6047275066375732,0.056199558079242706,0.09407317638397217
1789022023436188400,8.8621884765625,2.6279401779174805,0.14294235408306122,0.0769689604640007
1789022023446114300,8.8721142578125,2.5839579105377197,0.3787361681461334,0.05497783049941063
1789022023456040000,8.8820400390625,2.5045456886291504,0.4373791813850403,0.13194678723812103
1789022023465965800,8.8919658203125,2.483776092529297,0.5803215503692627,0.2370155304670334
1789022023475891700,8.9018916015625,2.487441301345825,0.7880155444145203,0.37751442193984985
1789022023485817600,8.911817626953125,2.5106542110443115,1.1142174005508423,0.4923570156097412
1789022023495743200,8.9217431640625,2.381150960922241,1.3952151536941528,0.4263836145401001
1789022023505669000,8.931669189453125,1.9828671216964722,1.000596523284912,0.2626718580722809
1789022023515595000,8.941594970703125,1.682321548461914,-0.18570289015769958,0.10384701192378998
1789022023525521000,8.95152099609375,1.5589269399642944,-0.8600975871086121,0.04153880476951599
1789022023535446800,8.96144677734375,1.4672971963882446,-0.5778780579566956,0.026878049597144127
1789022023545372400,8.971372314453125,1.247385859489441,0.04886918142437935,-0.01588248461484909
1789022023555298300,8.98129833984375,0.9370665550231934,0.3396408259868622,-0.05742128938436508
1789022023565224200,8.99122412109375,0.627968966960907,0.11362084746360779,-0.06475166976451874
1789022023575150000,9.001150146484376,0.36163195967674255,-0.3384190797805786,-0.0513126403093338
1789022023585076000,9.011075927734375,0.09651663154363632,-0.8539889454841614,-0.046425722539424896
1789022023595001600,9.021001708984375,-0.18081597983837128,-1.082452416419983,-0.06230820715427399
1789022023604927500,9.030927490234374,-0.4520399272441864,-0.9578359723091125,-0.11606431007385254
1789022023614853400,9.040853271484375,-0.695164144039154,-0.7342594861984253,-0.20891575515270233
1789022023624779300,9.050779296875,-0.9138537049293518,-0.6682860851287842,-0.2712239623069763
1789022023634705000,9.060704833984374,-1.1337649822235107,-0.7696896195411682,-0.3090975880622864
1789022023644630800,9.070630859375,-1.3732240200042725,-0.8271108865737915,-0.3494146466255188
1789022023654556700,9.080556640625,-1.5491530895233154,-0.5558869242668152,-0.31642794609069824
1789022023664482600,9.090482666015625,-1.598022222518921,-0.26389357447624207,-0.2724456787109375
1789022023674408400,9.100408447265625,-1.5601485967636108,-0.2003636509180069,-0.2932150959968567
1789022023684334300,9.110334228515624,-1.5442661046981812,-0.3530798554420471,-0.34208428859710693
1789022023694260000,9.120260009765625,-1.5796962976455688,-0.5436696410179138,-0.42271843552589417
1789022023704185900,9.130185791015625,-1.6676608324050903,-0.4728093445301056,-0.5253437161445618
1789022023714111700,9.14011181640625,-1.6530001163482666,0.05864302068948746,-0.544891357421875
1789022023724037600,9.15003759765625,-1.4208714962005615,0.32009315490722656,-0.3970620930194855
1789022023733963500,9.159963623046876,-0.9334014058113098,0.053756099194288254,-0.10751219838857651
1789022023743889200,9.16988916015625,-0.4740310609340668,-0.3494146466255188,-0.008552107028663158
1789022023753815000,9.17981494140625,-0.3640754222869873,-0.47036588191986084,-0.2260199636220932
1789022023763741000,9.189740966796874,-0.5094612240791321,-0.28466299176216125,-0.45326167345046997
1789022023773666800,9.199666748046875,-0.5827649831771851,-0.27488914132118225,-0.46059203147888184
1789022023783592400,9.209592529296875,-0.6365211009979248,-0.27855435013771057,-0.34574946761131287
1789022023793518300,9.219518310546874,-0.7538071274757385,-0.06352993845939636,-0.19914191961288452
1789022023803444200,9.2294443359375,-0.8356630206108093,0.09651663154363632,-0.08429934084415436
1789022023813370000,9.2393701171875,-0.9053016304969788,0.08429934084415436,-0.06841685622930527
1789022023823296000,9.2492958984375,-0.9321796298027039,0.021991131827235222,-0.1490510106086731
1789022023833221600,9.2592216796875,-0.9101884961128235,0.08429934084415436,-0.25534147024154663
1789022023843147500,9.2691474609375,-0.8930842876434326,0.1844811588525772,-0.31642794609069824
1789022023853073400,9.279073486328125,-0.8833104968070984,0.16126830875873566,-0.3274235129356384
1789022023862999300,9.288999267578125,-0.9456186890602112,-0.018325943499803543,-0.2993237376213074
1789022023872925200,9.29892529296875,-1.1594213247299194,-0.2663370370864868,-0.30054548382759094
1789022023882851000,9.30885107421875,-1.3952151536941528,-0.401949018239975,-0.4068359434604645
1789022023892776700,9.318776611328126,-1.4734058380126953,-0.2822195291519165,-0.49480047821998596
1789022023902702600,9.32870263671875,-1.4746276140213013,-0.15027274191379547,-0.471587598323822
1789022023912628500,9.33862841796875,-1.6053526401519775,-0.3787361681461334,-0.4838049113750458
1789022023922554400,9.348554443359374,-1.8154901266098022,-0.9224058389663696,-0.6145299673080444
1789022023932480000,9.35847998046875,-1.9425499439239502,-1.2412772178649902,-0.7061597108840942
1789022023942406000,9.368406005859375,-1.9315544366836548,-0.9456186890602112,-0.6768381595611572
1789022023952331800,9.378331787109374,-1.860694169998169,-0.31642794609069824,-0.6560688018798828
1789022023962257700,9.388257568359375,-1.760512351989746,0.03298669680953026,-0.5937605500221252
1789022023972183600,9.39818359375,-1.6982040405273438,-0.1539379209280014,-0.43371400237083435
1789022023982109200,9.408109130859375,-1.6786564588546753,-0.38728827238082886,-0.23335035145282745
1789022023992035000,9.41803515625,-1.6249003410339355,-0.31520622968673706,-0.09651663154363632
1789022024001961000,9.4279609375,-1.499062180519104,-0.0977383628487587,-0.03787361457943916
1789022024011886800,9.437886962890625,-1.33290696144104,0.001221729558892548,-0.04153880476951599
1789022024021812700,9.447812744140625,-1.130099892616272,-0.013439024798572063,-0.09285144507884979
1789022024031738400,9.45773828125,-0.8759800791740417,0.06719512492418289,-0.14172062277793884
1789022024041664300,9.467664306640625,-0.5571087002754211,0.3249800503253937,-0.12950333952903748
1789022024051590100,9.477590087890626,-0.2052505612373352,0.5485565662384033,-0.08063415437936783
1789022024061516000,9.48751611328125,0.028099779039621353,0.5571087002754211,-0.06841685622930527
1789022024071441700,9.497441650390625,0.2675587832927704,0.6389645338058472,-0.04520399495959282
1789022024081367600,9.507367431640626,0.5583304166793823,0.7183769941329956,0.0818558782339096
1789022024091293400,9.51729345703125,0.8283326625823975,0.7440332770347595,0.2467893660068512
1789022024101219300,9.52721923828125,1.033583164215088,0.7831286191940308,0.3176496922969818
1789022024111145200,9.537145263671874,1.2107340097427368,0.6768381595611572,0.28466299176216125
1789022024121070800,9.54707080078125,1.4123194217681885,0.4324922561645508,0.24556763470172882
1789022024130996700,9.556996826171876,1.5601485967636108,0.32620179653167725,0.22357651591300964
1789022024140922600,9.566922607421875,1.7153083086013794,0.4557051360607147,0.2516762912273407
1789022024150848500,9.5768486328125,1.8949025869369507,0.6108647584915161,0.3347539007663727
1789022024160774100,9.586774169921876,2.0439536571502686,0.7037162184715271,0.3995055556297302
1789022024170700000,9.596699951171875,2.1551308631896973,0.6450732350349426,0.39339691400527954
1789022024180626000,9.6066259765625,2.2614214420318604,0.5375609993934631,0.37140578031539917
1789022024190551800,9.6165517578125,2.3762640953063965,0.48991355299949646,0.36285367608070374
1789022024200477400,9.6264775390625,2.483776092529297,0.5656607747077942,0.3396408259868622
1789022024210403300,9.6364033203125,2.5521931648254395,0.6450732350349426,0.2712239623069763
1789022024220329200,9.6463291015625,2.5888450145721436,0.6059778332710266,0.26878049969673157
1789022024230255000,9.656255126953125,2.59006667137146,0.49968740344047546,0.2919933497905731
1789022024240181000,9.666180908203126,2.5192062854766846,0.5131264328956604,0.22846342623233795
1789022024250106600,9.676106689453125,2.4349069595336914,0.5839866995811462,0.1893680840730667
1789022024260032500,9.686032470703125,2.392146587371826,0.7660244107246399,0.24923282861709595
1789022024269958400,9.69595849609375,2.3677117824554443,0.9749401807785034,0.2809978127479553
1789022024279884300,9.70588427734375,2.3432772159576416,1.091004490852356,0.3078758418560028
1789022024289810200,9.71581005859375,2.2821907997131348,1.000596523284912,0.2675587832927704
1789022024299735800,9.72573583984375,2.0830488204956055,0.554665207862854,0.0818558782339096
1789022024309661700,9.73566162109375,1.8106032609939575,0.1185077652335167,-0.11972949653863907
1789022024319587600,9.745587646484376,1.528383731842041,-0.06841685622930527,-0.21380266547203064
1789022024329513500,9.755513427734375,1.2498292922973633,-0.06352993845939636,-0.21502439677715302
1789022024339439000,9.765439208984375,1.0238093137741089,-0.04276053607463837,-0.14782927930355072
1789022024349365000,9.775364990234374,0.8710931539535522,0.020769402384757996,-0.0818558782339096
1789022024359291000,9.785290771484375,0.695164144039154,0.017104214057326317,-0.07574722915887833
1789022024369216500,9.795216552734376,0.4874700903892517,-0.11117739230394363,-0.12705987691879272
1789022024379142400,9.805142333984374,0.27977606654167175,-0.3530798554420471,-0.21991132199764252
1789022024389068300,9.815068359375,0.03543015569448471,-0.5057960152626038,-0.25534147024154663
1789022024398994200,9.824994140625,-0.22235478460788727,-0.5119046568870544,-0.23212862014770508
1789022024408920000,9.834920166015625,-0.43860089778900146,-0.5986474752426147,-0.235793799161911
1789022024418845700,9.844845703125,-0.6120865345001221,-0.8197805285453796,-0.2919933497905731
1789022024428771600,9.854771484375,-0.778241753578186,-0.9932661056518555,-0.3836230933666229
1789022024438697500,9.864697509765625,-0.9663881063461304,-1.0360267162322998,-0.47036588191986084
1789022024448623400,9.874623291015626,-1.1398736238479614,-0.9272927641868591,-0.5119046568870544
1789022024458549000,9.884549072265624,-1.2168426513671875,-0.7159335017204285,-0.5216785073280334
1789022024468475000,9.894474853515625,-1.2327251434326172,-0.5241219997406006,-0.5057960152626038
1789022024478400800,9.90440087890625,-1.2107340097427368,-0.3347539007663727,-0.4520399272441864
1789022024488326400,9.914326416015625,-1.196073293685913,-0.2626718580722809,-0.39339691400527954
1789022024498252300,9.924252197265625,-1.276707410812378,-0.4361574649810791,-0.3738492429256439
1789022024508178200,9.93417822265625,-1.3939933776855469,-0.536339282989502,-0.35063639283180237
1789022024518104000,9.94410400390625,-1.4648537635803223,-0.526565432548523,-0.2932150959968567
1789022024528029700,9.95402978515625,-1.4086542129516602,-0.38850998878479004,-0.16737695038318634
1789022024537955600,9.96395556640625,-1.2718204259872437,-0.2003636509180069,-0.001221729558892548
1789022024547881500,9.973881591796875,-1.1227694749832153,-0.11362084746360779,0.09285144507884979
1789022024557807400,9.983807373046876,-1.0067051649093628,-0.026878049597144127,0.059864748269319534
1789022024567733000,9.99373291015625,-0.8772017955780029,0.036651886999607086,-0.024434590712189674
1789022024577659000,10.003658935546875,-0.711046576499939,0.003665188793092966,-0.06597339361906052
1789022024587584800,10.013584716796874,-0.5803215503692627,-0.006108647678047419,-0.036651886999607086
1789022024597510700,10.0235107421875,-0.5510000586509705,-0.07452550530433655,-0.03787361457943916
1789022024607436300,10.033436279296875,-0.6499601006507874,-0.27000224590301514,-0.13927717506885529
1789022024617362200,10.043362060546874,-0.8283326625823975,-0.39828383922576904,-0.25411975383758545
1789022024627288000,10.0532880859375,-1.0458004474639893,-0.34574946761131287,-0.2712239623069763
1789022024637213700,10.063213623046876,-1.2828160524368286,-0.287106454372406,-0.19669845700263977
1789022024647139600,10.0731396484375,-1.5577051639556885,-0.16249002516269684,-0.1588248461484909
1789022024657065500,10.0830654296875,-1.7397428750991821,0.002443459117785096,-0.2260199636220932
1789022024666991000,10.0929912109375,-1.656665325164795,0.21380266547203064,-0.2993237376213074
1789022024676917000,10.1029169921875,-1.4844014644622803,0.31520622968673706,-0.2993237376213074
1789022024686843000,10.1128427734375,-1.5063925981521606,0.15515965223312378,-0.27855435013771057
1789022024696768800,10.122768798828124,-1.6505566835403442,-0.24312418699264526,-0.27000224590301514
1789022024706694400,10.1326943359375,-1.7470732927322388,-0.6255255341529846,-0.21502439677715302
1789022024716620300,10.142620361328126,-1.7531819343566895,-0.9077450633049011,-0.16737695038318634
1789022024726546200,10.152546142578124,-1.7690644264221191,-1.2608249187469482,-0.2101374864578247
1789022024736472000,10.16247216796875,-1.811824917793274,-1.588248372077942,-0.28588470816612244
1789022024746397700,10.172397705078126,-1.7873903512954712,-1.655443549156189,-0.3237583339214325
1789022024756323600,10.182323486328125,-1.6957606077194214,-1.2424989938735962,-0.3335321843624115
1789022024766249200,10.192249267578125,-1.5515965223312378,-0.45326167345046997,-0.2577849328517914
1789022024776175000,10.202175048828124,-1.4672971963882446,0.15149445831775665,-0.04153880476951599
1789022024786101000,10.21210107421875,-1.4123194217681885,0.2626718580722809,0.24556763470172882
1789022024796027000,10.22202685546875,-1.3781108856201172,0.18814635276794434,0.40805765986442566
1789022024805952500,10.231952392578124,-1.255937933921814,0.07941242307424545,0.5681042671203613
1789022024815878400,10.24187841796875,-1.0238093137741089,0.021991131827235222,0.6682860851287842
1789022024825804300,10.25180419921875,-0.7281508445739746,0.22968515753746033,0.6304124593734741
1789022024835730000,10.26172998046875,-0.39828383922576904,0.43493571877479553,0.5656607747077942
1789022024845655800,10.27165576171875,-0.09285144507884979,0.3433060050010681,0.5619956254959106
1789022024855581700,10.281581787109374,0.11972949653863907,0.1185077652335167,0.554665207862854
1789022024865507300,10.29150732421875,0.2834412455558777,-0.13927717506885529,0.5302306413650513
1789022024875433200,10.30143310546875,0.401949018239975,-0.3042106628417969,0.5143481492996216
1789022024885359000,10.311359130859374,0.4776962697505951,-0.08552107214927673,0.47036588191986084
1789022024895284700,10.32128466796875,0.637742817401886,0.4776962697505951,0.4618137776851654
1789022024905210600,10.331210693359376,0.9773836731910706,1.062904715538025,0.5326740741729736
1789022024915136500,10.341136474609375,1.2253947257995605,1.1850776672363281,0.5497782826423645
1789022024925062100,10.351062255859375,1.3744457960128784,0.8723149299621582,0.5106829404830933
1789022024934988000,10.360988037109376,1.4294235706329346,0.49113526940345764,0.4764745235443115
1789022024944914000,10.370913818359375,1.4563016891479492,0.4153880476951599,0.42882707715034485
1789022024954839600,10.380839599609375,1.5100576877593994,0.4373791813850403,0.43860089778900146
1789022024964765400,10.390765380859374,1.545487880706787,0.34574946761131287,0.4581485986709595
1789022024974691300,10.40069140625,1.6126830577850342,0.10140355676412582,0.3848448097705841
1789022024984617000,10.410616943359376,1.64566969871521,-0.10995566099882126,0.28954991698265076
1789022024994542800,10.42054296875,1.655443549156189,-0.16249002516269684,0.2406807243824005
1789022025004468700,10.43046875,1.682321548461914,0.012217295356094837,0.23335035145282745
1789022025014394400,10.440394287109376,1.830150842666626,0.5033525824546814,0.287106454372406
1789022025024320300,10.4503203125,1.9547673463821411,0.9419534802436829,0.3946186602115631
1789022025034246100,10.46024609375,1.9107850790023804,1.0238093137741089,0.44959646463394165
1789022025044171800,10.470171875,1.792277216911316,0.6181951761245728,0.5436696410179138
1789022025054097700,10.48009765625,1.7177517414093018,0.06108647957444191,0.6524035930633545
1789022025064023600,10.4900234375,1.6859867572784424,-0.360410213470459,0.6976075768470764
1789022025073949200,10.49994921875,1.7043126821517944,-0.6988292932510376,0.6902772188186646
1789022025083875000,10.509875,1.7482949495315552,-0.7550288438796997,0.5424479246139526
1789022025093800700,10.51980078125,1.8008294105529785,-0.1747073233127594,0.2260199636220932
1789022025103726600,10.5297265625,1.8716896772384644,0.7733548283576965,0.004886918235570192
1789022025113652500,10.539652587890625,1.8814635276794434,1.5992439985275269,0.22724169492721558
1789022025123578000,10.549578125,1.7702860832214355,2.2088871002197266,0.6218603253364563
1789022025133504000,10.55950390625,1.5015056133270264,2.207665205001831,0.8185588121414185
1789022025143430000,10.569429931640625,1.1215476989746094,1.4110976457595825,0.7428115606307983
1789022025153355500,10.57935546875,0.8735366463661194,0.6707295179367065,0.6108647584915161
1789022025163281400,10.589281494140625,0.768467903137207,0.4410443603992462,0.36651885509490967
1789022025173207000,10.59920703125,0.6243038177490234,0.2309068888425827,-0.021991131827235222
1789022025183133000,10.6091328125,0.5009090900421143,-0.17104214429855347,-0.31520622968673706
1789022025193058800,10.619058837890625,0.46425724029541016,-0.3836230933666229,-0.4373791813850403
1789022025202984400,10.628984375,0.39339691400527954,-0.4263836145401001,-0.4557051360607147
1789022025212910300,10.638910400390625,0.22235478460788727,-0.22479823231697083,-0.3860665261745453
1789022025222836200,10.648836181640625,0.012217295356094837,0.0513126403093338,-0.31031930446624756
1789022025232761900,10.658761962890624,-0.1795942485332489,-0.06841685622930527,-0.2675587832927704
1789022025242687700,10.668687744140625,-0.4166097939014435,-0.9712749719619751,-0.3543015718460083
1789022025252613400,10.67861328125,-0.7757982611656189,-1.8106032609939575,-0.5253437161445618
1789022025262539300,10.688539306640624,-1.0421353578567505,-1.7263038158416748,-0.6450732350349426
1789022025272465200,10.698465087890625,-1.0042617321014404,-0.9578359723091125,-0.536339282989502
1789022025282390800,10.708390869140626,-0.7147117853164673,-0.2761108875274658,-0.06352993845939636
1789022025292316700,10.718316650390625,-0.3555232882499695,0.27855435013771057,0.5424479246139526
1789022025302242300,10.7282421875,0.2565632164478302,0.8087849617004395,0.9187406301498413
1789022025312168200,10.738168212890624,0.8772017955780029,0.7415898442268372,0.9883792400360107
1789022025322094000,10.748093994140625,0.8833104968070984,0.18203771114349365,0.5876519083976746
1789022025332019700,10.758019775390625,0.6536253094673157,-0.5326740741729736,-0.10384701192378998
1789022025341945600,10.767945556640624,0.3591884970664978,-0.8820887207984924,-0.4838049113750458
1789022025351871200,10.777871337890625,-0.030543239787220955,-0.3750709891319275,-0.3652971386909485
1789022025361797000,10.787797119140626,-0.27488914132118225,0.43860089778900146,-0.08429934084415436
1789022025371722800,10.79772265625,-0.49113526940345764,0.9786053895950317,0.11606431007385254
1789022025381648600,10.807648681640625,-0.6389645338058472,0.8723149299621582,0.17592905461788177
1789022025391574500,10.817574462890626,-0.7525854110717773,0.29443681240081787,0.07574722915887833
1789022025401500200,10.827500244140625,-0.8539889454841614,-0.44470956921577454,-0.09040798991918564
1789022025411426000,10.837426025390625,-0.9822705388069153,-1.2205078601837158,-0.19669845700263977
1789022025421351700,10.8473515625,-1.148425817489624,-1.4721840620040894,-0.2052505612373352
1789022025431277600,10.857277587890625,-1.148425817489624,-1.0299180746078491,-0.15515965223312378
1789022025441203500,10.867203369140626,-0.9089667797088623,-0.17592905461788177,0.021991131827235222
1789022025451129000,10.877129150390624,-0.5619956254959106,0.5839866995811462,0.32131487131118774
1789022025461055000,10.887054931640625,-0.31520622968673706,0.8466585874557495,0.5424479246139526
1789022025470980600,10.896980712890626,-0.15149445831775665,0.5424479246139526,0.5180133581161499
1789022025480906500,10.906906494140625,0.030543239787220955,-0.04886918142437935,0.24434591829776764
1789022025490832100,10.91683203125,0.11728604137897491,-0.516791582107544,-0.13072505593299866
1789022025500758000,10.926758056640624,0.013439024798572063,-0.6389645338058472,-0.41783151030540466
1789022025510683600,10.93668359375,-0.12583814561367035,-0.38240134716033936,-0.4740310609340668
1789022025520609500,10.946609619140625,-0.22235478460788727,0.13683371245861053,-0.30543237924575806
1789022025530535400,10.956535400390624,-0.401949018239975,0.5045742988586426,-0.1331685185432434
1789022025540461000,10.9664609375,-0.6633991599082947,0.5864301919937134,-0.08429934084415436
1789022025550387000,10.976386962890626,-0.8918625712394714,0.675616443157196,-0.06352993845939636
1789022025560312600,10.9863125,-1.0225876569747925,0.8796452879905701,-0.043982263654470444
1789022025570238500,10.996238525390625,-1.0274745225906372,1.043357014656067,-0.03787361457943916
1789022025580164000,11.0061640625,-1.0519092082977295,0.9663881063461304,-0.0769689604640007
1789022025590090000,11.016090087890625,-1.0800089836120605,0.6731730103492737,-0.16859868168830872
1789022025600015600,11.026015625,-1.0800089836120605,0.13927717506885529,-0.2968802750110626
1789022025609941500,11.03594140625,-1.2583814859390259,-0.4202749729156494,-0.4276053309440613
1789022025619867100,11.0458671875,-1.480736255645752,-0.5766563415527344,-0.48013970255851746
1789022025629793000,11.05579296875,-1.663995623588562,-0.34697118401527405,-0.4581485986709595
1789022025639719000,11.065718994140624,-1.8533637523651123,-0.07941242307424545,-0.4043924808502197
1789022025649644500,11.07564453125,-1.9633194208145142,-0.004886918235570192,-0.3543015718460083
1789022025659570400,11.0855703125,-1.9730932712554932,-0.02932151034474373,-0.3127627670764923
1789022025669496000,11.09549609375,-1.9364413022994995,-0.06719512492418289,-0.29077163338661194
1789022025679422000,11.105421875,-1.9022328853607178,-0.1441640853881836,-0.2822195291519165
1789022025689347600,11.11534765625,-1.8912373781204224,-0.2834412455558777,-0.28466299176216125
1789022025699273500,11.1252734375,-1.8289291858673096,-0.3946186602115631,-0.2968802750110626
1789022025709199000,11.13519921875,-1.703091025352478,-0.3799578845500946,-0.32131487131118774
1789022025719125000,11.145125,-1.5931353569030762,-0.25534147024154663,-0.3225366175174713
1789022025729050600,11.155050537109375,-1.5296053886413574,-0.15515965223312378,-0.2968802750110626
1789022025738976500,11.1649765625,-1.461188554763794,-0.15271618962287903,-0.20891575515270233
1789022025748902100,11.174902099609374,-1.3304635286331177,-0.2968802750110626,-0.05742128938436508
1789022025758828000,11.184828125,-1.1496474742889404,-0.44348782300949097,0.030543239787220955
1789022025768753700,11.194753662109376,-0.9590576887130737,-0.5094612240791321,0.024434590712189674
1789022025778679600,11.204679443359375,-0.7611374855041504,-0.5119046568870544,0.050090912729501724
1789022025788605200,11.214605224609375,-0.546113133430481,-0.4214966893196106,0.14294235408306122
1789022025798531000,11.224531005859374,-0.3249800503253937,-0.26022839546203613,0.18203771114349365
1789022025808456700,11.234456787109375,-0.13927717506885529,-0.10384701192378998,0.13194678723812103
1789022025818382600,11.244382568359375,0.013439024798572063,-0.05253437161445618,0.08674279600381851
1789022025828308200,11.25430810546875,0.18081597983837128,-0.08552107214927673,0.13683371245861053
1789022025838234000,11.264234130859375,0.39217519760131836,0.03543015569448471,0.20647229254245758
1789022025848159700,11.27415966796875,0.6230821013450623,0.25045454502105713,0.19181154668331146
1789022025858085600,11.284085693359375,0.8637627959251404,0.39217519760131836,0.20158538222312927
1789022025868011300,11.29401123046875,1.0702351331710815,0.5192350745201111,0.2260199636220932
1789022025877937200,11.303937255859376,1.2217295169830322,0.5717694163322449,0.23335035145282745
1789022025887862800,11.31386279296875,1.3096940517425537,0.5277871489524841,0.25534147024154663
1789022025897788700,11.32378857421875,1.3781108856201172,0.44470956921577454,0.27855435013771057
1789022025907714300,11.33371435546875,1.4440842866897583,0.3066541254520416,0.24923282861709595
1789022025917640200,11.34364013671875,1.517388105392456,0.29443681240081787,0.26389357447624207
1789022025927565800,11.35356591796875,1.5393792390823364,0.4422661066055298,0.277332603931427
1789022025937491700,11.36349169921875,1.546709656715393,0.5204567909240723,0.29443681240081787
1789022025947417300,11.373417236328125,1.6065744161605835,0.411722868680954,0.3384190797805786
1789022025957343200,11.38334326171875,1.6676608324050903,0.25411975383758545,0.31642794609069824
1789022025967268900,11.393268798828124,1.701869249343872,0.010995565913617611,0.27366742491722107
1789022025977194800,11.40319482421875,1.7421863079071045,-0.10506874322891235,0.22479823231697083
1789022025987120400,11.413120361328126,1.7727296352386475,-0.0513126403093338,0.18814635276794434
1789022025997046300,11.42304638671875,1.7666209936141968,0.07086031138896942,0.1795942485332489
1789022026006972000,11.432971923828125,1.7837251424789429,0.2626718580722809,0.17104214429855347
1789022026016897800,11.442897705078124,1.8130466938018799,0.5424479246139526,0.16737695038318634
1789022026026823400,11.452823486328125,1.7751730680465698,0.8173370957374573,0.1282816082239151
1789022026036749000,11.4627490234375,1.7189735174179077,1.0934479236602783,0.03176496922969818
1789022026046675000,11.472675048828124,1.6627739667892456,1.1325433254241943,0.0256563201546669
1789022026056600600,11.4826005859375,1.6016874313354492,0.8808670043945312,0.1185077652335167
1789022026066526500,11.4925263671875,1.5894701480865479,0.7733548283576965,0.12461641430854797
1789022026076452000,11.5024521484375,1.6346741914749146,0.7269290685653687,0.12095122784376144
1789022026086378000,11.5123779296875,1.6786564588546753,0.647516667842865,0.10018182545900345
1789022026096303600,11.5223037109375,1.6395610570907593,0.5766563415527344,-0.043982263654470444
1789022026106229500,11.5322294921875,1.5137228965759277,0.45326167345046997,-0.14049890637397766
1789022026116155100,11.542155029296875,1.3585633039474487,0.3640754222869873,-0.1905898153781891
1789022026126081000,11.5520810546875,1.1643083095550537,0.47036588191986084,-0.3237583339214325
1789022026136006700,11.562006591796875,0.9676098227500916,0.3946186602115631,-0.5485565662384033
1789022026145932300,11.571932373046875,0.7660244107246399,-0.19425499439239502,-0.6707295179367065
1789022026155858200,11.581858154296874,0.536339282989502,-0.7599157691001892,-0.5790998339653015
1789022026165783800,11.59178369140625,0.5790998339653015,-0.6157516837120056,-0.32009315490722656
1789022026175709700,11.601709716796876,0.6646208763122559,-0.08796452730894089,-0.17104214429855347
1789022026185635300,11.61163525390625,0.5595521330833435,0.14782927930355072,-0.21502439677715302
1789022026195561200,11.621561279296875,0.4728093445301056,0.3176496922969818,-0.23212862014770508
1789022026205486800,11.63148681640625,0.5057960152626038,0.4728093445301056,-0.18692462146282196
1789022026215412700,11.641412841796875,0.4874700903892517,0.37262752652168274,-0.2003636509180069
1789022026225338400,11.65133837890625,0.3591884970664978,0.1233946830034256,-0.27000224590301514
1789022026235264000,11.661263916015624,0.17592905461788177,-0.0720820426940918,-0.3078758418560028
1789022026245190000,11.67118994140625,-0.002443459117785096,-0.277332603931427,-0.3298669755458832
1789022026255115500,11.681115478515625,-0.13561198115348816,-0.5253437161445618,-0.3274235129356384
1789022026265041400,11.69104150390625,-0.22357651591300964,-0.8087849617004395,-0.3066541254520416
1789022026274967000,11.700967041015625,-0.3555232882499695,-1.120326042175293,-0.3066541254520416
1789022026284893000,11.710892822265626,-0.4630354940891266,-1.0286962985992432,-0.26022839546203613
1789022026294818600,11.720818603515625,-0.4923570156097412,-0.685390293598175,-0.1380554437637329
1789022026304744400,11.730744384765625,-0.4581485986709595,-0.4105011224746704,0.03909534588456154
1789022026314670000,11.740670166015626,-0.49113526940345764,-0.6181951761245728,-0.010995565913617611
1789022026324595700,11.750595703125,-0.6059778332710266,-0.6230821013450623,-0.1905898153781891
1789022026334521600,11.760521484375,-0.6524035930633545,-0.328645259141922,-0.2528980076313019
1789022026344447200,11.770447265625,-0.6719512343406677,-0.21135921776294708,-0.23335035145282745
1789022026354373000,11.780373046875,-0.6499601006507874,-0.2467893660068512,-0.15515965223312378
1789022026364298800,11.790298828125,-0.6401863098144531,-0.6243038177490234,-0.13927717506885529
1789022026374224400,11.800224365234374,-0.7367029190063477,-0.8588758707046509,-0.19181154668331146
1789022026384150300,11.810150390625,-0.7122683525085449,-0.41905322670936584,-0.15149445831775665
1789022026394076000,11.820075927734376,-0.6401863098144531,-0.2712239623069763,-0.043982263654470444
1789022026404001800,11.830001708984375,-0.5009090900421143,-0.2675587832927704,0.10140355676412582
1789022026413927400,11.839927490234375,-0.3750709891319275,-0.27855435013771057,0.09162971377372742
1789022026423853300,11.849853271484376,-0.3811796307563782,-0.3543015718460083,-0.05253437161445618
1789022026433779000,11.859779052734375,-0.4508182108402252,-0.2577849328517914,-0.0818558782339096
1789022026443704600,11.86970458984375,-0.5094612240791321,-0.24312418699264526,0.008552107028663158
1789022026453630500,11.87963037109375,-0.5400044918060303,-0.44348782300949097,0.053756099194288254
1789022026463556000,11.88955615234375,-0.627968966960907,-0.4972439408302307,0.017104214057326317
1789022026473481700,11.899481689453125,-0.6878337264060974,-0.40805765986442566,-0.03909534588456154
1789022026483407600,11.90940771484375,-0.5949822664260864,-0.23335035145282745,-0.01588248461484909
1789022026493333200,11.919333251953125,-0.43982264399528503,0.009773836471140385,0.13072505593299866
1789022026503259100,11.929259033203126,-0.3249800503253937,0.1588248461484909,0.25045454502105713
1789022026513184800,11.939184814453125,-0.3237583339214325,0.12583814561367035,0.22357651591300964
1789022026523110700,11.949110595703125,-0.40927940607070923,-0.08307760953903198,0.07941242307424545
1789022026533036300,11.959036376953126,-0.4984656572341919,-0.2981020212173462,-0.036651886999607086
1789022026542962000,11.9689619140625,-0.5668824911117554,-0.3139844834804535,-0.0769689604640007
1789022026552887800,11.9788876953125,-0.637742817401886,-0.1649334877729416,-0.09896009415388107
1789022026562813400,11.9888134765625,-0.7806851863861084,-0.08307760953903198,-0.11484257876873016
1789022026572739000,11.998739013671875,-1.0299180746078491,-0.026878049597144127,-0.1844811588525772
1789022026582665000,12.0086650390625,-1.276707410812378,0.01954767294228077,-0.22846342623233795
1789022026592590600,12.018590576171874,-1.4306453466415405,-0.07819069176912308,-0.18325942754745483
1789022026602516500,12.0285166015625,-1.5674790143966675,-0.3445277214050293,-0.2003636509180069
1789022026612442000,12.038442138671876,-1.6908737421035767,-0.5155698657035828,-0.34574946761131287
1789022026622367700,12.04836767578125,-1.8570289611816406,-0.35063639283180237,-0.46914416551589966
1789022026632293600,12.058293701171875,-1.9682062864303589,0.03787361457943916,-0.481361448764801
1789022026642219300,12.06821923828125,-1.9584324359893799,0.3970620930194855,-0.41905322670936584
1789022026652145000,12.078144775390625,-1.925445795059204,0.3836230933666229,-0.3127627670764923
1789022026662070800,12.08807080078125,-1.8643592596054077,0.11972949653863907,-0.17348559200763702
1789022026671996400,12.097996337890624,-1.7800599336624146,-0.12583814561367035,-0.053756099194288254
1789022026681922300,12.10792236328125,-1.7336342334747314,-0.3689623177051544,0.024434590712189674
1789022026691848000,12.117847900390625,-1.6786564588546753,-0.5668824911117554,0.046425722539424896
1789022026701773600,12.127773681640624,-1.617569923400879,-0.6023126840591431,0.05864302068948746
1789022026711699500,12.137699462890625,-1.5723659992218018,-0.4166097939014435,0.1026252806186676
1789022026721625000,12.147625,-1.517388105392456,-0.21135921776294708,0.1539379209280014
1789022026731550700,12.15755078125,-1.451414704322815,-0.20158538222312927,0.2406807243824005
1789022026741476600,12.1674765625,-1.3866630792617798,-0.2761108875274658,0.3090975880622864
1789022026751402200,12.17740234375,-1.2449424266815186,-0.10506874322891235,0.2883281707763672
1789022026761327900,12.187327880859375,-1.0091485977172852,0.21746785938739777,0.3274235129356384
1789022026771253500,12.19725341796875,-0.7257073521614075,0.6291907429695129,0.37751442193984985
1789022026781179400,12.207179443359376,-0.37629270553588867,0.8246674537658691,0.36285367608070374
1789022026791105000,12.21710498046875,-0.09040798991918564,0.48502662777900696,0.31520622968673706
1789022026801031000,12.227031005859375,0.08429934084415436,0.11484257876873016,0.2565632164478302
1789022026810956500,12.23695654296875,0.26878049969673157,0.0977383628487587,0.2101374864578247
1789022026820882200,12.246882080078125,0.4312705397605896,0.10629047453403473,0.22724169492721558
1789022026830808000,12.25680810546875,0.5436696410179138,0.0720820426940918,0.277332603931427
1789022026840733700,12.266733642578124,0.6389645338058472,-0.053756099194288254,0.29077163338661194
1789022026850659300,12.276659423828125,0.7354812026023865,-0.10873392969369888,0.2822195291519165
1789022026860585200,12.286585205078126,0.8429933786392212,0.11606431007385254,0.2467893660068512
1789022026870510800,12.2965107421875,0.9737184643745422,0.3897317349910736,0.22846342623233795
1789022026880436700,12.306436767578125,1.148425817489624,0.5864301919937134,0.2516762912273407
1789022026890362400,12.3163623046875,1.313359260559082,0.6963858604431152,0.26389357447624207
1789022026900288000,12.3262880859375,1.4819579124450684,0.5900954008102417,0.23823726177215576
1789022026910214000,12.3362138671875,1.6884303092956543,0.4886918365955353,0.19425499439239502
1789022026920139500,12.346139404296874,1.8081597089767456,0.2675587832927704,0.1795942485332489
1789022026930065200,12.356065185546875,1.8729114532470703,-0.04520399495959282,0.22724169492721558
1789022026939990800,12.36599072265625,1.9181153774261475,-0.17104214429855347,0.2406807243824005
1789022026949916700,12.375916748046874,1.9132285118103027,-0.18692462146282196,0.21991132199764252
1789022026959842300,12.38584228515625,1.9132285118103027,-0.11728604137897491,0.24312418699264526
1789022026969768000,12.395767822265626,1.9425499439239502,0.2211330533027649,0.2724456787109375
1789022026979693800,12.40569384765625,1.9718714952468872,0.6866120100021362,0.27855435013771057
1789022026989619500,12.415619384765625,1.9498803615570068,0.8539889454841614,0.33719736337661743
1789022026999545300,12.42554541015625,1.8900156021118164,0.6243038177490234,0.36163195967674255
1789022027009471000,12.435470947265625,1.841146469116211,0.3652971386909485,0.28466299176216125
1789022027019396600,12.445396728515625,1.8289291858673096,0.3384190797805786,0.16249002516269684
1789022027029322200,12.455322265625,1.8839069604873657,0.5619956254959106,0.06719512492418289
1789022027039248100,12.465248046875,1.8900156021118164,0.7709113359451294,0.05864302068948746
1789022027049173800,12.475173828125,1.8106032609939575,0.6328558921813965,0.1539379209280014
1789022027059099400,12.485099365234374,1.722638726234436,0.3237583339214325,0.22724169492721558
1789022027069025300,12.495025390625,1.6688826084136963,0.1747073233127594,0.21991132199764252
1789022027078951000,12.504950927734376,1.635895848274231,0.1233946830034256,0.15271618962287903
1789022027088876500,12.51487646484375,1.6139047145843506,0.1490510106086731,0.056199558079242706
1789022027098802200,12.52480224609375,1.5039490461349487,0.10995566099882126,-0.06597339361906052
1789022027108728000,12.53472802734375,1.3658936023712158,0.026878049597144127,-0.09162971377372742
1789022027118653700,12.54465380859375,1.3158026933670044,0.13194678723812103,0.04520399495959282
1789022027128579300,12.554579345703125,1.341459035873413,0.37629270553588867,0.1954767256975174
1789022027138505200,12.564505126953126,1.341459035873413,0.5888736248016357,0.2565632164478302
1789022027148430800,12.574430908203125,1.2388337850570679,0.7086031436920166,0.3017672002315521
1789022027158356500,12.5843564453125,1.0348049402236938,0.5974257588386536,0.3017672002315521
1789022027168282400,12.594282470703124,0.8600975871086121,0.4838049113750458,0.33719736337661743
1789022027178208000,12.6042080078125,0.7220421433448792,0.5558869242668152,0.3078758418560028
