time,seconds_elapsed,z,y,x
1789022118637481500,0.0724814453125,11.58126163482666,1.672582983970642,-0.6771687865257263
1789022118647406300,0.08240625,11.064412117004395,1.8233308792114258,-0.6293123364448547
1789022118657331000,0.0923310546875,10.308279991149902,1.9621145725250244,-0.5144568681716919
1789022118667256000,0.102256103515625,9.729216575622559,2.1367905139923096,-0.5790630578994751
1789022118677181000,0.112180908203125,9.408578872680664,2.306680917739868,-0.8877372145652771
1789022118687105800,0.122105712890625,9.138189315795898,2.4047868251800537,-0.9930213689804077
1789022118697030700,0.13203076171875,8.9850492477417,2.500499725341797,-0.8805587291717529
1789022118706955500,0.14195556640625,9.119047164916992,2.5435705184936523,-0.8398807644844055
1789022118716880400,0.15188037109375,9.42772102355957,2.5292134284973145,-0.7968099117279053
1789022118726805200,0.16180517578125,9.66939640045166,2.5148565769195557,-0.7752745151519775
1789022118736730000,0.171730224609375,9.736394882202148,2.493321180343628,-0.7800601720809937
1789022118746655000,0.181655029296875,9.590433120727539,2.3808584213256836,-0.7848458290100098
1789022118756579800,0.191579833984375,9.250652313232422,2.392822742462158,-0.7393822073936462
1789022118766504700,0.201504638671875,8.920442581176758,2.3186452388763428,-0.8159525394439697
1789022118776429600,0.2114296875,8.781659126281738,2.3784656524658203,-0.9068797826766968
1789022118786354400,0.2213544921875,8.772088050842285,2.548356056213379,-0.882951557636261
1789022118796279300,0.231279296875,8.47298526763916,2.6847469806671143,-0.6221339106559753
1789022118806204400,0.241204345703125,8.149953842163086,2.885744094848633,-0.5216353535652161
1789022118816129300,0.25112939453125,8.157132148742676,2.9479575157165527,-0.6747759580612183
1789022118826054100,0.26105419921875,8.446663856506348,2.7517459392547607,-0.8757730722427368
1789022118835979000,0.27097900390625,8.62612533569336,2.3712873458862305,-1.0671988725662231
1789022118845904000,0.28090380859375,8.700303077697754,2.0673987865448,-1.2729816436767578
1789022118855828700,0.290828857421875,8.95394229888916,1.8711873292922974,-1.4835500717163086
1789022118865753600,0.300753662109375,9.183652877807617,1.667797327041626,-1.7132610082626343
1789022118875678500,0.310678466796875,9.580862045288086,1.7635103464126587,-1.6534404754638672
1789022118885603300,0.320603271484375,9.643074989318848,1.97407865524292,-1.3399807214736938
1789022118895528200,0.330528076171875,9.69093132019043,1.978864312171936,-1.057627558708191
1789022118905453000,0.340453125,10.037891387939453,1.9166508913040161,-0.7680960893630981
1789022118915378000,0.3503779296875,8.37009334564209,0,-0.12203395366668701
1789022118925303000,0.360302978515625,11.758330345153809,1.8305093050003052,-1.2394821643829346
1789022118935228000,0.370227783203125,10.827522277832031,1.7395820617675781,-0.3852444589138031
1789022118945152800,0.38015283203125,10.959127426147461,1.3280165195465088,-0.40677985548973083
1789022118955077600,0.39007763671875,11.097911834716797,0.7417750358581543,-0.27756741642951965
1789022118965002500,0.40000244140625,11.863615036010742,0.4307080805301666,-0.23688943684101105
1789022118974927400,0.40992724609375,12.088540077209473,0.5886343717575073,-0.2560320198535919
1789022118984852200,0.419852294921875,11.72722339630127,1.184447169303894,-0.14356936514377594
1789022118994777000,0.429777099609375,11.073983192443848,2.1200408935546875,0.11246266216039658
1789022119004702000,0.439701904296875,10.518848419189453,3.713660717010498,0.8279166221618652
1789022119014626800,0.449626708984375,10.403992652893066,4.4721856117248535,1.5792629718780518
1789022119024551700,0.4595517578125,10.013962745666504,3.263810157775879,1.5074782371520996
1789022119034476800,0.469476806640625,9.58325481414795,2.170290231704712,0.5168496966362
1789022119044401700,0.479401611328125,9.494720458984375,2.368894338607788,0.2273181527853012
1789022119054326500,0.489326416015625,8.724231719970703,3.1417760848999023,0.5479564070701599
1789022119064251400,0.49925146484375,8.09970474243164,3.7184464931488037,0.8135597109794617
1789022119074176300,0.50917626953125,8.032705307006836,3.617947816848755,0.6843472719192505
1789022119084101000,0.51910107421875,8.544769287109375,2.981456995010376,0.1579262912273407
1789022119094026000,0.52902587890625,9.33440113067627,2.313859462738037,-0.6029912829399109
1789022119103950800,0.538950927734375,10.619346618652344,2.139183521270752,-1.0432707071304321
1789022119113875700,0.548875732421875,11.638689041137695,2.421536445617676,-1.306481122970581
1789022119123800600,0.558800537109375,11.868400573730469,2.6392834186553955,-1.3543375730514526
1789022119133725400,0.568725341796875,11.645867347717285,2.5363919734954834,-1.222732424736023
1789022119143650600,0.578650634765625,10.861021995544434,2.50289249420166,-0.5814558863639832
1789022119153575400,0.588575439453125,10.01874828338623,2.5674986839294434,0.2991028428077698
1789022119163500300,0.598500244140625,9.066405296325684,2.1655044555664062,0.7226324677467346
1789022119173425200,0.608425048828125,9.07119083404541,2.2301106452941895,0.550349235534668
1789022119183350000,0.61835009765625,8.9850492477417,2.7397818565368652,0.4211367964744568
1789022119193275000,0.62827490234375,8.535198211669922,3.10109806060791,0.4019941985607147
1789022119203199700,0.63819970703125,8.059026718139648,3.3643085956573486,0.2727817893028259
1789022119213124600,0.64812451171875,8.025527000427246,3.617947816848755,0.031106693670153618
1789022119223049700,0.6580498046875,8.118846893310547,3.7974095344543457,-0.3445664644241333
1789022119232974600,0.667974609375,7.89631462097168,3.8811583518981934,-0.794417142868042
1789022119242899500,0.6778994140625,7.752745151519775,4.029513359069824,-1.892722725868225
1789022119252824300,0.68782421875,7.377072334289551,4.29033088684082,-3.6083765029907227
1789022119262749200,0.697749267578125,6.884150981903076,4.244867324829102,-3.594019651412964
1789022119272674000,0.707674072265625,6.628118515014648,3.4552359580993652,-0.7250252366065979
1789022119282599000,0.717598876953125,6.865008354187012,3.601198196411133,0.7369893789291382
1789022119292523800,0.727523681640625,6.8554368019104,3.988835334777832,1.1365907192230225
1789022119302449000,0.737448974609375,6.573083877563477,4.211368083953857,1.1150553226470947
1789022119312373800,0.747373779296875,6.178267955780029,4.168296813964844,1.423729419708252
1789022119322298600,0.757298583984375,6.20219612121582,3.9768712520599365,1.5960127115249634
1789022119332223500,0.767223388671875,7.310073375701904,3.893122434616089,1.3758729696273804
1789022119342148400,0.7771484375,8.997013092041016,3.775874137878418,1.100698471069336
1789022119352073200,0.7870732421875,10.942378044128418,3.5676984786987305,0.9571290612220764
1789022119361998300,0.796998291015625,11.073983192443848,3.146561861038208,1.7778671979904175
1789022119371923200,0.806923095703125,10.468599319458008,2.9001009464263916,2.562713146209717
1789022119381848000,0.81684814453125,10.265209197998047,2.933600664138794,2.65842604637146
1789022119391773000,0.82677294921875,10.1216402053833,3.1417760848999023,1.9621145725250244
1789022119401697800,0.83669775390625,9.22433090209961,3.081955671310425,1.8233308792114258
1789022119411622700,0.84662255859375,8.578269004821777,2.847458839416504,1.832902193069458
1789022119421547500,0.856547607421875,8.60459041595459,2.912065267562866,1.612762451171875
1789022119431472600,0.86647265625,8.95394229888916,2.8426733016967773,1.2490534782409668
1789022119441397500,0.8763974609375,9.226723670959473,2.799602508544922,1.3160524368286133
1789022119451322400,0.886322265625,9.468399047851562,2.9383862018585205,1.734796404838562
1789022119461247200,0.896247314453125,9.157332420349121,3.053241729736328,1.9381862878799438
1789022119471172000,0.906172119140625,8.353343963623047,3.2997024059295654,2.1846470832824707
1789022119481097200,0.91609716796875,7.3986077308654785,3.3858439922332764,2.4095723628997803
1789022119491022000,0.92602197265625,6.948757171630859,3.6705899238586426,2.7326035499572754
1789022119500947000,0.935947021484375,7.64028263092041,4.067798614501953,2.9790642261505127
1789022119510871800,0.945871826171875,8.57348346710205,3.814159393310547,3.115455150604248
1789022119520796700,0.955796630859375,9.55214786529541,3.649054527282715,3.326023578643799
1789022119530721500,0.965721435546875,9.868000984191895,3.656233072280884,3.342773199081421
1789022119540646400,0.975646484375,9.724431037902832,3.9457645416259766,3.94815731048584
1789022119550571300,0.9855712890625,9.164510726928711,4.29033088684082,4.328616142272949
1789022119560496400,0.995496337890625,8.346165657043457,4.534399032592773,4.534399032592773
1789022119570421200,1.005421142578125,8.042277336120605,4.599005222320557,4.5822553634643555
1789022119580346000,1.01534619140625,8.0350980758667,4.656432628631592,4.8574299812316895
1789022119590271000,1.02527099609375,8.10688304901123,4.649254322052002,5.096712112426758
1789022119600195800,1.03519580078125,8.707481384277344,4.59421968460083,5.2737812995910645
1789022119610121000,1.045120849609375,9.20997428894043,4.405186653137207,5.6446685791015625
1789022119620045800,1.0550458984375,8.987442016601562,4.036691665649414,5.508277893066406
1789022119629970700,1.064970703125,8.147561073303223,3.5341989994049072,5.00578498840332
1789022119639895600,1.0748955078125,6.546762943267822,2.5387847423553467,4.218546390533447
1789022119649820700,1.084820556640625,4.895715236663818,2.7278177738189697,4.766502857208252
1789022119659745500,1.09474560546875,3.589233875274658,3.84765887260437,5.508277893066406
1789022119669670400,1.10467041015625,3.2279176712036133,3.845266103744507,6.029912948608398
1789022119679595300,1.11459521484375,4.271188259124756,3.649054527282715,6.290730953216553
1789022119689520000,1.12452001953125,5.357530117034912,2.9718856811523438,6.410371780395508
1789022119699445200,1.1344453125,5.788238048553467,2.249253273010254,6.293123722076416
1789022119709370000,1.1443701171875,5.304887771606445,1.648654818534851,6.187839508056641
1789022119719295000,1.154294921875,4.443471431732178,0.9595218896865845,5.912664890289307
1789022119729219800,1.1642197265625,3.4719855785369873,0.607776939868927,5.857629776000977
1789022119739144700,1.174144775390625,2.8905298709869385,1.2203395366668701,6.0849480628967285
1789022119749069800,1.18406982421875,2.289931297302246,1.3782658576965332,7.317251682281494
1789022119758994700,1.19399462890625,1.7276179790496826,1.7467604875564575,8.417949676513672
1789022119768919600,1.20391943359375,1.404586911201477,1.306481122970581,8.642875671386719
1789022119778844400,1.213844482421875,1.1102696657180786,0.09092725813388824,8.051848411560059
1789022119788769300,1.223769287109375,0.8662018179893494,-0.849452018737793,7.142575740814209
1789022119798694400,1.2336943359375,0.5647061467170715,-1.6558332443237305,6.692724704742432
1789022119808619300,1.243619384765625,-0.064606212079525,-2.0578274726867676,6.951149940490723
1789022119818544000,1.253544189453125,-0.6604190468788147,-2.7397818565368652,7.355536937713623
1789022119828469000,1.263468994140625,-1.1270195245742798,-3.2925238609313965,7.326822757720947
1789022119838393900,1.273393798828125,-1.5002998113632202,-4.161118507385254,6.745367050170898
1789022119848319000,1.283319091796875,-1.6031911373138428,-4.058227062225342,7.271788120269775
1789022119858243800,1.293243896484375,1.2562319040298462,-2.7086751461029053,8.925228118896484
1789022119868168700,1.303168701171875,4.012763500213623,-0.8662018179893494,10.636096954345703
1789022119878093600,1.313093505859375,5.893522262573242,-1.1150553226470947,11.559725761413574
1789022119888018700,1.323018798828125,6.752545356750488,-2.744567632675171,10.325029373168945
1789022119897943600,1.332943603515625,7.2430739402771,-4.333401679992676,8.803194046020508
1789022119907868400,1.342868408203125,7.800601959228516,-5.041677474975586,7.606783390045166
1789022119917793300,1.352793212890625,7.678567886352539,-5.115854740142822,6.7070817947387695
1789022119927718100,1.36271826171875,7.312466144561768,-5.7164530754089355,6.6831536293029785
1789022119937643300,1.372643310546875,7.188039302825928,-6.278766632080078,8.023134231567383
1789022119947568000,1.382568115234375,7.144968509674072,-5.972485542297363,9.66939640045166
1789022119957493000,1.392492919921875,6.446264266967773,-5.869594097137451,11.124232292175293
1789022119967417900,1.40241796875,6.149554252624512,-6.027520179748535,12.569497108459473
1789022119977342700,1.4123427734375,5.690132141113281,-6.151947021484375,13.811372756958008
1789022119987267800,1.422267822265625,5.111069202423096,-6.235695838928223,14.770894050598145
1789022119997192700,1.432192626953125,4.4650068283081055,-6.161518096923828,15.66102409362793
1789022120007117600,1.44211767578125,3.680161237716675,-6.142375946044922,16.644474029541016
1789022120017042700,1.452042724609375,2.6632115840911865,-6.063412666320801,17.197216033935547
1789022120026967600,1.461967529296875,1.4380863904953003,-5.970092296600342,17.989240646362305
1789022120036892400,1.471892333984375,0.4091726839542389,-5.824130535125732,18.991832733154297
1789022120046817500,1.481817626953125,-0.9308080077171326,-5.383851051330566,19.869998931884766
1789022120056742400,1.491742431640625,-2.60339093208313,-5.027320384979248,20.53520393371582
1789022120066667300,1.501667236328125,-3.656233072280884,-4.680361270904541,20.93241310119629
1789022120076592000,1.511592041015625,-4.101297855377197,-4.275974273681641,21.008983612060547
1789022120086517000,1.52151708984375,-3.996013879776001,-3.981656789779663,20.76730728149414
1789022120096442000,1.531442138671875,-3.4265220165252686,-3.6610186100006104,20.66920280456543
1789022120106367000,1.541366943359375,-2.66560435295105,-3.596412420272827,20.8438777923584
1789022120116291800,1.551291748046875,-2.3234307765960693,-3.3308091163635254,20.501705169677734
1789022120126216700,1.561216796875,-2.65842604637146,-2.644068956375122,19.992033004760742
1789022120136141800,1.571141845703125,-2.9359934329986572,-2.273181438446045,19.54218292236328
1789022120146066700,1.581066650390625,-2.517249345779419,-2.0099709033966064,18.704694747924805
1789022120155991600,1.590991455078125,-1.3639088869094849,-2.007578134536743,17.290536880493164
1789022120165916700,1.600916748046875,-0.040677983313798904,-2.249253273010254,15.64666748046875
1789022120175841500,1.610841552734375,0.8327022790908813,-2.3090739250183105,14.103296279907227
1789022120185766400,1.620766357421875,1.399801254272461,-2.3018953800201416,12.315857887268066
1789022120195691300,1.630691162109375,-0.0933200865983963,-2.139183521270752,10.796415328979492
1789022120205616400,1.640616455078125,-3.5533416271209717,-1.4524433612823486,9.028120040893555
1789022120215541200,1.650541259765625,-5.979663848876953,-0.7058826684951782,7.154539585113525
1789022120225466000,1.660466064453125,-5.044070243835449,-0.5383850932121277,6.850651264190674
1789022120235391000,1.670390869140625,-7.941778182983398,0.8997012972831726,7.04207706451416
1789022120249085700,1.684085693359375,-7.776673793792725,3.263810157775879,4.991427898406982
1789022120259008300,1.69400830078125,6.235695838928223,1.4931213855743408,5.431707382202148
1789022120268933000,1.70393310546875,-5.469992637634277,4.139583110809326,3.3690943717956543
1789022120278858000,1.71385791015625,5.608776092529297,4.077369689941406,4.450650215148926
1789022120288783000,1.723783203125,14.47179126739502,5.685346603393555,3.981656789779663
1789022120298708000,1.7337080078125,-3.335594654083252,5.742774486541748,2.7038896083831787
1789022120308632800,1.7436328125,-9.346364974975586,8.556734085083008,1.6654045581817627
1789022120318558000,1.753557861328125,-7.901100158691406,9.671789169311523,4.522434711456299
1789022120328482800,1.76348291015625,-3.775874137878418,9.987641334533691,6.656832695007324
1789022120338407700,1.77340771484375,2.967100143432617,7.6043901443481445,6.393621921539307
1789022120348332800,1.783332763671875,4.565505504608154,3.249453067779541,6.441478729248047
1789022120358257700,1.793257568359375,-6.704689025878906,3.9290146827697754,4.091726779937744
1789022120368182500,1.8031826171875,-5.7858452796936035,3.4743785858154297,6.010770320892334
1789022120378107600,1.813107666015625,-4.895715236663818,-1.6079767942428589,6.197410583496094
1789022120388032500,1.823032470703125,-1.8616160154342651,-3.9625144004821777,7.599604606628418
1789022120397957400,1.832957275390625,-5.374279499053955,-11.810972213745117,10.140782356262207
1789022120407882200,1.84288232421875,-9.810572624206543,-11.782258987426758,15.03171157836914
1789022120417807400,1.852807373046875,-7.853243827819824,0.2919243574142456,11.040483474731445
1789022120427732200,1.862732177734375,12.768101692199707,-0.33499518036842346,-2.124826431274414
1789022120437657000,1.872656982421875,21.856042861938477,-23.243879318237305,7.077969551086426
1789022120447582200,1.882582275390625,2.555534601211548,-12.715459823608398,13.299307823181152
1789022120457507000,1.892507080078125,-5.201996326446533,-18.25723648071289,10.887343406677246
1789022120467432000,1.902431884765625,-2.8809585571289062,-15.31885051727295,13.203595161437988
1789022120477357000,1.912357177734375,-1.1150553226470947,-15.577275276184082,13.701302528381348
1789022120487282000,1.922281982421875,-3.043670415878296,-13.174881935119629,13.648660659790039
1789022120497206800,1.932206787109375,-2.5698914527893066,-11.72004508972168,12.854243278503418
1789022120507132000,1.9421318359375,-1.6079767942428589,-10.49970531463623,10.470992088317871
1789022120517056800,1.952056884765625,-2.7326035499572754,-12.002398490905762,3.1489546298980713
1789022120526981600,1.961981689453125,-3.0101709365844727,-10.911271095275879,2.139183521270752
1789022120536906800,1.97190673828125,-3.153740167617798,-10.901700019836426,0.9379864931106567
1789022120546831600,1.98183154296875,-2.2061824798583984,-11.050054550170898,-1.6941183805465698
1789022120556756500,1.991756591796875,-0.6843472719192505,-11.791830062866211,-1.5936198234558105
1789022120566681600,2.001681640625,0.2967100143432617,-12.624532699584961,-2.847458839416504
1789022120576606500,2.0116064453125,-0.5168496966362,-12.65324592590332,-0.8805587291717529
1789022120586531300,2.02153125,2.1535403728485107,-11.69133186340332,1.9764715433120728
1789022120596456400,2.03145654296875,2.9144580364227295,-4.8191447257995605,20.324636459350586
1789022120606381300,2.04138134765625,-0.38763725757598877,9.461220741271973,41.883968353271484
1789022120616306200,2.05130615234375,-5.699703693389893,-3.077169895172119,22.2149658203125
1789022120626231300,2.061231201171875,-3.517449378967285,-3.627519130706787,14.127224922180176
1789022120636156200,2.07115625,-1.3160524368286133,-1.4883357286453247,16.218551635742188
1789022120646081000,2.0810810546875,-0.44027936458587646,-1.0336993932724,14.170295715332031
1789022120656006000,2.091005859375,-1.9621145725250244,-0.698704183101654,11.906685829162598
1789022120665931000,2.100930908203125,-2.6368906497955322,0.794417142868042,10.1216402053833
1789022120675856000,2.11085595703125,-4.244867324829102,0.17706887423992157,6.604190349578857
1789022120685780700,2.12078076171875,-5.938985824584961,0.6795616149902344,5.929414749145508
1789022120695705900,2.130705810546875,-5.312066078186035,1.062413215637207,7.188039302825928
1789022120705630700,2.140630615234375,-5.00578498840332,0.4259224236011505,6.570691108703613
1789022120715555600,2.1505556640625,-4.713860511779785,1.3591232299804688,9.006584167480469
1789022120725480700,2.160480712890625,-6.728617191314697,-0.12442677468061447,7.451249599456787
1789022120735405600,2.170405517578125,-5.838487148284912,-0.8997012972831726,9.580862045288086
1789022120745330400,2.180330322265625,-2.9001009464263916,-1.9334007501602173,10.691131591796875
1789022120755255600,2.190255615234375,5.771488189697266,-5.465207099914551,8.609375953674316
1789022120765180400,2.200180419921875,8.973084449768066,-7.767102241516113,6.857829570770264
1789022120775105300,2.210105224609375,1.306481122970581,-7.872386455535889,7.04925537109375
1789022120785030000,2.22002978515625,-2.7900311946868896,-14.19422435760498,2.4502503871917725
1789022120794955000,2.229955078125,-5.3694939613342285,-12.65324592590332,1.8807586431503296
1789022120804880000,2.2398798828125,-1.2394821643829346,-13.055240631103516,1.8424733877182007
1789022120814805000,2.249804931640625,1.4691931009292603,-15.802200317382812,-0.062213387340307236
1789022120824729900,2.259729736328125,-1.8376877307891846,-13.351950645446777,1.8472590446472168
1789022120834655000,2.269655029296875,-1.459621787071228,-10.892128944396973,3.933800458908081
1789022120844579800,2.279579833984375,-1.521835207939148,-9.67657470703125,4.742574691772461
1789022120854505000,2.2895048828125,-2.2396819591522217,-10.102497100830078,4.235296249389648
1789022120864429800,2.299429931640625,-3.311666488647461,-11.34676456451416,3.1680972576141357
1789022120874355000,2.30935498046875,-4.053441524505615,-12.80160140991211,2.50289249420166
1789022120884279800,2.31927978515625,-3.565305709838867,-13.892727851867676,2.7326035499572754
1789022120894205000,2.329204833984375,-1.3351950645446777,-14.773286819458008,3.570091485977173
1789022120904129800,2.3391298828125,0.5359922647476196,-15.476777076721191,5.000999450683594
1789022120914054700,2.3490546875,0.23449662327766418,-13.825729370117188,6.570691108703613
1789022120923979800,2.358979736328125,1.4883357286453247,-13.155738830566406,4.8191447257995605
1789022120933904600,2.368904541015625,0.9906286001205444,-10.389636039733887,4.7712883949279785
1789022120943829500,2.37882958984375,0.35892340540885925,-7.762316703796387,8.063812255859375
1789022120953754600,2.388754638671875,-0.7226324677467346,-6.63769006729126,9.796216011047363
1789022120963679500,2.398679443359375,-2.871387243270874,-4.493721008300781,11.949756622314453
1789022120973604400,2.408604248046875,-4.847858905792236,-2.9479575157165527,11.102697372436523
1789022120983529500,2.418529541015625,-6.920042991638184,-0.2105683982372284,11.667403221130371
1789022120993454000,2.4284541015625,-6.0777692794799805,0.03349951654672623,9.982855796813965
1789022121003378700,2.438378662109375,-5.599205017089844,3.10109806060791,10.805987358093262
1789022121013303000,2.448302978515625,-5.718846321105957,3.555734395980835,10.743773460388184
1789022121023227600,2.4582275390625,-3.0484559535980225,3.3068809509277344,6.939185619354248
1789022121033152300,2.46815234375,-5.546562671661377,4.3788652420043945,7.75753116607666
1789022121043076900,2.478076904296875,-5.8719868659973145,4.292723655700684,9.820143699645996
1789022121053001500,2.48800146484375,-7.915457248687744,5.216353416442871,11.155339241027832
1789022121062926000,2.497926025390625,-8.398807525634766,4.082155227661133,11.83011531829834
1789022121072850700,2.5078505859375,-3.0005996227264404,0.397208571434021,6.092126369476318
1789022121082775300,2.517775390625,-1.2490534782409668,-1.923829436302185,15.089139938354492
1789022121092700700,2.52770068359375,4.823930263519287,-4.297509670257568,14.385649681091309
1789022121102626000,2.5376259765625,0.760917603969574,-12.011969566345215,7.786244869232178
1789022121112551400,2.547551513671875,-0.6556333899497986,-13.643875122070312,7.135396957397461
1789022121122476800,2.557476806640625,-2.1056840419769287,-15.261423110961914,4.493721008300781
1789022121132402200,2.567402099609375,-1.0049854516983032,-17.874385833740234,0.3158525824546814
1789022121142327300,2.577327392578125,1.8376877307891846,-17.654245376586914,0.009571290574967861
1789022121152252700,2.587252685546875,-0.11964113265275955,-12.433106422424316,4.823930263519287
1789022121162178000,2.597177978515625,-1.6223337650299072,-10.408778190612793,6.302694797515869
1789022121172103400,2.607103515625,-4.704289436340332,-5.747560024261475,9.738788604736328
1789022121182028800,2.61702880859375,-5.173282623291016,-12.457035064697266,7.322037220001221
1789022121191954000,2.626953857421875,-5.9916276931762695,-20.319849014282227,-4.302295207977295
1789022121201878800,2.636878662109375,-3.263810157775879,-18.28594970703125,-6.991827964782715
1789022121211803600,2.6468037109375,-4.254438877105713,-11.93061351776123,2.321038007736206
1789022121221728800,2.656728759765625,-3.94815731048584,-10.475777626037598,5.675775527954102
1789022121231653600,2.666653564453125,-4.144368648529053,-11.174481391906738,5.426921844482422
1789022121241578500,2.67657861328125,-4.436293125152588,-10.695917129516602,4.666004180908203
1789022121251503600,2.686503662109375,-3.8189449310302734,-8.896514892578125,6.465406894683838
1789022121261428500,2.696428466796875,-3.9433717727661133,-7.719245910644531,8.025527000427246
1789022121271353300,2.706353271484375,-4.579862594604492,-7.269395351409912,9.858428955078125
1789022121281278500,2.716278564453125,-3.1489546298980713,-5.340780258178711,11.227124214172363
1789022121291203300,2.726203369140625,-3.8907296657562256,-4.46979284286499,12.016755104064941
1789022121301128400,2.73612841796875,-3.4504501819610596,-4.1347975730896,11.973684310913086
1789022121311053300,2.74605322265625,-3.2542388439178467,-1.9716858863830566,9.734002113342285
1789022121320978400,2.755978515625,-3.34995174407959,-2.493321180343628,8.681160926818848
1789022121330903300,2.7659033203125,-4.910071849822998,-4.106083869934082,7.23589563369751
1789022121340828400,2.775828369140625,-5.737988471984863,-4.919643402099609,6.5180487632751465
1789022121350753300,2.785753173828125,-6.4319071769714355,-6.771687984466553,7.0923261642456055
1789022121360678400,2.795678466796875,-3.565305709838867,-5.522634506225586,6.829115867614746
1789022121370603300,2.805603271484375,-4.60857629776001,-6.393621921539307,5.221138954162598
1789022121380528400,2.8155283203125,-3.7806596755981445,-5.857629776000977,5.201996326446533
1789022121390453200,2.825453369140625,-3.900300979614258,-7.054041385650635,5.034498691558838
1789022121400378400,2.83537841796875,-4.029513359069824,-8.575876235961914,5.355136871337891
1789022121410303200,2.84530322265625,-4.364508628845215,-8.116454124450684,4.383651256561279
1789022121420228400,2.855228271484375,-3.541377544403076,-8.910871505737305,3.737588882446289
1789022121430153500,2.865153564453125,-2.478964328765869,-7.221538543701172,3.7950167655944824
1789022121440078300,2.875078369140625,-1.2203395366668701,-2.56510591506958,5.388636589050293
1789022121450003500,2.88500341796875,-1.0719845294952393,0.22971096634864807,4.6372904777526855
1789022121459928300,2.89492822265625,-1.7180466651916504,0.1052841991186142,4.450650215148926
1789022121469853400,2.904853515625,-3.3068809509277344,-2.00518536567688,2.9718856811523438
1789022121479778300,2.9147783203125,-3.043670415878296,-0.4977070987224579,2.124826431274414
1789022121489703000,2.924702880859375,0.5790630578994751,4.077369689941406,1.770688772201538
1789022121499627500,2.93462744140625,0.019142581149935722,10.71984577178955,5.044070243835449
1789022121509552000,2.94455224609375,-4.436293125152588,15.940984725952148,4.07258415222168
1789022121519476700,2.954476806640625,-5.79063081741333,16.65404510498047,1.4500504732131958
1789022121529401300,2.9644013671875,-9.829715728759766,18.788442611694336,3.1250264644622803
1789022121539326000,2.974325927734375,-11.432906150817871,12.715459823608398,3.1106693744659424
1789022121549250600,2.98425048828125,0.16749759018421173,6.374479293823242,1.2490534782409668
1789022121559175000,2.9941748046875,4.3549370765686035,-33.48037338256836,-1.5696916580200195
1789022121569099500,3.004099609375,5.312066078186035,-8.336593627929688,8.236095428466797
1789022121579024100,3.014024169921875,-6.221338748931885,-3.2207393646240234,7.853243827819824
1789022121588949500,3.023949462890625,-14.088939666748047,-39.988853454589844,19.36750602722168
1789022121598875000,3.033875,-7.877171993255615,-71.08119201660156,29.068010330200195
1789022121608800300,3.04380029296875,-4.852644443511963,-17.319250106811523,14.615360260009766
1789022121618725600,3.0537255859375,3.3882367610931396,-11.093125343322754,9.944570541381836
1789022121628651000,3.063651123046875,-3.6131622791290283,-16.40519142150879,10.729416847229004
1789022121638576400,3.073576416015625,-4.3070807456970215,-13.514662742614746,7.977670669555664
1789022121648501800,3.083501708984375,-3.6610186100006104,-11.863615036010742,3.972085475921631
1789022121658427100,3.09342724609375,-4.000799655914307,-10.557133674621582,3.737588882446289
1789022121668352500,3.1033525390625,-3.680161237716675,-9.336793899536133,4.039084434509277
1789022121678278000,3.11327783203125,-3.7423746585845947,-8.226524353027344,5.407779216766357
1789022121688202800,3.12320263671875,-3.407379388809204,-6.991827964782715,6.733402729034424
1789022121698128000,3.1331279296875,-2.6464617252349854,-5.900700569152832,6.896114826202393
1789022121708052700,3.143052734375,-2.2923240661621094,-4.838287353515625,7.336394309997559
1789022121717977900,3.152977783203125,-3.6610186100006104,-4.287938117980957,8.12123966217041
1789022121727902700,3.16290283203125,-4.402793884277344,-3.627519130706787,9.355937004089355
1789022121737827800,3.172827880859375,-3.7232320308685303,-3.311666488647461,10.006784439086914
1789022121747753000,3.1827529296875,-1.5314065217971802,-5.613562107086182,10.447063446044922
1789022121757677800,3.192677734375,-1.2011969089508057,-7.69531774520874,8.85344409942627
1789022121767603000,3.20260302734375,-0.45942193269729614,-8.374878883361816,6.766902446746826
1789022121777527800,3.21252783203125,-1.765903115272522,-4.8191447257995605,5.024927616119385
1789022121787453000,3.222452880859375,-3.153740167617798,-3.900300979614258,4.761716842651367
1789022121797377800,3.232377685546875,-5.096712112426758,-3.9529430866241455,6.144768714904785
1789022121807303000,3.242302978515625,-6.565905570983887,-4.73300313949585,8.183453559875488
1789022121817227800,3.252227783203125,-5.962913990020752,-5.699703693389893,9.509077072143555
1789022121827153000,3.26215283203125,-3.6370904445648193,-5.938985824584961,11.643474578857422
1789022121837077800,3.272077880859375,-1.4069796800613403,-6.570691108703613,12.91645622253418
1789022121847003000,3.2820029296875,-0.4211367964744568,-7.953742504119873,11.44247817993164
1789022121856927700,3.291927734375,-1.8664016723632812,-9.28893756866455,12.91645622253418
1789022121866852900,3.301852783203125,-2.4358935356140137,-10.470992088317871,12.490533828735352
1789022121876777700,3.31177783203125,-5.589633464813232,-10.068997383117676,11.667403221130371
1789022121886702800,3.321702880859375,-7.982456207275391,-9.231510162353516,9.32722282409668
1789022121896627700,3.331627685546875,-6.120840549468994,-7.417750358581543,8.542376518249512
1789022121906552800,3.341552734375,-3.933800458908081,-5.776273727416992,8.322237014770508
1789022121916478000,3.35147802734375,-3.129812002182007,-4.369294166564941,8.221738815307617
1789022121926402800,3.36140283203125,-2.0817556381225586,-3.814159393310547,8.087740898132324
1789022121936328000,3.371327880859375,-1.1629117727279663,-5.101497650146484,8.001599311828613
1789022121946252800,3.381252685546875,-0.5024927258491516,-5.599205017089844,8.681160926818848
1789022121956178000,3.391177978515625,-2.225325107574463,-5.9676995277404785,9.590433120727539
1789022121966102800,3.401102783203125,-3.1728827953338623,-6.168696880340576,8.81515884399414
1789022121976028000,3.41102783203125,-3.6610186100006104,-6.948757171630859,6.32662296295166
1789022121985952500,3.420952392578125,-3.0101709365844727,-6.7621169090271,4.110869407653809
1789022121995877000,3.430877197265625,-2.287538528442383,-6.096911907196045,2.957528829574585
1789022122005801700,3.4408017578125,-2.287538528442383,-4.3070807456970215,3.5844483375549316
1789022122015726300,3.450726318359375,-2.4502503871917725,-2.517249345779419,4.589433670043945
1789022122025651000,3.46065087890625,-1.679761528968811,-2.1439690589904785,4.934000492095947
1789022122035575600,3.470575439453125,0.31106695532798767,-2.431107759475708,5.804987907409668
1789022122045500200,3.480500244140625,1.4213366508483887,-2.6177480220794678,6.948757171630859
1789022122055425000,3.490425048828125,0.9284151792526245,-3.1345977783203125,7.6043901443481445
1789022122065349600,3.500349609375,-0.8422735929489136,-3.589233875274658,7.369893550872803
1789022122075274200,3.510274169921875,-2.9001009464263916,-3.656233072280884,6.551548480987549
1789022122085198800,3.52019873046875,-4.40757942199707,-3.483949661254883,5.575276851654053
1789022122095123500,3.53012353515625,-4.871787071228027,-3.6993038654327393,5.2737812995910645
1789022122105048000,3.540048095703125,-4.01037073135376,-3.9433717727661133,5.532206058502197
1789022122114972700,3.54997265625,-2.3641088008880615,-4.153940200805664,5.9198431968688965
1789022122124897300,3.559897216796875,-1.789831280708313,-3.9529430866241455,5.900700569152832
1789022122134822000,3.56982177734375,-1.8137595653533936,-3.565305709838867,5.575276851654053
1789022122144746800,3.579746826171875,-1.856830358505249,-3.8763725757598877,4.053441524505615
1789022122154671400,3.58967138671875,-2.885744094848633,-2.445464849472046,4.163511276245117
1789022122164596000,3.599595947265625,-3.814159393310547,-1.8089739084243774,4.493721008300781
1789022122174520600,3.6095205078125,-4.139583110809326,-1.6031911373138428,5.402993679046631
1789022122184445200,3.619445068359375,-3.8524444103240967,-1.8472590446472168,6.226124286651611
1789022122194369800,3.629369873046875,-3.1489546298980713,-2.7421748638153076,6.714260101318359
1789022122204294400,3.63929443359375,-2.737389087677002,-3.809373617172241,6.853044033050537
1789022122214219000,3.649218994140625,-3.359523057937622,-4.321437835693359,6.943971157073975
1789022122224143600,3.6591435546875,-4.565505504608154,-4.393222332000732,7.207181930541992
1789022122234068500,3.669068359375,-5.230710506439209,-4.254438877105713,7.465606689453125
1789022122243993000,3.6789931640625,-4.756931304931641,-4.2831525802612305,7.264609336853027
1789022122253917700,3.688917724609375,-4.106083869934082,-4.350151538848877,6.776473522186279
1789022122263842300,3.69884228515625,-3.4504501819610596,-4.369294166564941,6.671189308166504
1789022122273767000,3.708766845703125,-3.077169895172119,-4.316651821136475,6.556334018707275
1789022122283691500,3.71869140625,-3.0340991020202637,-4.34536600112915,6.838686943054199
1789022122293617700,3.72861767578125,-2.7326035499572754,-4.508078098297119,7.101897716522217
1789022122303543800,3.738543701171875,-2.311466693878174,-4.67078971862793,7.178467750549316
1789022122313470200,3.74847021484375,-2.7278177738189697,-4.862215518951416,6.948757171630859
1789022122323396400,3.758396240234375,-3.1345977783203125,-5.111069202423096,6.977470874786377
1789022122333322500,3.768322509765625,-3.407379388809204,-5.2737812995910645,7.159325122833252
1789022122343248600,3.77824853515625,-3.0484559535980225,-5.4795637130737305,7.403393268585205
1789022122353175000,3.788175048828125,-2.56510591506958,-5.867201328277588,7.3746795654296875
1789022122363101200,3.79810107421875,-3.0484559535980225,-5.986842155456543,7.853243827819824
1789022122373027300,3.80802734375,-2.991028308868408,-6.125626087188721,8.226524353027344
1789022122382953500,3.817953369140625,-2.809173822402954,-6.455835342407227,8.049455642700195
1789022122392878600,3.827878662109375,-2.6321048736572266,-6.805187702178955,7.858029365539551
1789022122402803500,3.837803466796875,-2.60339093208313,-6.786045074462891,7.5565338134765625
1789022122412728600,3.847728515625,-1.9860427379608154,-7.082755088806152,6.8482584953308105
1789022122422653400,3.8576533203125,-1.521835207939148,-7.073183536529541,6.604190349578857
1789022122432578600,3.86757861328125,-1.9381862878799438,-6.8482584953308105,6.833901405334473
1789022122442503400,3.87750341796875,-2.5842485427856445,-6.967899322509766,7.025327205657959
1789022122452428500,3.887428466796875,-3.311666488647461,-6.240481376647949,8.312665939331055
1789022122462353400,3.897353515625,-3.5222349166870117,-6.604190349578857,9.499505996704102
1789022122472278500,3.907278564453125,-2.3641088008880615,-7.379465103149414,8.800801277160645
1789022122482203400,3.917203369140625,-2.7900311946868896,-7.891529083251953,8.441878318786621
1789022122492128500,3.92712841796875,-2.933600664138794,-8.221738815307617,8.427521705627441
1789022122502053600,3.9370537109375,-2.9718856811523438,-8.384450912475586,8.331808090209961
1789022122511978500,3.946978515625,-3.1202406883239746,-8.236095428466797,8.944371223449707
1789022122521903600,3.956903564453125,-2.50289249420166,-8.34138011932373,8.561519622802734
1789022122531828500,3.966828369140625,-2.421536445617676,-8.14516830444336,8.551948547363281
1789022122541753600,3.976753662109375,-2.6943182945251465,-7.8628153800964355,8.920442581176758
1789022122551678500,3.986678466796875,-2.2683959007263184,-7.719245910644531,8.470592498779297
1789022122561603600,3.996603515625,-2.651247501373291,-7.642675399780273,7.609176158905029
1789022122571528400,4.006528564453125,-2.746960401535034,-7.460821151733398,7.020541667938232
1789022122581453600,4.01645361328125,-3.077169895172119,-7.503891944885254,6.7621169090271
1789022122591378700,4.026378662109375,-3.6466617584228516,-7.81974458694458,6.920042991638184
1789022122601303600,4.036303466796875,-4.034298896789551,-8.0350980758667,7.317251682281494
1789022122611228700,4.046228759765625,-3.996013879776001,-8.37009334564209,7.872386455535889
1789022122621153800,4.05615380859375,-3.617947816848755,-8.523234367370605,8.293522834777832
1789022122631078700,4.06607861328125,-3.2159535884857178,-8.61894702911377,8.839086532592773
1789022122641003800,4.076003662109375,-3.4025938510894775,-8.681160926818848,9.556933403015137
1789022122650929000,4.085928955078125,-3.7950167655944824,-8.240880966186523,9.872786521911621
1789022122660854000,4.09585400390625,-3.053241729736328,-7.465606689453125,9.154939651489258
1789022122670779000,4.10577880859375,-1.947757601737976,-7.04925537109375,8.0350980758667
1789022122680704000,4.1157041015625,-0.6939185857772827,-6.86261510848999,6.920042991638184
1789022122690628600,4.125628662109375,-0.14356936514377594,-6.766902446746826,6.680760860443115
1789022122700553500,4.135553466796875,-0.6556333899497986,-6.293123722076416,7.121040344238281
1789022122710478000,4.14547802734375,-1.5984054803848267,-6.068198204040527,7.288537979125977
1789022122720402700,4.155402587890625,-2.1918256282806396,-6.340980052947998,7.154539585113525
1789022122730327600,4.16532763671875,-2.383251428604126,-6.604190349578857,7.03489875793457
1789022122740252200,4.175252197265625,-2.6081767082214355,-6.752545356750488,7.269395351409912
1789022122750176800,4.1851767578125,-2.9001009464263916,-6.623332977294922,7.6666035652160645
1789022122760101600,4.1951015625,-3.2207393646240234,-6.288337707519531,8.446663856506348
1789022122770026200,4.205026123046875,-3.0340991020202637,-6.183053493499756,8.973084449768066
1789022122779950800,4.214950927734375,-2.2683959007263184,-6.489335060119629,8.906085968017578
1789022122789876200,4.224876220703125,-1.5122638940811157,-6.929614543914795,8.585447311401367
1789022122799801600,4.234801513671875,-0.914058268070221,-7.355536937713623,8.6907320022583
1789022122809727000,4.24472705078125,-1.2681959867477417,-7.800601959228516,8.81515884399414
1789022122819652400,4.25465234375,-1.4835500717163086,-7.968099594116211,9.169296264648438
1789022122829577700,4.26457763671875,-2.359323024749756,-7.661818027496338,8.944371223449707
1789022122839503000,4.274503173828125,-2.9718856811523438,-7.001399040222168,8.360522270202637
1789022122849428500,4.284428466796875,-4.216153621673584,-6.149554252624512,7.460821151733398
1789022122859353900,4.294353759765625,-5.422136306762695,-5.766702651977539,7.384250640869141
1789022122869279200,4.304279296875,-5.182853698730469,-5.838487148284912,7.5708909034729
1789022122879204600,4.31420458984375,-3.335594654083252,-6.015556335449219,7.905886173248291
1789022122889129700,4.324129638671875,-1.4835500717163086,-6.16391134262085,8.671588897705078
1789022122899054600,4.3340546875,-0.6891329288482666,-6.278766632080078,9.375079154968262
1789022122908979700,4.343979736328125,-1.0145567655563354,-6.51326322555542,9.681360244750977
1789022122918904800,4.35390478515625,-2.3162522315979004,-6.685546398162842,10.030712127685547
1789022122928829700,4.36382958984375,-3.4025938510894775,-6.819544315338135,10.001998901367188
1789022122938754800,4.3737548828125,-3.7806596755981445,-6.963113784790039,8.992227554321289
1789022122948680000,4.383679931640625,-2.50289249420166,-6.546762943267822,7.747959613800049
1789022122958605000,4.39360498046875,-1.3878371715545654,-6.034698486328125,6.695117950439453
1789022122968530000,4.403530029296875,-1.0049854516983032,-5.3216376304626465,6.168696880340576
1789022122978455000,4.413455078125,-1.2442678213119507,-4.541577339172363,5.7858452796936035
1789022122988380200,4.423380126953125,-1.832902193069458,-4.086941242218018,5.245067119598389
1789022122998305000,4.433304931640625,-1.4117653369903564,-3.641875982284546,4.895715236663818
1789022123008230100,4.443230224609375,-1.2442678213119507,-3.517449378967285,3.9768712520599365
1789022123018155000,4.453155029296875,-1.7324036359786987,-3.5222349166870117,3.239881753921509
1789022123028080000,4.463080078125,-2.6321048736572266,-3.517449378967285,3.4169507026672363
1789022123038005000,4.4730048828125,-2.3784656524658203,-3.3690943717956543,4.110869407653809
1789022123047930000,4.48293017578125,-1.4021940231323242,-3.627519130706787,4.058227062225342
1789022123057855000,4.49285498046875,-1.454836130142212,-3.680161237716675,3.5270206928253174
1789022123067780000,4.502780029296875,-2.187039852142334,-3.2685956954956055,3.2063822746276855
1789022123077705000,4.512705078125,-3.0580272674560547,-2.943171739578247,3.16331148147583
1789022123087630000,4.522630126953125,-3.3403804302215576,-2.761317253112793,3.373879909515381
1789022123097555200,4.53255517578125,-2.713460922241211,-2.737389087677002,3.565305709838867
1789022123107480300,4.542480224609375,-2.5220351219177246,-2.895315408706665,3.7567315101623535
1789022123117405200,4.5524052734375,-2.9144580364227295,-3.1441688537597656,4.067798614501953
1789022123127330300,4.562330322265625,-3.0867412090301514,-3.3068809509277344,4.517649173736572
1789022123137255400,4.57225537109375,-3.1106693744659424,-3.483949661254883,5.13021183013916
1789022123147180500,4.5821806640625,-3.1250264644622803,-3.6610186100006104,5.881557941436768
1789022123157105400,4.59210546875,-2.9527430534362793,-3.9529430866241455,6.412764549255371
1789022123167030500,4.602030517578125,-2.50289249420166,-4.350151538848877,6.446264266967773
1789022123176955600,4.61195556640625,-2.3401806354522705,-4.618147850036621,6.398407936096191
1789022123186880300,4.62188037109375,-2.579462766647339,-4.867001056671143,6.51326322555542
1789022123196805000,4.63180517578125,-3.081955671310425,-4.9435715675354,6.618547439575195
1789022123206729700,4.641729736328125,-3.1250264644622803,-4.981856822967529,7.077969551086426
1789022123216654600,4.651654541015625,-3.321237802505493,-5.154139995574951,7.221538543701172
1789022123226579200,4.6615791015625,-2.775674343109131,-5.546562671661377,7.231110095977783
1789022123236504000,4.671504150390625,-2.421536445617676,-5.9916276931762695,7.384250640869141
1789022123246428700,4.6814287109375,-2.5746772289276123,-6.474977970123291,8.0350980758667
1789022123256353500,4.691353515625,-3.0005996227264404,-6.833901405334473,8.685946464538574
1789022123266278100,4.701278076171875,-3.3690943717956543,-7.283751964569092,9.322437286376953
1789022123276203000,4.711203125,-2.4885356426239014,-8.116454124450684,9.269794464111328
1789022123286128400,4.72112841796875,-2.7278177738189697,-8.776873588562012,9.040083885192871
1789022123296053800,4.7310537109375,-2.2301106452941895,-9.006584167480469,8.49452018737793
1789022123305979100,4.740979248046875,-1.703689694404602,-9.097511291503906,8.030312538146973
1789022123315904500,4.750904541015625,-2.8905298709869385,-8.417949676513672,8.384450912475586
1789022123325830000,4.760829833984375,-3.2159535884857178,-8.073383331298828,8.470592498779297
1789022123335755300,4.77075537109375,-3.665804386138916,-7.939385414123535,8.700303077697754
1789022123345680600,4.7806806640625,-3.345165967941284,-8.015955924987793,9.250652313232422
1789022123355606000,4.79060595703125,-3.2925238609313965,-8.547162055969238,9.968499183654785
1789022123365531400,4.800531494140625,-1.5361921787261963,-8.906085968017578,10.107282638549805
1789022123375456500,4.81045654296875,-1.521835207939148,-9.150154113769531,9.016156196594238
1789022123385381600,4.820381591796875,-3.359523057937622,-8.657232284545898,9.016156196594238
1789022123395306800,4.830306640625,-2.550748825073242,-7.843672752380371,9.250652313232422
1789022123405231900,4.84023193359375,-1.9860427379608154,-7.154539585113525,9.34157943725586
1789022123415156700,4.85015673828125,-2.00518536567688,-6.403193473815918,9.09272575378418
1789022123425081900,4.860081787109375,-1.4691931009292603,-5.876772403717041,8.178668022155762
1789022123435007000,4.870007080078125,-1.2921242713928223,-5.632704734802246,7.154539585113525
1789022123444932000,4.87993212890625,-1.4787644147872925,-5.85284423828125,6.144768714904785
1789022123454857000,4.88985693359375,-1.8711873292922974,-6.293123722076416,5.532206058502197
1789022123464782000,4.899781982421875,-2.368894338607788,-6.905686378479004,5.498706340789795
1789022123474707200,4.909707275390625,-2.4358935356140137,-7.575676441192627,5.709274768829346
1789022123484631800,4.9196318359375,-2.0865414142608643,-8.283951759338379,5.771488189697266
1789022123494557000,4.929556884765625,-2.56510591506958,-8.719446182250977,6.278766632080078
1789022123504482000,4.93948193359375,-2.7086751461029053,-8.86780071258545,6.9822564125061035
1789022123514407200,4.9494072265625,-2.6321048736572266,-8.997013092041016,7.479963779449463
1789022123524332000,4.95933203125,-2.612962245941162,-8.944371223449707,7.901100158691406
1789022123534257200,4.969257080078125,-2.5842485427856445,-8.571090698242188,8.312665939331055
1789022123544182300,4.979182373046875,-2.3162522315979004,-8.102097511291504,8.451449394226074
1789022123554107100,4.989107177734375,-2.6225335597991943,-7.791030406951904,8.805587768554688
1789022123564032300,4.9990322265625,-2.837887763977051,-7.83410120010376,9.250652313232422
1789022123573957400,5.008957275390625,-2.4885356426239014,-7.89631462097168,9.09272575378418
1789022123583882500,5.018882568359375,-1.7180466651916504,-7.915457248687744,8.365307807922363
1789022123593807400,5.028807373046875,-1.8664016723632812,-7.738388538360596,7.523034572601318
1789022123603732500,5.038732421875,-2.148754835128784,-7.676175117492676,6.4319071769714355
1789022123613657600,5.04865771484375,-2.1583259105682373,-7.623532772064209,5.958128452301025
1789022123623582700,5.058582763671875,-1.832902193069458,-7.231110095977783,6.10169792175293
1789022123633507600,5.068507568359375,-1.397408366203308,-6.838686943054199,6.240481376647949
1789022123643432700,5.0784326171875,-1.6271194219589233,-6.728617191314697,6.321837425231934
1789022123653357800,5.08835791015625,-2.2205393314361572,-6.9583282470703125,6.3122663497924805
1789022123663283000,5.098282958984375,-2.713460922241211,-7.551748275756836,6.503692150115967
1789022123673207800,5.108207763671875,-3.187239646911621,-7.623532772064209,7.561319351196289
1789022123683133000,5.1181328125,-2.746960401535034,-7.5804619789123535,8.652446746826172
1789022123693057800,5.128057861328125,-2.3401806354522705,-7.733603000640869,9.159725189208984
1789022123702982400,5.137982421875,-1.8855443000793457,-7.920242786407471,8.930013656616211
1789022123712907300,5.1479072265625,-1.7850457429885864,-8.011170387268066,8.389236450195312
1789022123722832000,5.157831787109375,-1.5984054803848267,-7.8628153800964355,7.877171993255615
1789022123732756700,5.1677568359375,-1.3304094076156616,-7.566105365753174,7.322037220001221
1789022123742681300,5.177681396484375,-1.0959128141403198,-7.221538543701172,6.484549522399902
1789022123752606200,5.187606201171875,-1.6079767942428589,-7.11146879196167,5.7858452796936035
1789022123762530800,5.19753076171875,-2.335394859313965,-6.9822564125061035,6.135197162628174
1789022123772455700,5.20745556640625,-3.0340991020202637,-6.623332977294922,6.776473522186279
1789022123782380300,5.21738037109375,-3.5270206928253174,-5.910272121429443,8.532805442810059
1789022123792305700,5.2273056640625,-4.393222332000732,-5.862415313720703,8.886942863464355
1789022123802231000,5.23723095703125,-4.278367042541504,-5.828916072845459,9.308079719543457
1789022123812156400,5.247156494140625,-3.6466617584228516,-5.996413707733154,9.853643417358398
1789022123822081800,5.257081787109375,-2.493321180343628,-6.096911907196045,9.863214492797852
1789022123832007200,5.267007080078125,-1.5696916580200195,-6.130411624908447,9.623932838439941
1789022123841932500,5.2769326171875,-1.1150553226470947,-6.116054534912109,8.896514892578125
1789022123851858000,5.28685791015625,-0.9475577473640442,-6.350551128387451,7.9250288009643555
1789022123861783300,5.296783203125,-1.832902193069458,-6.680760860443115,7.154539585113525
1789022123871708700,5.306708740234375,-2.8809585571289062,-6.561119556427002,7.082755088806152
1789022123881634000,5.316634033203125,-3.6945180892944336,-6.096911907196045,7.164111137390137
1789022123891559000,5.326558837890625,-3.9768712520599365,-5.517848968505859,7.379465103149414
1789022123901484000,5.336484130859375,-3.5030922889709473,-5.197210788726807,7.293323516845703
1789022123911409200,5.3464091796875,-2.589034080505371,-5.216353416442871,7.178467750549316
1789022123921334300,5.356334228515625,-1.5170495510101318,-5.326423168182373,6.896114826202393
1789022123931259100,5.366259033203125,-0.8566305041313171,-5.139782905578613,6.766902446746826
1789022123941184300,5.376184326171875,-0.8231309652328491,-4.9292144775390625,6.364908218383789
1789022123951109400,5.386109375,-1.3351950645446777,-4.536791801452637,5.900700569152832
1789022123961034500,5.396034423828125,-1.8616160154342651,-4.106083869934082,5.4556355476379395
1789022123970959400,5.40595947265625,-2.2301106452941895,-3.90987229347229,5.048855781555176
1789022123980884500,5.415884521484375,-2.014756679534912,-3.9625144004821777,4.8574299812316895
1789022123990809600,5.4258095703125,-1.9956140518188477,-3.9050865173339844,5.063212871551514
1789022124000734700,5.435734619140625,-2.1774685382843018,-3.9433717727661133,5.221138954162598
1789022124010659600,5.44565966796875,-2.7278177738189697,-4.005585193634033,5.2977094650268555
1789022124020584700,5.455584716796875,-2.6608188152313232,-4.340580463409424,5.120640277862549
1789022124030509800,5.465509765625,-2.038684844970703,-4.182653903961182,5.06799840927124
1789022124040434700,5.4754345703125,-1.9812572002410889,-3.5126636028289795,5.431707382202148
1789022124050359800,5.48535986328125,-2.3880369663238525,-3.091526746749878,5.536991596221924
1789022124060285000,5.495284912109375,-2.273181438446045,-3.0723843574523926,5.584847927093506
1789022124070210000,5.5052099609375,-2.541177749633789,-3.0245277881622314,5.91505765914917
1789022124080135000,5.515135009765625,-3.2590243816375732,-3.0723843574523926,6.585047721862793
1789022124090060000,5.52506005859375,-3.1680972576141357,-3.541377544403076,7.077969551086426
1789022124099985200,5.534985107421875,-2.5076780319213867,-4.120440483093262,6.881757736206055
1789022124109910300,5.54491015625,-2.4837498664855957,-4.450650215148926,6.474977970123291
1789022124119835100,5.554835205078125,-2.68953275680542,-4.431507587432861,6.230910301208496
1789022124129760300,5.56476025390625,-2.9527430534362793,-4.254438877105713,6.345765590667725
1789022124139685400,5.574685302734375,-2.957528829574585,-4.130012035369873,6.628118515014648
1789022124149610500,5.584610595703125,-2.651247501373291,-4.168296813964844,6.675975322723389
1789022124159535400,5.594535400390625,-2.4502503871917725,-4.326223373413086,6.465406894683838
1789022124169460500,5.60446044921875,-2.3545374870300293,-4.642076015472412,6.51326322555542
1789022124179385600,5.614385498046875,-2.493321180343628,-4.900500774383545,6.623332977294922
1789022124189310500,5.624310546875,-2.823530673980713,-5.13021183013916,7.144968509674072
1789022124199235000,5.634235107421875,-2.5746772289276123,-5.54177713394165,7.6666035652160645
1789022124209160000,5.644159912109375,-2.4358935356140137,-5.862415313720703,8.188239097595215
1789022124219084800,5.654084716796875,-2.3736801147460938,-6.350551128387451,8.126026153564453
1789022124229009400,5.664009521484375,-2.2301106452941895,-6.857829570770264,7.8388872146606445
1789022124238934300,5.673934326171875,-2.4741785526275635,-7.106683254241943,7.6474609375
1789022124248859100,5.683859130859375,-2.469393014907837,-7.17368221282959,7.585247993469238
1789022124258784000,5.693783935546875,-2.249253273010254,-7.063612461090088,7.5086774826049805
1789022124268708600,5.70370849609375,-1.550549030303955,-7.0683979988098145,7.125825881958008
1789022124278633500,5.713633544921875,-1.5314065217971802,-7.197610378265381,7.077969551086426
1789022124288558800,5.723558837890625,-1.7276179790496826,-7.264609336853027,7.575676441192627
1789022124298484000,5.73348388671875,-1.8616160154342651,-7.345965385437012,8.288737297058105
1789022124308409300,5.743409423828125,-2.076970100402832,-7.642675399780273,9.116654396057129
1789022124318334700,5.753334716796875,-1.7994025945663452,-7.886743545532227,9.585647583007812
1789022124328260000,5.763260009765625,-2.091326951980591,-8.303094863891602,9.30329418182373
1789022124338185200,5.773185302734375,-1.9381862878799438,-8.37009334564209,8.877371788024902
1789022124348110600,5.783110595703125,-1.7850457429885864,-7.944170951843262,8.666803359985352
1789022124358036000,5.793035888671875,-1.215553879737854,-7.618747234344482,8.063812255859375
1789022124367961300,5.80296142578125,-1.0719845294952393,-7.523034572601318,7.470392227172852
1789022124377886500,5.812886474609375,-1.6462619304656982,-7.389036178588867,7.412964344024658
1789022124387811600,5.8228115234375,-1.770688772201538,-7.417750358581543,7.412964344024658
1789022124397736700,5.83273681640625,-2.187039852142334,-7.518248558044434,8.087740898132324
1789022124407661800,5.842661865234375,-1.9525432586669922,-7.963313579559326,8.417949676513672
1789022124417586700,5.852586669921875,-2.148754835128784,-8.461020469665527,8.915657043457031
1789022124427511800,5.86251171875,-2.4119651317596436,-8.901300430297852,8.963513374328613
1789022124437437000,5.87243701171875,-1.526620864868164,-8.791230201721191,8.528019905090332
1789022124447362000,5.882362060546875,-1.3591232299804688,-8.417949676513672,7.9728851318359375
1789022124457287000,5.892286865234375,-1.368694543838501,-7.877171993255615,7.479963779449463
1789022124467212000,5.9022119140625,-1.5409778356552124,-7.211967468261719,7.211967468261719
1789022124477137200,5.91213720703125,-1.789831280708313,-6.604190349578857,7.302894592285156
1789022124487062300,5.922062255859375,-1.7994025945663452,-6.527620315551758,7.465606689453125
1789022124496987400,5.9319873046875,-2.0003998279571533,-7.159325122833252,7.70967435836792
1789022124506912500,5.94191259765625,-1.8951154947280884,-8.025527000427246,7.747959613800049
1789022124516837600,5.951837646484375,-1.7180466651916504,-8.647661209106445,7.747959613800049
1789022124526762800,5.9617626953125,-1.9046868085861206,-8.70508861541748,7.724031448364258
1789022124536687600,5.9716875,-1.8616160154342651,-8.427521705627441,7.585247993469238
1789022124546612700,5.98161279296875,-2.4119651317596436,-8.00638484954834,7.671389579772949
1789022124556537900,5.991537841796875,-2.4837498664855957,-7.767102241516113,7.628318786621094
1789022124566463000,6.001462890625,-2.1343977451324463,-7.527820110321045,7.685746192932129
1789022124576388000,6.01138818359375,-1.153340458869934,-7.345965385437012,7.470392227172852
1789022124586313200,6.021313232421875,-0.9762716293334961,-7.274180889129639,7.178467750549316
1789022124596238300,6.03123828125,-0.5168496966362,-7.288537979125977,6.939185619354248
1789022124606163200,6.0411630859375,0.2105683982372284,-7.676175117492676,6.556334018707275
1789022124616088300,6.05108837890625,-0.7752745151519775,-7.791030406951904,6.460621356964111
1789022124626013400,6.061013427734375,-1.7994025945663452,-7.934599876403809,6.570691108703613
1789022124635938600,6.0709384765625,-2.306680917739868,-8.039883613586426,6.86261510848999
1789022124645863400,6.080863525390625,-3.0963125228881836,-7.929814338684082,7.470392227172852
1789022124655788500,6.09078857421875,-2.2444677352905273,-7.5804619789123535,7.786244869232178
1789022124665713700,6.100713623046875,-1.7515461444854736,-7.125825881958008,8.116454124450684
1789022124675638800,6.110638671875,-1.5409778356552124,-6.843472957611084,7.968099594116211
1789022124685563400,6.1205634765625,-1.057627558708191,-6.781259536743164,7.6043901443481445
1789022124695488300,6.13048828125,-1.2011969089508057,-6.786045074462891,7.6043901443481445
1789022124705413000,6.1404130859375,-1.4979069232940674,-6.752545356750488,8.135597229003906
1789022124715338000,6.150337890625,-1.373480200767517,-6.623332977294922,8.949156761169434
1789022124725262800,6.160262939453125,-1.454836130142212,-6.436692714691162,9.590433120727539
1789022124735187700,6.170187744140625,-1.2873386144638062,-6.527620315551758,9.10229778289795
1789022124745112600,6.180112548828125,-1.1054840087890625,-6.752545356750488,8.140382766723633
1789022124755037400,6.190037353515625,-1.454836130142212,-6.7621169090271,7.724031448364258
1789022124764962300,6.19996240234375,-1.8903298377990723,-6.63769006729126,7.288537979125977
1789022124774887200,6.20988720703125,-2.2779672145843506,-6.393621921539307,6.9822564125061035
1789022124785010400,6.220010498046875,-3.9194436073303223,-6.2500529289245605,8.068597793579102
1789022124795134000,6.230134033203125,-3.9672999382019043,-6.288337707519531,9.001798629760742
1789022124805257200,6.24025732421875,-2.837887763977051,-6.235695838928223,9.657432556152344
1789022124815380500,6.25038037109375,-1.2538390159606934,-6.26440954208374,10.078569412231445
1789022124825504000,6.26050390625,0.009571290574967861,-6.585047721862793,10.145567893981934
1789022124835627300,6.270627197265625,0.20099709928035736,-6.723831653594971,10.097711563110352
1789022124845750500,6.28075048828125,-0.6891329288482666,-6.9344000816345215,9.049654960632324
1789022124855873800,6.290873779296875,-2.431107759475708,-6.690331935882568,7.968099594116211
1789022124865997300,6.300997314453125,-4.048655986785889,-5.929414749145508,7.221538543701172
1789022124876120600,6.31112060546875,-3.775874137878418,-5.340780258178711,7.274180889129639
1789022124886244000,6.321244140625,-3.345165967941284,-5.173282623291016,7.345965385437012
1789022124896367600,6.33136767578125,-1.7228323221206665,-4.9531426429748535,7.259823799133301
1789022124906491100,6.3414912109375,-0.6221339106559753,-5.072783946990967,6.728617191314697
1789022124916614700,6.35161474609375,0.1818545162677765,-5.4173502922058105,6.125626087188721
1789022124926738200,6.36173828125,-0.02871387079358101,-4.957928657531738,5.742774486541748
1789022124936861700,6.37186181640625,-0.8183453679084778,-4.728217601776123,4.876572608947754
1789022124946985200,6.381985107421875,-1.4404792785644531,-4.000799655914307,4.2209391593933105
1789022124957109000,6.39210888671875,-1.8041882514953613,-3.957728624343872,3.3068809509277344
1789022124967232500,6.402232421875,-1.94297194480896,-3.3930225372314453,3.6370904445648193
1789022124977356000,6.41235595703125,-2.1583259105682373,-3.1250264644622803,4.063013076782227
1789022124987479600,6.4224794921875,-2.1918256282806396,-3.1968109607696533,4.402793884277344
1789022124997603000,6.43260302734375,-1.545763373374939,-3.5509488582611084,4.53200626373291
1789022125007726600,6.4427265625,-1.129412293434143,-3.4265220165252686,5.063212871551514
1789022125017850000,6.45285009765625,-1.1485549211502075,-3.273381471633911,5.460421085357666
1789022125027973600,6.4629736328125,-1.7563318014144897,-3.651447296142578,5.560919761657715
1789022125038097200,6.47309716796875,-2.5842485427856445,-3.82373046875,5.618347644805908
1789022125048220700,6.483220703125,-3.043670415878296,-3.871587038040161,5.776273727416992
1789022125058344200,6.49334423828125,-3.321237802505493,-3.981656789779663,6.096911907196045
1789022125068467700,6.5034677734375,-2.981456995010376,-4.158725738525391,6.068198204040527
1789022125078591500,6.513591552734375,-2.7182464599609375,-4.225724697113037,5.996413707733154
1789022125088715000,6.523715087890625,-2.823530673980713,-4.158725738525391,6.135197162628174
1789022125098838500,6.533838623046875,-2.9383862018585205,-4.144368648529053,6.307480335235596
1789022125108962000,6.543962158203125,-2.7182464599609375,-4.2209391593933105,6.532405853271484
1789022125119085600,6.55408544921875,-2.2396819591522217,-4.48414945602417,6.556334018707275
1789022125129209000,6.564208984375,-2.258824586868286,-4.785645484924316,6.632904529571533
1789022125139332600,6.57433251953125,-2.3976082801818848,-5.111069202423096,6.656832695007324
1789022125149456100,6.5844560546875,-2.6799614429473877,-5.340780258178711,6.671189308166504
1789022125159579600,6.59457958984375,-2.8283164501190186,-5.565705299377441,6.92482852935791
1789022125169703200,6.604703125,-1.8137595653533936,-5.824130535125732,7.0923261642456055
1789022125179826700,6.61482666015625,-1.9334007501602173,-5.771488189697266,7.685746192932129
1789022125189751600,6.62475146484375,-1.3351950645446777,-6.049055576324463,7.403393268585205
1789022125199676400,6.634676513671875,-1.1389836072921753,-6.532405853271484,7.207181930541992
1789022125209601300,6.644601318359375,-1.368694543838501,-6.752545356750488,7.312466144561768
1789022125219526100,6.654526123046875,-1.588834285736084,-6.943971157073975,7.613961696624756
1789022125229451000,6.664450927734375,-1.550549030303955,-7.278966426849365,7.89631462097168
1789022125239376000,6.6743759765625,-0.914058268070221,-7.901100158691406,7.776673793792725
1789022125249300700,6.68430078125,-1.2394821643829346,-8.441878318786621,8.039883613586426
1789022125259225600,6.6942255859375,-1.4644074440002441,-9.059226989746094,8.796015739440918
1789022125269150500,6.704150390625,-1.923829436302185,-9.284152030944824,9.643074989318848
1789022125279075300,6.714075439453125,-2.837887763977051,-9.32722282409668,10.451848983764648
1789022125289198600,6.724198486328125,-3.1728827953338623,-8.877371788024902,10.62413215637207
1789022125299321900,6.73432177734375,-1.4979069232940674,-8.331808090209961,9.375079154968262
1789022125309445000,6.744445068359375,-0.6173482537269592,-7.590033531188965,8.21695327758789
1789022125319568600,6.754568603515625,-0.3397808074951172,-6.929614543914795,7.618747234344482
1789022125329692000,6.76469189453125,-0.7369893789291382,-6.556334018707275,7.23589563369751
1789022125339815200,6.774815185546875,-1.8903298377990723,-6.38883638381958,7.460821151733398
1789022125349938700,6.784938720703125,-1.2921242713928223,-6.532405853271484,7.465606689453125
1789022125360062000,6.79506201171875,-1.7611174583435059,-7.197610378265381,8.21695327758789
1789022125370185200,6.805185302734375,-1.8137595653533936,-7.9728851318359375,8.149953842163086
1789022125380308500,6.81530859375,-1.6606189012527466,-8.623732566833496,7.992027759552002
1789022125390234600,6.825234619140625,-1.3926228284835815,-8.58066177368164,7.810173034667969
1789022125400160500,6.835160400390625,-1.3351950645446777,-8.011170387268066,8.025527000427246
1789022125410086700,6.845086669921875,-1.5744773149490356,-7.293323516845703,8.638090133666992
1789022125420012500,6.855012451171875,-1.3256237506866455,-6.967899322509766,8.724231719970703
1789022125429938400,6.8649384765625,-1.698904037475586,-6.97268533706665,9.193224906921387
1789022125439864600,6.874864501953125,-1.923829436302185,-7.341179847717285,9.437292098999023
1789022125449790500,6.88479052734375,-1.9669002294540405,-8.025527000427246,9.456435203552246
1789022125459716600,6.894716552734375,-1.5122638940811157,-8.671588897705078,8.839086532592773
1789022125469642500,6.904642578125,-0.6939185857772827,-8.886942863464355,7.642675399780273
1789022125479568400,6.914568359375,-0.5216353535652161,-8.470592498779297,6.9104719161987305
1789022125489493500,6.924493408203125,-1.3399807214736938,-7.676175117492676,7.044469833374023
1789022125499418600,6.934418701171875,-2.234896421432495,-7.302894592285156,7.494320392608643
1789022125509343700,6.94434375,-2.3162522315979004,-7.499105930328369,7.733603000640869
1789022125519268600,6.9542685546875,-1.698904037475586,-7.671389579772949,7.733603000640869
1789022125529193700,6.96419384765625,-0.9667003750801086,-7.719245910644531,7.460821151733398
1789022125539118800,6.974118896484375,-0.2727817893028259,-7.762316703796387,6.991827964782715
1789022125549043700,6.984043701171875,-0.35413774847984314,-7.872386455535889,6.86261510848999
1789022125558968800,6.99396875,-0.41156548261642456,-7.786244869232178,7.149754047393799
1789022125568894000,7.00389404296875,-0.6652047038078308,-7.408178806304932,7.460821151733398
1789022125578819000,7.013819091796875,-0.550349235534668,-7.178467750549316,7.188039302825928
1789022125588744000,7.023743896484375,-0.9619147181510925,-7.202396392822266,6.853044033050537
1789022125598669000,7.0336689453125,-1.8137595653533936,-7.365108013153076,6.661618232727051
1789022125608594200,7.04359423828125,-2.0482561588287354,-7.221538543701172,6.733402729034424
1789022125618519300,7.053519287109375,-2.1200408935546875,-6.747759819030762,7.479963779449463
1789022125628444200,7.063444091796875,-1.9525432586669922,-6.3840508460998535,8.226524353027344
1789022125638369300,7.073369384765625,-2.0578274726867676,-6.187839508056641,8.949156761169434
1789022125648294400,7.08329443359375,-1.8711873292922974,-6.283552169799805,9.126225471496582
1789022125658219500,7.093219482421875,-1.4261223077774048,-6.417550563812256,9.332008361816406
1789022125668144400,7.103144287109375,-0.9762716293334961,-6.527620315551758,9.667003631591797
1789022125678069500,7.113069580078125,-0.30149564146995544,-6.661618232727051,9.757930755615234
1789022125687994400,7.122994384765625,-0.22492532432079315,-7.010970115661621,9.159725189208984
1789022125697919200,7.132919189453125,-1.0145567655563354,-7.69531774520874,7.987242221832275
1789022125707844000,7.142843994140625,-1.588834285736084,-8.164310455322266,7.623532772064209
1789022125717769000,7.15276904296875,-2.1918256282806396,-8.322237014770508,7.3986077308654785
1789022125727693800,7.16269384765625,-3.0580272674560547,-8.327022552490234,7.144968509674072
1789022125737618700,7.17261865234375,-3.4169507026672363,-8.02074146270752,8.0350980758667
1789022125747543300,7.182543212890625,-2.699103832244873,-7.652246952056885,8.906085968017578
1789022125757468200,7.19246826171875,-1.794616937637329,-7.417750358581543,9.418149948120117
1789022125767393000,7.20239306640625,-1.7371892929077148,-7.09711217880249,9.81535816192627
1789022125777318000,7.21231787109375,-1.8664016723632812,-6.819544315338135,9.647860527038574
1789022125787243300,7.2222431640625,-2.091326951980591,-6.742974281311035,9.221938133239746
1789022125797168400,7.23216845703125,-2.2157537937164307,-6.498906135559082,8.920442581176758
1789022125807093800,7.24209375,-2.1535403728485107,-6.350551128387451,8.202595710754395
1789022125817019000,7.252018798828125,-1.9669002294540405,-5.9916276931762695,7.077969551086426
1789022125826944300,7.2619443359375,-1.8807586431503296,-5.8337016105651855,6.412764549255371
1789022125836869400,7.271869384765625,-2.124826431274414,-5.608776092529297,5.819344520568848
1789022125846794800,7.281794677734375,-2.321038007736206,-5.221138954162598,5.580062389373779
1789022125856720100,7.29172021484375,-2.4981069564819336,-4.742574691772461,5.685346603393555
1789022125866645200,7.301645263671875,-1.306481122970581,-4.398007869720459,5.867201328277588
1789022125876570600,7.311570556640625,-0.14835500717163086,-4.244867324829102,5.862415313720703
1789022125886495700,7.321495849609375,-0.02871387079358101,-3.9768712520599365,5.934200286865234
1789022125896420900,7.3314208984375,-0.8374879360198975,-3.9529430866241455,5.1876397132873535
1789022125906346000,7.341345947265625,-1.550549030303955,-3.838087558746338,4.096512317657471
1789022125916270800,7.351270751953125,-2.1535403728485107,-3.3547372817993164,3.493520975112915
1789022125926196000,7.361196044921875,-2.699103832244873,-3.4887354373931885,3.014956474304199
1789022125936121000,7.37112109375,-2.3306093215942383,-3.2303106784820557,3.8763725757598877
1789022125946046200,7.381046142578125,-1.301695466041565,-3.1250264644622803,4.9435715675354
1789022125955971300,7.390971435546875,-0.7992027401924133,-3.2446675300598145,5.31685209274292
1789022125965896400,7.400896484375,-0.8327022790908813,-3.594019651412964,4.986642360687256
1789022125975821600,7.410821533203125,-1.454836130142212,-3.7184464931488037,4.53200626373291
1789022125985746700,7.42074658203125,-2.3736801147460938,-3.665804386138916,4.599005222320557
1789022125995671800,7.430671875,-2.775674343109131,-3.541377544403076,4.895715236663818
1789022126005596700,7.4405966796875,-2.6560330390930176,-3.34995174407959,4.986642360687256
1789022126015521800,7.450521728515625,-2.4263222217559814,-3.3403804302215576,5.134997367858887
1789022126025447000,7.460447021484375,-2.3641088008880615,-3.3690943717956543,5.867201328277588
1789022126035371800,7.470371826171875,-2.2540390491485596,-3.627519130706787,6.905686378479004
1789022126045297000,7.480296875,-2.0243279933929443,-4.230510234832764,7.690532207489014
1789022126055222000,7.490221923828125,-1.674975872039795,-4.804787635803223,7.5708909034729
1789022126065147100,7.500147216796875,-1.3495519161224365,-5.216353416442871,6.829115867614746
1789022126075072000,7.510072021484375,-1.6654045581817627,-5.656632900238037,6.532405853271484
1789022126084996900,7.519996826171875,-0.8949156403541565,-5.733202934265137,6.26440954208374
1789022126094922000,7.529921875,-1.7515461444854736,-6.044270038604736,6.604190349578857
1789022126104847000,7.53984716796875,-1.852044701576233,-6.087340831756592,6.977470874786377
1789022126114772200,7.549772216796875,-1.5170495510101318,-6.034698486328125,7.3986077308654785
1789022126124697000,7.559697021484375,-1.4213366508483887,-6.187839508056641,7.70967435836792
1789022126134622200,7.569622314453125,-1.5649060010910034,-6.417550563812256,8.37009334564209
1789022126144547300,7.57954736328125,-1.4069796800613403,-6.704689025878906,8.776873588562012
1789022126154472200,7.58947216796875,-0.885344386100769,-7.369893550872803,8.839086532592773
1789022126164397300,7.599397216796875,-1.2681959867477417,-8.336593627929688,8.824729919433594
1789022126174322400,7.609322509765625,-1.94297194480896,-8.800801277160645,9.068798065185547
1789022126184247600,7.61924755859375,-1.9525432586669922,-9.001798629760742,9.250652313232422
1789022126194172400,7.62917236328125,-2.0721843242645264,-8.997013092041016,9.28893756866455
1789022126204097300,7.63909716796875,-1.2346965074539185,-8.910871505737305,9.016156196594238
1789022126214022000,7.64902197265625,-0.8374879360198975,-8.288737297058105,8.537590980529785
1789022126223946800,7.65894677734375,-1.2346965074539185,-7.5086774826049805,8.877371788024902
1789022126233871600,7.66887158203125,-1.3208380937576294,-7.5326056480407715,8.8438720703125
1789022126243796500,7.67879638671875,-1.8855443000793457,-7.609176158905029,9.30329418182373
1789022126253721300,7.688721435546875,-0.7848458290100098,-7.671389579772949,9.169296264648438
1789022126263646200,7.698646240234375,-0.10049854964017868,-7.685746192932129,8.585447311401367
1789022126273571000,7.708571044921875,-0.03349951654672623,-7.441678524017334,8.350951194763184
1789022126283496000,7.718495849609375,-1.5074782371520996,-7.259823799133301,8.4562349319458
1789022126293421000,7.728421142578125,-1.5840486288070679,-7.0061845779418945,8.642875671386719
1789022126303346400,7.738346435546875,-1.0863415002822876,-6.953542709350586,8.6907320022583
1789022126313271800,7.748271728515625,-0.9332008361816406,-6.9822564125061035,9.001798629760742
1789022126323197000,7.758197021484375,-0.698704183101654,-7.231110095977783,8.934800148010254
1789022126333122300,7.768122314453125,-0.5072783827781677,-7.427321434020996,8.432307243347168
1789022126343047400,7.77804736328125,-1.0432707071304321,-7.5086774826049805,7.915457248687744
1789022126352972800,7.787972900390625,-1.588834285736084,-7.250252723693848,7.853243827819824
1789022126362898000,7.79789794921875,-1.4787644147872925,-7.087540626525879,7.575676441192627
1789022126372823300,7.8078232421875,-1.100698471069336,-7.03489875793457,7.226324558258057
1789022126382748400,7.81774853515625,-1.373480200767517,-7.063612461090088,7.125825881958008
1789022126392673500,7.827673583984375,-1.9956140518188477,-6.9344000816345215,7.642675399780273
1789022126402598700,7.8375986328125,-2.2779672145843506,-7.168896675109863,8.518448829650879
1789022126412523800,7.847523681640625,-1.2681959867477417,-7.685746192932129,9.011369705200195
1789022126422448600,7.85744873046875,-0.2153540402650833,-8.274380683898926,9.111868858337402
1789022126432373800,7.867373779296875,0.8279166221618652,-8.513663291931152,8.886942863464355
1789022126442299000,7.877298828125,1.0815558433532715,-8.116454124450684,8.508877754211426
1789022126452224000,7.88722412109375,0.33020952343940735,-7.690532207489014,7.743174076080322
1789022126462148900,7.89714892578125,-0.2727817893028259,-7.326822757720947,6.680760860443115
1789022126472074000,7.907073974609375,-1.3543375730514526,-6.838686943054199,6.623332977294922
1789022126481999000,7.9169990234375,-1.397408366203308,-6.508477687835693,6.714260101318359
1789022126491924000,7.926924072265625,-1.8807586431503296,-6.2500529289245605,7.183253765106201
1789022126501849000,7.93684912109375,-2.2923240661621094,-6.570691108703613,7.724031448364258
1789022126511774200,7.946774169921875,-2.3401806354522705,-6.747759819030762,8.70508861541748
1789022126521699300,7.95669921875,-1.7084753513336182,-6.771687984466553,9.533005714416504
1789022126531624200,7.966624267578125,-0.7465606927871704,-6.7621169090271,9.796216011047363
1789022126541549300,7.97654931640625,-0.27756741642951965,-6.838686943054199,9.78664493560791
1789022126551474400,7.986474365234375,-0.2392822653055191,-7.11146879196167,9.600004196166992
1789022126561399600,7.996399658203125,-0.09092725813388824,-7.245467185974121,9.150154113769531
1789022126571324400,8.006324462890625,-0.607776939868927,-6.963113784790039,9.207581520080566
1789022126581249500,8.01624951171875,-1.1485549211502075,-6.900900363922119,9.083154678344727
1789022126591174700,8.026174560546876,-1.7419748306274414,-7.929814338684082,8.078168869018555
1789022126601099800,8.036099853515625,-1.8376877307891846,-8.030312538146973,8.365307807922363
1789022126611024600,8.046024658203125,-2.368894338607788,-7.853243827819824,8.796015739440918
1789022126620949800,8.05594970703125,-2.723032236099243,-7.63310432434082,9.044869422912598
1789022126630875000,8.065875,-2.7565317153930664,-7.417750358581543,9.111868858337402
1789022126640799700,8.0757998046875,-2.091326951980591,-6.943971157073975,9.32722282409668
1789022126650724900,8.085724853515625,-1.0480563640594482,-6.939185619354248,8.992227554321289
1789022126660650000,8.09564990234375,-0.607776939868927,-6.604190349578857,8.61894702911377
1789022126670575000,8.1055751953125,-1.397408366203308,-5.900700569152832,8.25523853302002
1789022126680500000,8.1155,-2.5842485427856445,-5.20678186416626,8.197810173034668
1789022126690425000,8.125425048828125,-2.991028308868408,-5.115854740142822,7.575676441192627
1789022126700350000,8.135349853515624,-2.0578274726867676,-5.201996326446533,7.058826923370361
1789022126710274800,8.14527490234375,-0.9092726111412048,-5.120640277862549,6.498906135559082
1789022126720199700,8.15519970703125,-0.46899324655532837,-5.340780258178711,6.0777692794799805
1789022126730124500,8.16512451171875,-0.7848458290100098,-5.398207664489746,5.85284423828125
1789022126740049400,8.17504931640625,-1.5696916580200195,-5.201996326446533,6.159125328063965
1789022126749974300,8.184974365234375,-2.2923240661621094,-4.780859470367432,6.752545356750488
1789022126759899100,8.194899169921875,-2.076970100402832,-4.742574691772461,6.8243303298950195
1789022126769824300,8.20482421875,-1.3926228284835815,-4.852644443511963,6.661618232727051
1789022126779749000,8.2147490234375,-0.7896314859390259,-4.9052863121032715,6.5180487632751465
1789022126789674200,8.22467431640625,-0.9475577473640442,-4.565505504608154,6.561119556427002
1789022126799599600,8.234599609375,-1.8089739084243774,-4.7234320640563965,5.4173502922058105
1789022126809524700,8.244524658203124,-1.454836130142212,-4.144368648529053,4.7712883949279785
1789022126819450000,8.2544501953125,-1.2729816436767578,-3.603590965270996,4.7473602294921875
1789022126829375200,8.264375244140625,-2.0865414142608643,-2.60339093208313,5.364708423614502
1789022126839300600,8.274300537109376,-1.9764715433120728,-2.196611166000366,5.986842155456543
1789022126849226000,8.28422607421875,-1.0432707071304321,-2.5938198566436768,6.561119556427002
1789022126859151000,8.294151123046875,-0.9044869542121887,-3.1250264644622803,6.522834300994873
1789022126869076500,8.304076416015626,-1.5744773149490356,-3.1824541091918945,6.8865437507629395
1789022126879001600,8.314001708984375,-2.0243279933929443,-3.139383316040039,7.015756130218506
1789022126888926700,8.3239267578125,-2.359323024749756,-3.014956474304199,7.417750358581543
1789022126898851800,8.333851806640626,-2.201396942138672,-3.2207393646240234,7.81974458694458
1789022126908776700,8.343776611328124,-1.789831280708313,-3.775874137878418,7.800601959228516
1789022126918701800,8.353701904296875,-1.4500504732131958,-4.206582069396973,7.542177200317383
1789022126928627000,8.363626953125,-1.521835207939148,-4.488935470581055,7.125825881958008
1789022126938552000,8.373552001953126,-2.0003998279571533,-4.3310089111328125,6.805187702178955
1789022126948477000,8.383476806640624,-2.1583259105682373,-3.9529430866241455,6.503692150115967
1789022126958402000,8.393402099609375,-2.210968017578125,-3.555734395980835,6.556334018707275
1789022126968327200,8.4033271484375,-2.0817556381225586,-3.3308091163635254,6.680760860443115
1789022126978252000,8.413251953125,-1.526620864868164,-3.5844483375549316,6.795616149902344
1789022126988177200,8.42317724609375,-0.9044869542121887,-4.120440483093262,6.685546398162842
1789022126998102300,8.433102294921875,-0.7657032608985901,-4.761716842651367,6.92482852935791
1789022127008027100,8.443027099609376,-1.2586246728897095,-4.934000492095947,7.436892986297607
1789022127017952300,8.4529521484375,-1.8951154947280884,-4.948357105255127,8.173882484436035
1789022127027877000,8.462877197265625,-2.3545374870300293,-4.986642360687256,8.781659126281738
1789022127037802200,8.47280224609375,-2.3258235454559326,-4.895715236663818,9.293723106384277
1789022127047727000,8.48272705078125,-2.612962245941162,-5.3694939613342285,9.590433120727539
1789022127057652200,8.49265234375,-2.234896421432495,-5.690132141113281,9.686145782470703
1789022127067577000,8.5025771484375,-2.043470621109009,-5.886343479156494,9.877572059631348
1789022127077502200,8.512502197265626,-2.0961127281188965,-5.9676995277404785,10.126425743103027
1789022127087427300,8.52242724609375,-2.234896421432495,-5.905486106872559,10.217352867126465
1789022127097352200,8.532352294921875,-2.273181438446045,-5.838487148284912,9.863214492797852
1789022127107277300,8.54227734375,-2.3018953800201416,-5.594419479370117,9.595218658447266
1789022127117202400,8.552202392578126,-2.66560435295105,-5.402993679046631,9.710074424743652
1789022127127127300,8.562127197265625,-2.66560435295105,-5.3455657958984375,9.978070259094238
1789022127137052400,8.572052490234375,-2.5124638080596924,-5.350351333618164,10.255638122558594
1789022127146977500,8.5819775390625,-2.115255117416382,-5.465207099914551,10.155138969421387
1789022127156902700,8.591902587890624,-1.3304094076156616,-5.714060306549072,9.633503913879395
1789022127166827500,8.60182763671875,-0.6891329288482666,-5.867201328277588,8.958727836608887
1789022127176752600,8.611752685546875,-0.97148597240448,-5.876772403717041,8.547162055969238
1789022127186677500,8.621677490234376,-1.1820544004440308,-5.934200286865234,8.470592498779297
1789022127196602400,8.631602294921874,-1.7084753513336182,-5.776273727416992,8.556734085083008
1789022127206527500,8.641527587890625,-2.0003998279571533,-5.493920803070068,8.819944381713867
1789022127216452400,8.651452392578125,-1.9716858863830566,-5.307280540466309,8.93958568572998
1789022127226377200,8.661377197265624,-1.6701902151107788,-5.197210788726807,8.982656478881836
1789022127236302000,8.671302001953125,-1.5744773149490356,-5.173282623291016,9.159725189208984
1789022127246227000,8.68122705078125,-1.7228323221206665,-5.125426292419434,9.422935485839844
1789022127256151800,8.69115185546875,-2.3306093215942383,-5.307280540466309,9.42772102355957
1789022127266076700,8.70107666015625,-1.588834285736084,-5.580062389373779,8.762516975402832
1789022127276001500,8.71100146484375,-1.2586246728897095,-5.508277893066406,8.097311973571777
1789022127285927000,8.720927001953125,-1.196411371231079,-5.288137912750244,7.843672752380371
1789022127295852000,8.73085205078125,-1.828116536140442,-4.838287353515625,8.346165657043457
1789022127305777200,8.740777099609375,-2.4406790733337402,-4.756931304931641,9.030512809753418
1789022127315702500,8.75070263671875,-2.6943182945251465,-5.154139995574951,9.580862045288086
1789022127325627600,8.760627685546876,-2.383251428604126,-5.608776092529297,9.710074424743652
1789022127335552800,8.770552734375,-1.8951154947280884,-6.049055576324463,9.351150512695312
1789022127345478100,8.78047802734375,-1.3112667798995972,-6.254838466644287,8.752944946289062
1789022127355403300,8.7904033203125,-1.0719845294952393,-6.307480335235596,8.226524353027344
1789022127365328600,8.80032861328125,-1.3639088869094849,-6.005984783172607,8.135597229003906
1789022127375253800,8.810253662109375,-1.9956140518188477,-5.326423168182373,8.293522834777832
1789022127385179000,8.820178955078125,-2.3258235454559326,-4.867001056671143,8.398807525634766
1789022127395103700,8.830103759765626,-2.306680917739868,-4.7473602294921875,8.279166221618652
1789022127405028900,8.84002880859375,-2.062613010406494,-4.972285270690918,8.039883613586426
1789022127414954000,8.8499541015625,-1.703689694404602,-5.221138954162598,7.767102241516113
1789022127424879000,8.859879150390626,-1.3782658576965332,-5.383851051330566,7.5804619789123535
1789022127434804000,8.869803955078124,-1.1724830865859985,-5.474778175354004,7.4225358963012695
1789022127444729000,8.87972900390625,-1.4691931009292603,-5.3216376304626465,7.307680130004883
1789022127454654200,8.889654296875,-2.282752752304077,-4.785645484924316,7.5086774826049805
1789022127464579000,8.8995791015625,-3.0484559535980225,-4.555934429168701,7.9250288009643555
1789022127474504200,8.909504150390624,-2.7421748638153076,-4.871787071228027,8.169096946716309
1789022127484429000,8.919428955078125,-2.053041934967041,-5.1876397132873535,8.542376518249512
1789022127494354200,8.929354248046875,-1.5840486288070679,-5.245067119598389,8.61894702911377
1789022127504279300,8.939279296875,-1.2538390159606934,-5.398207664489746,7.9968132972717285
1789022127514204400,8.949204345703125,-1.301695466041565,-5.355136871337891,7.379465103149414
1789022127524129300,8.95912939453125,-1.7132610082626343,-5.106283664703369,7.207181930541992
1789022127534054400,8.969054443359376,-2.297109842300415,-4.685146808624268,7.4847493171691895
1789022127543979500,8.9789794921875,-2.478964328765869,-4.618147850036621,7.848458290100098
1789022127553904400,8.988904296875,-1.8807586431503296,-5.015356063842773,7.743174076080322
1789022127563829500,8.99882958984375,-1.5792629718780518,-5.111069202423096,7.6666035652160645
1789022127573754600,9.008754638671874,-1.5553346872329712,-5.058426856994629,7.503891944885254
1789022127583679700,9.0186796875,-1.9094724655151367,-4.766502857208252,7.456035137176514
1789022127593604600,9.0286044921875,-2.273181438446045,-4.59421968460083,7.269395351409912
1789022127603529700,9.03852978515625,-2.014756679534912,-4.7473602294921875,7.149754047393799
1789022127613454800,9.048454833984374,-1.6031911373138428,-4.886143684387207,7.207181930541992
1789022127623380000,9.0583798828125,-1.6414763927459717,-4.680361270904541,7.551748275756836
1789022127633304800,9.068304931640625,-2.062613010406494,-4.42193603515625,8.073383331298828
1789022127643230000,9.07822998046875,-2.3736801147460938,-4.383651256561279,8.484949111938477
1789022127653155000,9.088155029296875,-2.2396819591522217,-4.661218643188477,8.461020469665527
1789022127663080200,9.098080078125,-1.6941183805465698,-5.173282623291016,8.350951194763184
1789022127673005000,9.108005126953126,-1.2729816436767578,-5.431707382202148,8.408378601074219
1789022127682930200,9.11793017578125,-1.368694543838501,-5.498706340789795,8.413164138793945
1789022127692855000,9.12785498046875,-1.7515461444854736,-5.307280540466309,8.327022552490234
1789022127702780000,9.13777978515625,-1.9860427379608154,-5.245067119598389,7.939385414123535
1789022127712704800,9.147704833984376,-1.9046868085861206,-5.182853698730469,7.767102241516113
1789022127722630000,9.1576298828125,-1.9142581224441528,-4.991427898406982,7.9489569664001465
1789022127732554800,9.1675546875,-2.00518536567688,-4.957928657531738,8.46580696105957
1789022127742479600,9.177479736328126,-2.0243279933929443,-5.044070243835449,8.915657043457031
1789022127752404500,9.187404541015624,-1.9381862878799438,-5.2977094650268555,8.944371223449707
1789022127762329300,9.197329345703125,-1.6366907358169556,-5.623133182525635,8.532805442810059
1789022127772254200,9.207254150390625,-1.4931213855743408,-5.651846885681152,8.135597229003906
1789022127782179000,9.217178955078126,-1.5840486288070679,-5.4556355476379395,7.920242786407471
1789022127792104400,9.2271044921875,-1.7180466651916504,-5.221138954162598,7.9489569664001465
1789022127802029600,9.237029541015625,-2.0673987865448,-4.948357105255127,8.451449394226074
1789022127811954700,9.24695458984375,-2.421536445617676,-4.780859470367432,9.140582084655762
1789022127821880000,9.256880126953124,-2.6273193359375,-5.058426856994629,9.57607650756836
1789022127831805200,9.26680517578125,-2.2683959007263184,-5.66620397567749,9.446864128112793
1789022127841730300,9.276730224609375,-1.6558332443237305,-6.0538411140441895,8.997013092041016
1789022127851655700,9.28665576171875,-1.5026925802230835,-5.85284423828125,8.638090133666992
1789022127861580800,9.296580810546875,-1.4500504732131958,-5.795416355133057,7.968099594116211
1789022127871506000,9.306505859375,-1.545763373374939,-5.54177713394165,7.724031448364258
1789022127881431300,9.316431396484376,-1.8807586431503296,-5.020142078399658,7.901100158691406
1789022127891356200,9.326356201171874,-2.1343977451324463,-4.761716842651367,8.283951759338379
1789022127901281300,9.33628125,-2.225325107574463,-4.809573650360107,8.877371788024902
1789022127911206400,9.346206298828125,-2.3258235454559326,-5.154139995574951,9.164510726928711
1789022127921131500,9.356131591796874,-2.0482561588287354,-5.752345561981201,8.930013656616211
1789022127931056400,9.366056396484375,-1.7228323221206665,-5.9676995277404785,8.61894702911377
1789022127940981500,9.3759814453125,-1.6366907358169556,-5.91505765914917,8.317451477050781
1789022127950906600,9.38590673828125,-1.8376877307891846,-5.747560024261475,8.226524353027344
1789022127960831700,9.395831787109374,-1.9716858863830566,-5.551348686218262,8.226524353027344
1789022127970756600,9.405756591796875,-2.0003998279571533,-5.302495002746582,8.044670104980469
1789022127980681700,9.415681640625,-2.1296122074127197,-4.9292144775390625,8.14516830444336
1789022127990606800,9.42560693359375,-2.2301106452941895,-4.694717884063721,8.427521705627441
1789022128000531700,9.43553173828125,-2.2779672145843506,-4.809573650360107,8.551948547363281
1789022128010456800,9.445456787109375,-2.0195422172546387,-5.446064472198486,8.35573673248291
1789022128020381700,9.455381591796876,-1.7994025945663452,-5.704489231109619,8.149953842163086
1789022128030306800,9.465306884765624,-1.4835500717163086,-5.7619171142578125,7.886743545532227
1789022128040231700,9.475231689453125,-1.373480200767517,-5.637490272521973,7.915457248687744
1789022128050156800,9.48515673828125,-2.0721843242645264,-5.125426292419434,8.202595710754395
1789022128060081700,9.49508154296875,-2.861815929412842,-4.776073932647705,8.346165657043457
1789022128070006800,9.5050068359375,-2.5842485427856445,-4.9292144775390625,8.394021987915039
1789022128079931600,9.514931640625,-1.5936198234558105,-5.3934221267700195,8.09252643585205
1789022128089856500,9.5248564453125,-1.2586246728897095,-5.450850009918213,8.02074146270752
1789022128099781600,9.53478173828125,-1.6271194219589233,-5.259424209594727,8.015955924987793
1789022128109706800,9.544706787109375,-1.9525432586669922,-5.072783946990967,8.02074146270752
1789022128119632000,9.5546318359375,-2.1774685382843018,-4.8574299812316895,8.126026153564453
1789022128129556700,9.564556640625,-1.9764715433120728,-5.044070243835449,7.929814338684082
1789022128139481900,9.57448193359375,-1.6414763927459717,-5.288137912750244,7.738388538360596
1789022128149407000,9.584406982421875,-1.612762451171875,-5.163711071014404,7.853243827819824
1789022128159332000,9.59433203125,-2.2396819591522217,-4.9531426429748535,8.551948547363281
1789022128169257000,9.604257080078124,-2.6703901290893555,-5.201996326446533,9.044869422912598
1789022128179182000,9.61418212890625,-1.9525432586669922,-5.938985824584961,8.585447311401367
1789022128189107200,9.624107177734375,-1.28255295753479,-5.953342914581299,7.910671710968018
1789022128199032000,9.634031982421876,-1.2299108505249023,-5.364708423614502,7.613961696624756
1789022128208957000,9.64395703125,-1.8951154947280884,-4.565505504608154,7.814958572387695
1789022128218881800,9.6538818359375,-2.2923240661621094,-4.536791801452637,8.073383331298828
1789022128228806700,9.663806640625,-2.249253273010254,-4.871787071228027,8.475378036499023
1789022128238731500,9.6737314453125,-1.794616937637329,-5.517848968505859,8.389236450195312
1789022128248656600,9.68365673828125,-1.3399807214736938,-5.9198431968688965,8.059026718139648
1789022128258581500,9.69358154296875,-1.3399807214736938,-5.642275810241699,7.800601959228516
1789022128268506400,9.70350634765625,-1.9094724655151367,-4.996213912963867,7.733603000640869
1789022128278431200,9.71343115234375,-2.3784656524658203,-4.7473602294921875,7.6474609375
1789022128288356000,9.723356201171875,-2.2301106452941895,-4.871787071228027,7.829315662384033
1789022128298281000,9.733281005859375,-1.8376877307891846,-5.283352375030518,7.953742504119873
1789022128308205800,9.743205810546876,-1.4835500717163086,-5.560919761657715,8.00638484954834
1789022128318131200,9.753131103515624,-1.4979069232940674,-5.407779216766357,8.015955924987793
1789022128328056300,9.763056396484375,-1.8137595653533936,-5.024927616119385,8.049455642700195
1789022128337981400,9.7729814453125,-1.9860427379608154,-5.096712112426758,8.212167739868164
1789022128347906800,9.78290673828125,-2.062613010406494,-5.383851051330566,8.384450912475586
1789022128357832000,9.79283203125,-1.8711873292922974,-5.517848968505859,8.49452018737793
1789022128367757000,9.802757080078125,-1.7611174583435059,-5.594419479370117,8.475378036499023
1789022128377682400,9.812682373046876,-1.94297194480896,-5.594419479370117,8.475378036499023
1789022128387607600,9.822607666015625,-2.124826431274414,-5.709274768829346,8.441878318786621
1789022128397532700,9.83253271484375,-2.1678972244262695,-5.737988471984863,8.461020469665527
1789022128407458000,9.8424580078125,-2.0817556381225586,-5.661418437957764,8.322237014770508
1789022128417383200,9.852383056640624,-1.9669002294540405,-5.3312087059021,8.264809608459473
1789022128427308000,9.86230810546875,-1.6175481081008911,-5.575276851654053,7.920242786407471
1789022128437233200,9.872233154296875,-2.0243279933929443,-5.111069202423096,8.441878318786621
1789022128447158300,9.882158203125,-2.287538528442383,-4.962714195251465,8.623732566833496
1789022128457083100,9.892083251953125,-2.038684844970703,-5.182853698730469,8.547162055969238
1789022128467008300,9.90200830078125,-1.5409778356552124,-5.7858452796936035,8.0350980758667
1789022128476933400,9.911933349609376,-1.545763373374939,-6.092126369476318,7.867600917816162
1789022128486858500,9.9218583984375,-2.0243279933929443,-5.647061347961426,8.298309326171875
1789022128496783400,9.931783447265625,-2.469393014907837,-5.216353416442871,8.599804878234863
1789022128506708500,9.94170849609375,-2.4023938179016113,-5.312066078186035,8.886942863464355
1789022128516633600,9.951633544921876,-2.2205393314361572,-5.608776092529297,8.987442016601562
1789022128526558700,9.961558837890625,-2.00518536567688,-5.771488189697266,9.011369705200195
1789022128536483600,9.971483642578125,-1.679761528968811,-5.8959150314331055,8.676374435424805
1789022128546408700,9.98140869140625,-1.6414763927459717,-5.72841739654541,8.298309326171875
1789022128556333800,9.991333740234374,-1.7994025945663452,-5.565705299377441,7.915457248687744
1789022128566259000,10.001259033203125,-1.9860427379608154,-5.3455657958984375,7.953742504119873
1789022128576183800,10.011183837890625,-2.225325107574463,-5.2115678787231445,8.13081169128418
1789022128586109000,10.02110888671875,-2.1583259105682373,-5.20678186416626,8.504091262817383
1789022128596034000,10.031033935546875,-1.919043779373169,-5.350351333618164,8.70508861541748
1789022128605959000,10.040958984375,-1.9956140518188477,-5.570491313934326,8.657232284545898
1789022128615884000,10.050884033203126,-1.832902193069458,-5.8959150314331055,8.437092781066895
1789022128625809200,10.06080908203125,-2.139183521270752,-5.4556355476379395,8.719446182250977
1789022128635734300,10.070734375,-2.1583259105682373,-5.723631858825684,8.427521705627441
1789022128645659100,10.0806591796875,-1.9621145725250244,-5.910272121429443,8.4562349319458
1789022128655584300,10.090584228515626,-1.8951154947280884,-5.79063081741333,8.446663856506348
1789022128665509400,10.10050927734375,-1.9381862878799438,-5.527420520782471,8.4562349319458
1789022128675434500,10.1104345703125,-1.852044701576233,-5.326423168182373,8.322237014770508
1789022128685359400,10.120359375,-2.0721843242645264,-5.048855781555176,8.566305160522461
1789022128695284500,10.130284423828124,-2.1439690589904785,-5.4556355476379395,8.523234367370605
1789022128705209600,10.140209716796875,-2.1056840419769287,-5.881557941436768,8.614161491394043
1789022128715134500,10.150134521484375,-1.9812572002410889,-5.9198431968688965,8.647661209106445
1789022128725059600,10.1600595703125,-1.9956140518188477,-5.364708423614502,8.800801277160645
1789022128734984400,10.169984375,-2.0195422172546387,-4.996213912963867,8.303094863891602
1789022128744909600,10.17990966796875,-1.8089739084243774,-4.924428939819336,7.628318786621094
1789022128754834400,10.18983447265625,-1.5553346872329712,-5.2115678787231445,6.977470874786377
1789022128764759600,10.199759521484374,-1.7084753513336182,-4.938786029815674,7.322037220001221
1789022128774684700,10.2096845703125,-1.856830358505249,-4.924428939819336,7.618747234344482
1789022128784609500,10.219609619140625,-2.029113531112671,-4.618147850036621,8.164310455322266
1789022128794534700,10.22953466796875,-1.8472590446472168,-5.015356063842773,8.13081169128418
1789022128804459500,10.23945947265625,-1.7371892929077148,-5.398207664489746,8.317451477050781
1789022128814384600,10.249384521484375,-1.8185452222824097,-5.714060306549072,8.350951194763184
1789022128824309800,10.259309814453125,-1.8041882514953613,-5.79063081741333,8.484949111938477
1789022128834234600,10.269234619140626,-1.9094724655151367,-5.599205017089844,8.58066177368164
1789022128844159700,10.27915966796875,-2.100898265838623,-5.407779216766357,8.95394229888916
1789022128854084900,10.2890849609375,-2.2444677352905273,-5.623133182525635,9.236295700073242
1789022128864010000,10.299010009765626,-2.344966173171997,-5.79063081741333,9.580862045288086
1789022128873934800,10.308934814453124,-1.919043779373169,-5.656632900238037,9.542576789855957
1789022128883860000,10.31885986328125,-1.5840486288070679,-5.608776092529297,8.891729354858398
1789022128893785000,10.32878515625,-1.6175481081008911,-5.857629776000977,8.0350980758667
1789022128903710000,10.3387099609375,-1.6319050788879395,-5.962913990020752,7.4847493171691895
1789022128913635000,10.348635009765625,-1.7371892929077148,-5.656632900238037,7.4225358963012695
1789022128923560200,10.358560302734375,-2.2205393314361572,-4.957928657531738,7.752745151519775
1789022128933485000,10.368485107421876,-2.4981069564819336,-4.46979284286499,7.776673793792725
1789022128943410200,10.37841015625,-2.0243279933929443,-4.402793884277344,7.5804619789123535
1789022128953335000,10.3883349609375,-1.5026925802230835,-4.508078098297119,7.618747234344482
1789022128963260200,10.39826025390625,-1.435693621635437,-4.8191447257995605,7.843672752380371
1789022128973185000,10.40818505859375,-2.0099709033966064,-4.871787071228027,8.518448829650879
1789022128983110100,10.418110107421874,-2.344966173171997,-5.158925533294678,8.925228118896484
1789022128993035000,10.428034912109375,-1.9716858863830566,-5.838487148284912,8.810373306274414
1789022129002960100,10.437960205078125,-1.459621787071228,-6.206982135772705,8.082955360412598
1789022129012885200,10.44788525390625,-1.4117653369903564,-5.737988471984863,7.642675399780273
1789022129022810000,10.45781005859375,-1.94297194480896,-5.00578498840332,7.489534854888916
1789022129032735200,10.4677353515625,-2.383251428604126,-4.737788677215576,7.4847493171691895
1789022129042660400,10.477660400390626,-2.531606435775757,-4.957928657531738,7.944170951843262
1789022129052585200,10.487585205078124,-2.282752752304077,-5.556134223937988,8.23130989074707
1789022129062510300,10.49751025390625,-1.7850457429885864,-5.704489231109619,8.374878883361816
1789022129072435500,10.507435546875,-1.5601203441619873,-5.560919761657715,8.283951759338379
1789022129082360600,10.517360595703124,-1.7324036359786987,-5.364708423614502,8.374878883361816
1789022129092285400,10.527285400390625,-2.0003998279571533,-5.446064472198486,8.413164138793945
1789022129102210600,10.53721044921875,-2.014756679534912,-6.044270038604736,8.408378601074219
1789022129112135700,10.5471357421875,-1.9621145725250244,-5.876772403717041,8.930013656616211
1789022129122060500,10.557060546875,-1.794616937637329,-5.9676995277404785,8.657232284545898
1789022129131985700,10.566985595703125,-1.8041882514953613,-5.962913990020752,8.786444664001465
1789022129141910500,10.57691064453125,-2.1200408935546875,-6.034698486328125,9.068798065185547
1789022129151835600,10.586835693359374,-2.2301106452941895,-6.149554252624512,9.351150512695312
1789022129161760500,10.596760498046875,-1.7802600860595703,-6.269195556640625,9.475577354431152
1789022129171685600,10.606685546875,-1.2729816436767578,-6.321837425231934,9.293723106384277
1789022129181610500,10.616610595703126,-1.1150553226470947,-6.125626087188721,9.18843936920166
1789022129191535600,10.62653564453125,-1.7180466651916504,-5.584847927093506,9.236295700073242
1789022129201460500,10.63646044921875,-2.885744094848633,-5.216353416442871,9.336793899536133
1789022129211385600,10.646385498046875,-3.373879909515381,-5.082355499267578,9.585647583007812
1789022129221310500,10.656310546875,-2.737389087677002,-5.063212871551514,9.772287368774414
1789022129231235600,10.666235595703125,-1.5984054803848267,-5.19242525100708,9.633503913879395
1789022129241160700,10.67616064453125,-1.1676974296569824,-5.096712112426758,9.580862045288086
1789022129251085800,10.6860859375,-1.301695466041565,-4.823930263519287,9.351150512695312
1789022129261010700,10.6960107421875,-1.9525432586669922,-4.59421968460083,9.035298347473145
1789022129270935800,10.705935791015625,-2.4119651317596436,-4.560719966888428,8.796015739440918
1789022129280861000,10.71586083984375,-2.249253273010254,-4.555934429168701,8.776873588562012
1789022129290785800,10.725785888671876,-2.2923240661621094,-4.656432628631592,8.872586250305176
1789022129300711000,10.7357109375,-1.9573289155960083,-4.957928657531738,8.839086532592773
1789022129310636000,10.745635986328125,-1.7084753513336182,-5.063212871551514,8.882157325744629
1789022129320561000,10.755560791015625,-1.4404792785644531,-4.924428939819336,9.09272575378418
1789022129330485800,10.76548583984375,-1.215553879737854,-5.13021183013916,9.035298347473145
1789022129340410600,10.77541064453125,-1.1485549211502075,-5.446064472198486,8.547162055969238
1789022129350335500,10.78533544921875,-1.4931213855743408,-5.685346603393555,8.030312538146973
1789022129360260600,10.795260498046876,-2.3306093215942383,-5.26899528503418,7.848458290100098
1789022129370185500,10.805185546875,-2.871387243270874,-4.704289436340332,7.843672752380371
1789022129380110300,10.8151103515625,-2.919243574142456,-4.350151538848877,8.09252643585205
1789022129390035200,10.82503515625,-1.698904037475586,-4.182653903961182,8.35573673248291
1789022129399960000,10.8349599609375,-1.2011969089508057,-4.225724697113037,8.135597229003906
1789022129409885000,10.844885009765624,-1.3399807214736938,-4.130012035369873,7.613961696624756
1789022129419810000,10.85481005859375,-1.521835207939148,-4.029513359069824,6.776473522186279
1789022129429735200,10.864735107421875,-1.5696916580200195,-4.01037073135376,5.685346603393555
1789022129439660500,10.87466064453125,-1.8855443000793457,-3.507878065109253,5.407779216766357
1789022129449585700,10.884585693359375,-2.00518536567688,-2.785245656967163,5.575276851654053
1789022129459510800,10.8945107421875,-1.8472590446472168,-2.6321048736572266,5.776273727416992
1789022129469436000,10.904435791015626,-1.368694543838501,-3.0723843574523926,5.881557941436768
1789022129479361000,10.914361083984375,-0.9619147181510925,-3.6993038654327393,5.843272686004639
1789022129489286100,10.9242861328125,-1.3304094076156616,-3.680161237716675,6.187839508056641
1789022129499211300,10.934211181640626,-1.94297194480896,-3.297309637069702,6.403193473815918
1789022129509136600,10.94413671875,-1.8233308792114258,-3.1728827953338623,6.111268997192383
1789022129519061500,10.9540615234375,-1.2011969089508057,-3.436093330383301,5.575276851654053
1789022129528986600,10.963986572265625,-0.6125625967979431,-3.7902309894561768,5.19242525100708
1789022129538911700,10.973911865234374,-1.0289137363433838,-3.7902309894561768,5.4795637130737305
1789022129548836900,10.9838369140625,-1.9046868085861206,-3.7423746585845947,6.38883638381958
1789022129558761700,10.99376171875,-2.3258235454559326,-4.067798614501953,7.436892986297607
1789022129568686800,11.003686767578126,-1.3830515146255493,-4.445864677429199,8.202595710754395
1789022129578612000,11.013612060546874,-1.4261223077774048,-5.355136871337891,8.422736167907715
1789022129588536800,11.023536865234375,-1.0959128141403198,-6.001199245452881,7.810173034667969
1789022129598462000,11.0334619140625,-1.301695466041565,-6.192625045776367,6.9822564125061035
1789022129608387000,11.043386962890626,-1.5409778356552124,-6.058627128601074,6.206982135772705
1789022129618312000,11.05331201171875,-1.9716858863830566,-5.819344520568848,5.9676995277404785
1789022129628237000,11.063237060546875,-1.8664016723632812,-5.5034918785095215,6.3601226806640625
1789022129638162200,11.073162109375,-1.5744773149490356,-5.359922885894775,7.03489875793457
1789022129648087000,11.083087158203124,-1.6558332443237305,-5.493920803070068,7.953742504119873
1789022129658012200,11.09301220703125,-1.4691931009292603,-5.9916276931762695,8.58066177368164
1789022129667937000,11.10293701171875,-1.301695466041565,-6.551548480987549,9.226723670959473
1789022129677862100,11.112862060546876,-1.100698471069336,-7.207181930541992,9.753145217895508
1789022129687787000,11.122787109375,-1.6414763927459717,-7.867600917816162,9.949356079101562
1789022129697712000,11.132712158203125,-1.832902193069458,-8.264809608459473,9.394221305847168
1789022129707637000,11.142636962890625,-1.6271194219589233,-8.169096946716309,8.508877754211426
1789022129717562000,11.15256201171875,-1.100698471069336,-7.853243827819824,7.341179847717285
1789022129727487000,11.162487060546875,-0.8566305041313171,-7.350750923156738,6.977470874786377
1789022129737412000,11.172412109375,-1.153340458869934,-7.216753005981445,7.039684295654297
1789022129747337000,11.1823369140625,-1.3351950645446777,-7.154539585113525,7.953742504119873
1789022129757262000,11.192261962890624,-1.6079767942428589,-7.652246952056885,8.944371223449707
1789022129767187000,11.20218701171875,-1.9142581224441528,-8.21695327758789,9.389435768127441
1789022129777112000,11.212112060546875,-1.1724830865859985,-8.408378601074219,8.8438720703125
1789022129787037000,11.222036865234376,-0.6747759580612183,-8.140382766723633,8.504091262817383
1789022129796962000,11.231962158203125,-0.4833501875400543,-7.685746192932129,7.6043901443481445
1789022129806887200,11.24188720703125,-1.1581261157989502,-7.226324558258057,7.4847493171691895
1789022129816812000,11.25181201171875,-0.9906286001205444,-7.03489875793457,7.23589563369751
1789022129826737000,11.26173681640625,-1.5026925802230835,-6.963113784790039,7.762316703796387
1789022129836661800,11.271661865234375,-1.7563318014144897,-7.269395351409912,8.039883613586426
1789022129846586600,11.281586669921875,-2.273181438446045,-7.384250640869141,9.073583602905273
1789022129856511500,11.291511474609376,-1.6654045581817627,-7.499105930328369,9.796216011047363
1789022129866436400,11.301436279296874,-0.8374879360198975,-7.317251682281494,9.90149974822998
1789022129876361200,11.311361328125,-0.8757730722427368,-7.216753005981445,9.049654960632324
1789022129886286300,11.321286376953125,-1.153340458869934,-7.164111137390137,8.561519622802734
1789022129896211200,11.331211181640626,-1.856830358505249,-7.211967468261719,8.767302513122559
1789022129906136000,11.341135986328124,-2.5459632873535156,-7.336394309997559,9.384650230407715
1789022129916061200,11.351061279296875,-2.761317253112793,-7.4847493171691895,9.906285285949707
1789022129925986300,11.360986328125,-2.1439690589904785,-7.542177200317383,10.021141052246094
1789022129935911400,11.370911376953124,-1.2969099283218384,-7.412964344024658,9.504291534423828
1789022129945836500,11.38083642578125,-1.062413215637207,-7.154539585113525,8.863015174865723
1789022129955762000,11.390761962890625,-0.8374879360198975,-6.733402729034424,8.207381248474121
1789022129965687000,11.40068701171875,-0.5455635786056519,-6.302694797515869,7.470392227172852
1789022129975612200,11.410612060546875,-0.7178468108177185,-6.010770320892334,6.709474563598633
1789022129985537300,11.420537353515625,-1.5409778356552124,-6.03948450088501,6.211767673492432
1789022129995462400,11.43046240234375,-2.56510591506958,-6.436692714691162,6.278766632080078
1789022130005387500,11.440387451171874,-3.0340991020202637,-6.9583282470703125,6.723831653594971
1789022130015312600,11.450312744140625,-2.4646072387695312,-7.0301127433776855,7.226324558258057
1789022130025237500,11.460237548828125,-1.3878371715545654,-6.896114826202393,7.843672752380371
1789022130035162600,11.47016259765625,-0.9188438653945923,-6.9583282470703125,8.015955924987793
1789022130045087500,11.48008740234375,-0.698704183101654,-7.183253765106201,8.126026153564453
1789022130055012600,11.4900126953125,-0.7369893789291382,-7.489534854888916,8.126026153564453
1789022130064937500,11.4999375,-0.9379864931106567,-7.637889862060547,8.221738815307617
1789022130074862600,11.509862548828124,-1.3112667798995972,-7.920242786407471,8.37009334564209
1789022130084787500,11.519787353515625,-1.8185452222824097,-7.853243827819824,8.997013092041016
1789022130094712600,11.529712646484375,-1.947757601737976,-7.676175117492676,9.34157943725586
1789022130104637700,11.5396376953125,-2.014756679534912,-7.637889862060547,10.006784439086914
1789022130114562600,11.5495625,-1.7611174583435059,-7.829315662384033,10.131211280822754
1789022130124487700,11.55948779296875,-1.3591232299804688,-8.226524353027344,9.643074989318848
1789022130134412500,11.56941259765625,-0.9667003750801086,-7.910671710968018,9.791430473327637
1789022130144337700,11.579337646484374,-1.7611174583435059,-7.322037220001221,9.097511291503906
1789022130154262500,11.589262451171875,-2.0243279933929443,-6.585047721862793,8.561519622802734
1789022130164187600,11.599187744140625,-1.765903115272522,-6.087340831756592,8.116454124450684
1789022130174112500,11.609112548828126,-1.4979069232940674,-5.938985824584961,8.202595710754395
1789022130184037600,11.61903759765625,-1.0145567655563354,-5.747560024261475,8.044670104980469
1789022130193962500,11.62896240234375,-0.9379864931106567,-5.651846885681152,8.96829891204834
1789022130203887600,11.6388876953125,-1.0863415002822876,-5.962913990020752,9.231510162353516
1789022130213812500,11.6488125,-1.3639088869094849,-6.20219612121582,8.556734085083008
1789022130223737600,11.658737548828125,-1.3495519161224365,-5.962913990020752,7.795815944671631
1789022130233662500,11.668662353515625,-0.8805587291717529,-5.661418437957764,6.829115867614746
1789022130243587600,11.678587646484376,-0.7082754969596863,-5.201996326446533,6.379265308380127
1789022130253512700,11.6885126953125,-0.5838487148284912,-4.996213912963867,6.340980052947998
1789022130263437800,11.698437744140625,-1.1150553226470947,-4.838287353515625,6.857829570770264
1789022130273362700,11.70836279296875,-2.0003998279571533,-4.809573650360107,7.403393268585205
1789022130283287800,11.718287841796876,-2.148754835128784,-4.776073932647705,6.853044033050537
1789022130293213000,11.728212890625,-1.6654045581817627,-4.948357105255127,5.283352375030518
1789022130303138000,11.738137939453125,-1.215553879737854,-4.7952165603637695,3.5748770236968994
1789022130313063000,11.74806298828125,-1.459621787071228,-4.4650068283081055,2.9001009464263916
1789022130322987800,11.75798779296875,-1.9764715433120728,-3.7423746585845947,3.4504501819610596
1789022130332913000,11.767912841796875,-1.4500504732131958,-3.005385160446167,4.216153621673584
1789022130342837800,11.777837646484375,-0.9236295223236084,-2.0003998279571533,4.962714195251465
1789022130352762600,11.7877626953125,-0.7322037220001221,-1.8472590446472168,4.924428939819336
1789022130362687500,11.7976875,-0.05742774158716202,-2.407179594039917,4.292723655700684
1789022130372612400,11.8076123046875,-0.8183453679084778,-2.7565317153930664,4.192225456237793
1789022130382537200,11.817537109375,-2.115255117416382,-2.991028308868408,4.268795490264893
1789022130392462000,11.827462158203126,-2.3162522315979004,-3.2159535884857178,4.335794448852539
1789022130402387000,11.837386962890625,-2.3018953800201416,-3.345165967941284,4.393222332000732
1789022130412312000,11.84731201171875,-2.2061824798583984,-3.263810157775879,4.6372904777526855
1789022130422237000,11.85723681640625,-1.9334007501602173,-3.2590243816375732,5.20678186416626
1789022130432162000,11.867162109375,-1.7324036359786987,-3.4169507026672363,6.087340831756592
1789022130442087200,11.877087158203125,-1.301695466041565,-3.594019651412964,6.896114826202393
1789022130452012300,11.88701220703125,-1.373480200767517,-4.163511276245117,7.278966426849365
1789022130461937400,11.8969375,-0.698704183101654,-4.713860511779785,6.948757171630859
1789022130471862500,11.906862548828125,-0.20578274130821228,-5.158925533294678,6.86261510848999
1789022130481787600,11.91678759765625,-0.7513462901115417,-5.680561065673828,7.09711217880249
1789022130491712800,11.926712646484376,-1.3495519161224365,-6.197410583496094,7.499105930328369
1789022130501638000,11.936637939453124,-1.8137595653533936,-6.379265308380127,8.039883613586426
1789022130511563000,11.94656298828125,-1.7419748306274414,-6.623332977294922,8.556734085083008
1789022130521488000,11.95648779296875,-1.856830358505249,-7.03489875793457,9.001798629760742
1789022130531413000,11.9664130859375,-1.698904037475586,-7.345965385437012,9.284152030944824
1789022130541338000,11.976338134765625,-1.3304094076156616,-7.9489569664001465,9.418149948120117
1789022130551263000,11.986262939453125,-0.9906286001205444,-8.638090133666992,9.418149948120117
1789022130561188000,11.99618798828125,-1.2011969089508057,-8.958727836608887,9.4660062789917
1789022130571113000,12.006113037109374,-1.368694543838501,-8.786444664001465,9.250652313232422
1789022130581038000,12.0160380859375,-0.7369893789291382,-8.451449394226074,9.006584167480469
1789022130590963000,12.025962890625,-0.22971096634864807,-7.767102241516113,8.724231719970703
1789022130600888000,12.03588818359375,-0.30628129839897156,-7.121040344238281,8.819944381713867
1789022130610813000,12.04581298828125,-1.2394821643829346,-7.154539585113525,8.585447311401367
1789022130620738000,12.055738037109375,-1.794616937637329,-6.632904529571533,9.317651748657227
1789022130630663000,12.065662841796875,-1.6031911373138428,-6.690331935882568,9.724431037902832
1789022130640588000,12.075588134765624,-1.1102696657180786,-6.891329288482666,9.523433685302734
1789022130650513000,12.085512939453125,-0.28235307335853577,-7.09711217880249,9.17886734008789
1789022130660438000,12.09543798828125,-0.32542386651039124,-7.1162543296813965,8.982656478881836
1789022130670363000,12.10536279296875,-0.33499518036842346,-7.278966426849365,8.140382766723633
1789022130680288000,12.1152880859375,-1.301695466041565,-7.408178806304932,8.154739379882812
1789022130690212900,12.125212890625,-1.2299108505249023,-7.4225358963012695,8.102097511291504
1789022130700138000,12.135137939453125,-1.277767300605774,-7.322037220001221,8.748159408569336
1789022130710063000,12.14506298828125,-1.1772687435150146,-7.255038261413574,9.140582084655762
1789022130719988000,12.154988037109375,-1.1868400573730469,-7.17368221282959,9.4660062789917
1789022130729913000,12.1649130859375,-1.2442678213119507,-7.125825881958008,9.69093132019043
1789022130739838000,12.174837890625,-1.6558332443237305,-6.939185619354248,9.638289451599121
1789022130749763000,12.18476318359375,-1.306481122970581,-6.97268533706665,8.901300430297852
1789022130759688000,12.19468798828125,-1.2634103298187256,-7.1162543296813965,8.169096946716309
1789022130769613000,12.204613037109375,-1.7754744291305542,-7.178467750549316,8.236095428466797
1789022130779538000,12.214537841796876,-2.4598217010498047,-7.523034572601318,8.915657043457031
1789022130789463000,12.224463134765625,-3.1968109607696533,-7.637889862060547,10.116853713989258
1789022130799388000,12.234387939453125,-2.8426733016967773,-7.599604606628418,11.026126861572266
1789022130809313000,12.24431298828125,-0.5024927258491516,-7.336394309997559,10.552348136901855
1789022130819238000,12.25423779296875,0.11964113265275955,-6.991827964782715,9.097511291503906
1789022130829162800,12.264162841796875,0.9236295223236084,-6.766902446746826,7.551748275756836
1789022130839087600,12.274087646484375,1.1772687435150146,-6.704689025878906,7.178467750549316
1789022130849012500,12.284012451171876,1.6079767942428589,-6.503692150115967,6.872186660766602
1789022130858937300,12.293937255859374,0.6604190468788147,-6.632904529571533,6.585047721862793
1789022130868862500,12.303862548828125,-0.6699903607368469,-7.17368221282959,6.235695838928223
1789022130878787300,12.313787353515625,-2.392822742462158,-7.058826923370361,6.4079790115356445
1789022130888712200,12.323712158203126,-3.326023578643799,-6.781259536743164,7.1162543296813965
1789022130898637000,12.333636962890624,-3.311666488647461,-6.082555294036865,8.169096946716309
1789022130908562000,12.34356201171875,-2.3306093215942383,-5.460421085357666,8.767302513122559
1789022130918487000,12.353487060546875,-1.0959128141403198,-5.312066078186035,8.63330364227295
1789022130928412200,12.363412109375,-0.24885354936122894,-5.4795637130737305,8.183453559875488
1789022130938337300,12.373337158203125,0.363709032535553,-5.9676995277404785,7.9489569664001465
1789022130948262400,12.383262451171875,0.5024927258491516,-6.474977970123291,8.695517539978027
1789022130958187500,12.3931875,-0.22492532432079315,-6.876972198486328,10.054640769958496
1789022130968112600,12.403112548828124,-1.0767701864242554,-7.250252723693848,10.782058715820312
1789022130978037800,12.413037841796875,-1.191625714302063,-7.551748275756836,10.552348136901855
1789022130987963000,12.422962890625,-1.28255295753479,-8.049455642700195,9.489934921264648
1789022130997888000,12.432887939453124,-1.8137595653533936,-8.13081169128418,8.982656478881836
1789022131007813000,12.442813232421875,-2.7326035499572754,-7.872386455535889,8.628518104553223
1789022131017738000,12.452738037109375,-5.000999450683594,-7.302894592285156,8.484949111938477
1789022131027663000,12.4626630859375,-5.144568920135498,-6.537191390991211,8.86780071258545
1789022131037588000,12.472587890625,-3.311666488647461,-5.934200286865234,9.475577354431152
1789022131047513000,12.48251318359375,-1.7419748306274414,-5.584847927093506,9.4660062789917
1789022131057438000,12.49243798828125,-0.698704183101654,-5.580062389373779,9.489934921264648
1789022131067363000,12.502363037109374,0.23449662327766418,-5.900700569152832,9.17886734008789
1789022131077288000,12.512287841796875,0.31106695532798767,-5.828916072845459,8.408378601074219
1789022131087213000,12.522213134765625,-0.5264210104942322,-5.680561065673828,7.63310432434082
1789022131097138000,12.532137939453126,-1.3878371715545654,-5.3934221267700195,6.685546398162842
1789022131107063000,12.54206298828125,-1.7371892929077148,-4.962714195251465,6.0777692794799805
1789022131116988000,12.55198779296875,-1.0289137363433838,-4.780859470367432,5.599205017089844
1789022131126913000,12.5619130859375,-0.5024927258491516,-4.59421968460083,5.771488189697266
1789022131136838000,12.571837890625,-1.3639088869094849,-4.431507587432861,5.9437713623046875
1789022131146763000,12.581762939453125,-2.50289249420166,-4.445864677429199,5.862415313720703
1789022131156688000,12.59168798828125,-2.273181438446045,-4.192225456237793,5.656632900238037
1789022131166613000,12.601613037109376,-1.301695466041565,-4.096512317657471,5.20678186416626
1789022131176538000,12.6115380859375,-1.2299108505249023,-3.9529430866241455,4.785645484924316
1789022131186463000,12.621462890625,-0.8470591902732849,-3.9672999382019043,4.163511276245117
1789022131196388000,12.63138818359375,-0.46899324655532837,-3.924229145050049,3.3643085956573486
1789022131206313000,12.64131298828125,-0.9475577473640442,-2.943171739578247,3.8668015003204346
1789022131216238000,12.651238037109374,-1.2346965074539185,-2.478964328765869,3.82373046875
1789022131226163000,12.661162841796875,-0.9427721500396729,-2.5220351219177246,4.024727821350098
1789022131236088000,12.671088134765625,-1.2394821643829346,-2.5746772289276123,4.311866283416748
1789022131246013000,12.681012939453124,-1.8855443000793457,-2.699103832244873,4.713860511779785
1789022131255938000,12.69093798828125,-2.091326951980591,-3.053241729736328,4.895715236663818
1789022131265863000,12.70086279296875,-2.115255117416382,-3.2829527854919434,5.048855781555176
1789022131275788000,12.7107880859375,-1.7228323221206665,-3.589233875274658,5.2737812995910645
1789022131285713000,12.720712890625,-1.1198409795761108,-3.9146578311920166,5.350351333618164
1789022131295638000,12.730637939453125,-0.363709032535553,-4.101297855377197,5.661418437957764
1789022131305563000,12.74056298828125,-0.7992027401924133,-4.316651821136475,6.403193473815918
1789022131315488000,12.750488037109376,-1.196411371231079,-4.3788652420043945,7.269395351409912
1789022131325412900,12.760412841796875,-1.6510475873947144,-4.785645484924316,7.853243827819824
