time,seconds_elapsed,z,y,x
1789022118636323300,0.0713232421875,0.1026252806186676,0.10140355676412582,-0.10323614627122879
1789022118646248200,0.081248291015625,0.13439024984836578,0.26511532068252563,-0.033597562462091446
1789022118656173000,0.091173095703125,0.164322629570961,0.35124725103378296,0.03909534588456154
1789022118666098000,0.101097900390625,0.1649334877729416,0.32070401310920715,0.10751219838857651
1789022118676022800,0.111022705078125,0.15760311484336853,0.27488914132118225,0.17287473380565643
1789022118685947600,0.12094775390625,0.17348559200763702,0.25350889563560486,0.23396120965480804
1789022118695872500,0.13087255859375,0.19181154668331146,0.20219624042510986,0.2779434621334076
1789022118705797600,0.140797607421875,0.18875721096992493,0.11545344442129135,0.30604326725006104
1789022118715722200,0.15072216796875,0.17287473380565643,0.04886918142437935,0.3329212963581085
1789022118725647000,0.160647216796875,0.14660754799842834,0.053145237267017365,0.3634645342826843
1789022118735572200,0.170572265625,0.1185077652335167,0.09040798991918564,0.401949018239975
1789022118745497000,0.1804970703125,0.09346231073141098,0.15210533142089844,0.44409868121147156
1789022118755422000,0.190421875,0.06841685622930527,0.19853104650974274,0.47464191913604736
1789022118765346800,0.200346923828125,0.04459312930703163,0.20402882993221283,0.47525280714035034
1789022118775271700,0.210271728515625,0.03787361457943916,0.18081597983837128,0.43432486057281494
1789022118785196500,0.220196533203125,0.04276053607463837,0.17226386070251465,0.3488037884235382
1789022118795121400,0.230121337890625,0.02932151034474373,0.21685700118541718,0.21991132199764252
1789022118805046300,0.24004638671875,-0.028099779039621353,0.20158538222312927,0.0769689604640007
1789022118814971100,0.24997119140625,-0.1178968995809555,0.03543015569448471,-0.043982263654470444
1789022118824896000,0.25989599609375,-0.18387030065059662,-0.16187916696071625,-0.12705987691879272
1789022118834820900,0.26982080078125,-0.20219624042510986,-0.25045454502105713,-0.18875721096992493
1789022118844746000,0.27974609375,-0.18203771114349365,-0.3023780584335327,-0.24556763470172882
1789022118854670600,0.289670654296875,-0.12156209349632263,-0.3744601011276245,-0.3237583339214325
1789022118864595500,0.299595458984375,-0.004886918235570192,-0.45020735263824463,-0.42455101013183594
1789022118874520300,0.309520263671875,0.1649334877729416,-0.5082395076751709,-0.5222893953323364
1789022118884445400,0.319445556640625,0.29077163338661194,-0.5320632457733154,-0.627968966960907
1789022118894370300,0.329370361328125,0.3280344009399414,-0.6096430420875549,-0.6957749724388123
1789022118904295200,0.339295166015625,0.33108872175216675,-0.6957749724388123,-0.7104357481002808
1789022118914220000,0.349219970703125,0.46914416551589966,-0.9804379940032959,-0.6798924803733826
1789022118924145000,0.359144775390625,0.8161153197288513,-1.2064579725265503,-0.6261364221572876
1789022118934069800,0.36906982421875,0.9902117848396301,-0.9847140312194824,-0.4734202027320862
1789022118943994600,0.37899462890625,1.081230640411377,-0.9083559513092041,-0.2822195291519165
1789022118953919500,0.38891943359375,1.138651967048645,-0.8796452879905701,-0.012217295356094837
1789022118963844400,0.39884423828125,1.193018913269043,-0.8552106618881226,0.347582072019577
1789022118973769200,0.408769287109375,1.2089014053344727,-0.7513636946678162,0.749531090259552
1789022118983694000,0.418694091796875,1.125823736190796,-0.6591231226921082,1.1087195873260498
1789022118993619200,0.428619140625,0.9224058389663696,-0.6902772188186646,1.3976585865020752
1789022119003544000,0.4385439453125,0.5705476999282837,-0.8002328872680664,1.6077960729599
1789022119013469000,0.448468994140625,0.0616973415017128,-0.7922916412353516,1.6786564588546753
1789022119023393800,0.458393798828125,-0.3634645342826843,-0.637742817401886,1.6102395057678223
1789022119033318700,0.468318603515625,-0.44409868121147156,-0.4569268524646759,1.4886775016784668
1789022119043243500,0.478243408203125,-0.28038692474365234,-0.14172062277793884,1.32985258102417
1789022119053168400,0.48816845703125,-0.15760311484336853,0.26511532068252563,1.063515543937683
1789022119063093200,0.49809326171875,-0.1997527778148651,0.5131264328956604,0.711046576499939
1789022119073018400,0.508018310546875,-0.31031930446624756,0.6328558921813965,0.36774060130119324
1789022119082943200,0.517943115234375,-0.389120876789093,0.676227331161499,0.0977383628487587
1789022119092868000,0.5278681640625,-0.37751442193984985,0.6517927050590515,-0.10323614627122879
1789022119102793000,0.53779296875,-0.2987128794193268,0.5754346251487732,-0.22724169492721558
1789022119112717800,0.5477177734375,-0.22174391150474548,0.574212908744812,-0.22846342623233795
1789022119122642700,0.557642578125,-0.1893680840730667,0.565049946308136,-0.11911863088607788
1789022119132567600,0.567567626953125,-0.18692462146282196,0.472198486328125,0.0616973415017128
1789022119142492400,0.577492431640625,-0.17837251722812653,0.3426951467990875,0.22785256803035736
1789022119152417300,0.587417236328125,-0.21991132199764252,0.17653992772102356,0.32192572951316833
1789022119162342100,0.597342041015625,-0.3439168632030487,-0.043371398001909256,0.3909534513950348
1789022119172267000,0.60726708984375,-0.472198486328125,-0.28527384996414185,0.45326167345046997
1789022119182192000,0.617192138671875,-0.6151408553123474,-0.3341430425643921,0.49052441120147705
1789022119192117000,0.627116943359375,-0.7605266571044922,-0.3133736252784729,0.5345066785812378
1789022119202041900,0.637041748046875,-0.896138608455658,-0.34208428859710693,0.5534434914588928
1789022119211966700,0.646966796875,-0.9908226728439331,-0.3995055556297302,0.5271763205528259
1789022119221891600,0.6568916015625,-1.0262528657913208,-0.38850998878479004,0.4819723069667816
1789022119231816400,0.66681640625,-0.9804379940032959,-0.370184063911438,0.42821621894836426
1789022119241741300,0.6767412109375,-0.8460476994514465,-0.4007273018360138,0.3225366175174713
1789022119251666200,0.686666259765625,-0.544891357421875,-0.31459537148475647,0.17776164412498474
1789022119261591300,0.69659130859375,-0.04581485688686371,-0.21441353857517242,-0.03237583488225937
1789022119271516200,0.70651611328125,0.3659079968929291,-0.21135921776294708,-0.27427828311920166
1789022119281441000,0.71644091796875,0.4618137776851654,-0.23273947834968567,-0.44470956921577454
1789022119291366000,0.726365966796875,0.4153880476951599,-0.2669478952884674,-0.5112938284873962
1789022119301290800,0.736290771484375,0.36163195967674255,-0.36651885509490967,-0.5400044918060303
1789022119311215600,0.746215576171875,0.31581708788871765,-0.535728394985199,-0.6004800796508789
1789022119321140700,0.756140625,0.24862197041511536,-0.749531090259552,-0.7312051653862
1789022119331065600,0.766065673828125,0.18692462146282196,-0.9456186890602112,-0.8790343999862671
1789022119340990500,0.775990478515625,0.17653992772102356,-1.0115920305252075,-0.9382883310317993
1789022119350915300,0.785915283203125,0.22235478460788727,-0.8698714375495911,-0.8491020202636719
1789022119360840200,0.795840087890625,0.277332603931427,-0.5595521330833435,-0.6023126840591431
1789022119370765000,0.80576513671875,0.2571740746498108,-0.5534434914588928,-0.3402516841888428
1789022119380690000,0.81568994140625,0.1337793916463852,-0.7226530313491821,-0.06841685622930527
1789022119390615000,0.825614990234375,-0.006108647678047419,-0.7867938280105591,0.2309068888425827
1789022119400540000,0.835539794921875,-0.0824667438864708,-0.6847794055938721,0.47952884435653687
1789022119410464800,0.84546484375,-0.11667517572641373,-0.665842592716217,0.6126973628997803
1789022119420389600,0.8553896484375,-0.18081597983837128,-0.6542361974716187,0.7238747477531433
1789022119430314500,0.865314453125,-0.21502439677715302,-0.7031053900718689,0.8912517428398132
1789022119440239400,0.8752392578125,-0.14721840620040894,-0.8240565657615662,1.053130865097046
1789022119450164200,0.885164306640625,-0.003665188793092966,-0.9523382186889648,1.1795798540115356
1789022119460089000,0.895089111328125,0.10018182545900345,-1.0757328271865845,1.3188570737838745
1789022119470014200,0.90501416015625,0.1288924664258957,-1.2131774425506592,1.380554437637329
1789022119479939000,0.91493896484375,0.185092031955719,-1.3408482074737549,1.2760965824127197
1789022119489864000,0.924864013671875,0.3231474757194519,-1.507614254951477,1.0403027534484863
1789022119499788800,0.934788818359375,0.39217519760131836,-1.6334524154663086,0.833219587802887
1789022119509713700,0.944713623046875,0.3249800503253937,-1.6975932121276855,0.7281508445739746
1789022119519638800,0.954638671875,0.21502439677715302,-1.6927063465118408,0.6963858604431152
1789022119529563600,0.964563720703125,0.18387030065059662,-1.5766420364379883,0.7031053900718689
1789022119539488500,0.974488525390625,0.18814635276794434,-1.3420698642730713,0.6713404059410095
1789022119549413400,0.984413330078125,0.143553227186203,-1.0586286783218384,0.6035344004631042
1789022119559338200,0.994338134765625,0.10140355676412582,-0.8216131329536438,0.48930269479751587
1789022119569263400,1.004263427734375,0.07391463965177536,-0.6585122346878052,0.32009315490722656
1789022119579188200,1.014188232421875,0.0513126403093338,-0.5235111117362976,0.15821397304534912
1789022119589113000,1.024113037109375,0.03543015569448471,-0.471587598323822,0.04886918142437935
1789022119599038000,1.034037841796875,0.020158538594841957,-0.574212908744812,0.037262752652168274
1789022119608962800,1.043962890625,0.001832594396546483,-0.7599157691001892,0.17715078592300415
1789022119618887700,1.0538876953125,0.002443459117785096,-0.9511164426803589,0.40744680166244507
1789022119628812800,1.063812744140625,0.10995566099882126,-1.084285020828247,0.6450732350349426
1789022119638737700,1.073737548828125,0.3494146466255188,-1.1698060035705566,0.8717040419578552
1789022119648662500,1.08366259765625,0.7312051653862,-1.377500057220459,1.0225876569747925
1789022119658587400,1.09358740234375,0.9126319885253906,-1.5552617311477661,0.9376774430274963
1789022119668512300,1.10351220703125,0.8698714375495911,-1.833205223083496,0.7727439403533936
1789022119678437000,1.11343701171875,0.7867938280105591,-2.084881544113159,0.5907062292098999
1789022119688362200,1.1233623046875,0.7648026943206787,-2.276693105697632,0.5076286196708679
1789022119698287000,1.133287109375,0.8527672290802002,-2.461785078048706,0.5510000586509705
1789022119708212000,1.1432119140625,1.0140355825424194,-2.758054494857788,0.6579013466835022
1789022119718136800,1.15313671875,1.221118688583374,-3.254687547683716,0.758083164691925
1789022119728061700,1.163061767578125,1.4734058380126953,-3.8270678520202637,0.8100066781044006
1789022119737986800,1.17298681640625,1.68354332447052,-4.445873737335205,0.8539889454841614
1789022119747911700,1.18291162109375,1.7104213237762451,-5.0310821533203125,0.9132428169250488
1789022119757836500,1.19283642578125,1.50028395652771,-5.615679740905762,0.9498947262763977
1789022119767761400,1.202761474609375,1.2192860841751099,-6.1569061279296875,0.9608902931213379
1789022119777686300,1.212686279296875,1.1349867582321167,-6.627272129058838,0.9505056142807007
1789022119787611400,1.222611328125,1.2980875968933105,-6.935147762298584,0.8741474747657776
1789022119797536300,1.232536376953125,1.6053526401519775,-6.987071514129639,0.6939423680305481
1789022119807461000,1.242461181640625,1.9645410776138306,-6.853291988372803,0.39400777220726013
1789022119817386000,1.252385986328125,2.249204158782959,-6.703629970550537,0.014049889519810677
1789022119827310800,1.262310791015625,2.5436408519744873,-6.575959205627441,-0.4068359434604645
1789022119837236000,1.272236083984375,2.9859070777893066,-6.536252975463867,-0.831997811794281
1789022119847160800,1.282160888671875,3.400073289871216,-6.403084754943848,-1.2968659400939941
1789022119857085700,1.292085693359375,3.729940414428711,-6.257699012756348,-1.646891474723816
1789022119867010800,1.3020107421875,3.6022696495056152,-5.888736248016357,-1.53510320186615
1789022119876935700,1.311935791015625,2.9962916374206543,-5.438529014587402,-1.2510510683059692
1789022119886860500,1.321860595703125,2.4410157203674316,-4.7122111320495605,-0.9651663303375244
1789022119896785400,1.331785400390625,2.3964226245880127,-4.108676433563232,-0.7806851863861084
1789022119906710500,1.34171044921875,2.548527956008911,-3.44283390045166,-0.6878337264060974
1789022119916635400,1.351635498046875,2.740339517593384,-2.6670355796813965,-0.56382817029953
1789022119926560300,1.361560302734375,3.0280566215515137,-1.9645410776138306,-0.48075059056282043
1789022119936485000,1.371485107421875,3.392742872238159,-1.296255111694336,-0.45326167345046997
1789022119946410200,1.38141015625,3.693288564682007,-0.5503891706466675,-0.4459312856197357
1789022119956335000,1.391335205078125,3.855778455734253,0.20830489695072174,-0.4459312856197357
1789022119966260000,1.401260009765625,3.9217519760131836,0.7525854110717773,-0.43432486057281494
1789022119976184800,1.411184814453125,3.911978006362915,1.1557561159133911,-0.3127627670764923
1789022119986109700,1.421109619140625,3.836841583251953,1.3542872667312622,-0.10445787757635117
1789022119996034800,1.431034912109375,3.750098943710327,1.3304635286331177,0.16249002516269684
1789022120005959700,1.440959716796875,3.61021089553833,1.1814124584197998,0.4563159942626953
1789022120015884500,1.450884521484375,3.4275622367858887,0.9615011811256409,0.7855721116065979
1789022120025809400,1.460809326171875,3.2449138164520264,0.6676751971244812,1.1221586465835571
1789022120035734300,1.470734375,3.0476043224334717,0.3390299379825592,1.4465278387069702
1789022120045659400,1.480659423828125,2.827692985534668,0.1081230640411377,1.746462345123291
1789022120055584300,1.490584228515625,2.578460216522217,-0.040317077189683914,1.9126176834106445
1789022120065509000,1.500509033203125,2.3182318210601807,-0.12950333952903748,1.905898094177246
1789022120075434200,1.510434326171875,2.062279462814331,-0.1178968995809555,1.7910555601119995
1789022120085359000,1.520359130859375,1.8283182382583618,-0.01282816007733345,1.635895848274231
1789022120095284000,1.530283935546875,1.6310089826583862,0.14599667489528656,1.4898991584777832
1789022120105209000,1.540208984375,1.4410300254821777,0.3390299379825592,1.4001020193099976
1789022120115134000,1.550134033203125,1.2424989938735962,0.5986474752426147,1.351232886314392
1789022120125058800,1.560058837890625,1.0305289030075073,0.8399390578269958,1.2693769931793213
1789022120134983700,1.569983642578125,0.7776308655738831,0.9492838382720947,1.138651967048645
1789022120144908500,1.579908447265625,0.48441576957702637,0.9834923148155212,1.0067051649093628
1789022120154833700,1.589833740234375,0.18264856934547424,0.9993748068809509,0.9144645929336548
1789022120164758500,1.599758544921875,-0.06108647957444191,1.0311397314071655,0.9169080257415771
1789022120174683400,1.609683349609375,-0.24434591829776764,1.0189224481582642,1.0030399560928345
1789022120184608300,1.619608154296875,-0.3738492429256439,0.9474512934684753,1.1624757051467896
1789022120194533400,1.629533447265625,-0.4581485986709595,0.767857015132904,1.3194679021835327
1789022120204458200,1.639458251953125,-0.48930269479751587,0.2528980076313019,1.2455532550811768
1789022120214383400,1.64938330078125,-0.4630354940891266,-0.2657261788845062,0.9065233469009399
1789022120224308000,1.659307861328125,-0.33597561717033386,-0.5430588126182556,0.6438514590263367
1789022120234233000,1.669233154296875,-0.2938259541988373,-0.7764091491699219,0.4355465769767761
1789022120286198000,1.721197998046875,-0.38728827238082886,1.1948515176773071,0.06352993845939636
1789022120296123000,1.731122802734375,-0.3787361681461334,1.527161955833435,0.94439697265625
1789022120306048000,1.741048095703125,-0.35063639283180237,0.06719512492418289,0.7367029190063477
1789022120315972900,1.750972900390625,-0.39828383922576904,-1.3671153783798218,-0.03543015569448471
1789022120325897700,1.760897705078125,-0.5277871489524841,-2.35305118560791,-0.15515965223312378
1789022120335822800,1.77082275390625,-0.6780598759651184,-2.8038692474365234,0.030543239787220955
1789022120345747700,1.780747802734375,-0.7415898442268372,-2.6279401779174805,0.43493571877479553
1789022120355672600,1.790672607421875,-0.711046576499939,-2.5827362537384033,0.6646208763122559
1789022120365597700,1.80059765625,-0.5400044918060303,-2.863734006881714,-0.020769402384757996
1789022120375522600,1.8105224609375,-0.5693259835243225,-2.6621487140655518,-0.06841685622930527
1789022120385447400,1.820447509765625,-0.4874700903892517,-2.550971269607544,0.04276053607463837
1789022120395372500,1.83037255859375,-0.4618137776851654,-2.218660831451416,0.0818558782339096
1789022120405297400,1.84029736328125,-0.5351175665855408,-1.821598768234253,-0.2406807243824005
1789022120415222300,1.85022216796875,-0.8429933786392212,-1.5442661046981812,-1.0115920305252075
1789022120425147100,1.860147216796875,-0.9492838382720947,-1.802051067352295,-1.3304635286331177
1789022120435072300,1.870072265625,-0.4972439408302307,-2.302960157394409,-0.41416633129119873
1789022120444997000,1.8799970703125,-0.11972949653863907,-1.9132285118103027,0.004886918235570192
1789022120454922000,1.889921875,-0.19425499439239502,-2.2479825019836426,0.17348559200763702
1789022120464847000,1.89984716796875,0.010995565913617611,-1.099556565284729,-0.3958403766155243
1789022120474772000,1.90977197265625,0.14660754799842834,-0.18325942754745483,-0.6059778332710266
1789022120484696800,1.91969677734375,0.18814635276794434,-0.16737695038318634,-0.5998691916465759
1789022120494622000,1.9296220703125,0.11606431007385254,-0.35185810923576355,-0.5766563415527344
1789022120504546800,1.939546875,0.10751219838857651,-0.22479823231697083,-0.6230821013450623
1789022120514471700,1.9494716796875,0.2577849328517914,-0.0513126403093338,-0.5888736248016357
1789022120524396800,1.959396728515625,0.7745765447616577,0.04886918142437935,-0.5693259835243225
1789022120534321700,1.96932177734375,1.452636480331421,0.1380554437637329,-0.5766563415527344
1789022120544246500,1.97924658203125,2.2174391746520996,0.34697118401527405,-0.637742817401886
1789022120554171600,1.989171630859375,3.034776210784912,0.657290518283844,-0.5974257588386536
1789022120564096500,1.999096435546875,3.775144338607788,1.0177006721496582,-0.41783151030540466
1789022120574021400,2.009021484375,4.317592144012451,1.4172062873840332,-0.20280711352825165
1789022120583946500,2.018946533203125,4.745197772979736,1.7947207689285278,-0.22235478460788727
1789022120593871400,2.028871337890625,4.971217632293701,1.8423681259155273,-0.09162971377372742
1789022120603796200,2.038796142578125,3.881434917449951,1.841146469116211,0.2516762912273407
1789022120613721300,2.048721435546875,1.665217399597168,1.831372618675232,0.38728827238082886
1789022120623646200,2.058646240234375,1.1068869829177856,1.5662572383880615,-0.04520399495959282
1789022120633571000,2.068571044921875,1.5674790143966675,1.313359260559082,-0.3481929302215576
1789022120643496200,2.07849609375,1.8081597089767456,1.3842196464538574,-0.5815432667732239
1789022120653421000,2.088421142578125,1.9376630783081055,1.6701042652130127,-0.7281508445739746
1789022120663346000,2.098345947265625,1.9816453456878662,1.7299690246582031,-0.80389803647995
1789022120673270800,2.108270751953125,1.868024468421936,1.6420044898986816,-0.7476984858512878
1789022120683196000,2.11819580078125,1.7189735174179077,1.3304635286331177,-0.5900954008102417
1789022120693120800,2.128120849609375,1.459966778755188,0.5852084755897522,-0.4324922561645508
1789022120703045600,2.138045654296875,1.0934479236602783,-0.3481929302215576,-0.2822195291519165
1789022120712970800,2.147970703125,0.8124501705169678,-0.9615011811256409,-0.23823726177215576
1789022120722895600,2.1578955078125,0.49602219462394714,-1.4367539882659912,-0.33108872175216675
1789022120732820500,2.167820556640625,0.21258094906806946,-2.067166328430176,-0.4923570156097412
1789022120742745600,2.17774560546875,-0.028099779039621353,-2.682918071746826,-0.7428115606307983
1789022120752670500,2.18767041015625,-0.2260199636220932,-3.031111001968384,-0.9187406301498413
1789022120762595300,2.19759521484375,-0.2516762912273407,-2.7122395038604736,-0.6328558921813965
1789022120772520400,2.2075205078125,-0.1637117564678192,-1.7788382768630981,-0.19669845700263977
1789022120782444800,2.21744482421875,-0.2626718580722809,-1.0555742979049683,-0.17837251722812653
1789022120792370000,2.227369873046875,-0.15271618962287903,-0.8381064534187317,-0.1441640853881836
1789022120802295000,2.237294921875,-0.08063415437936783,-1.3744457960128784,0.14049890637397766
1789022120812220000,2.247219970703125,-0.17837251722812653,-1.2400555610656738,0.3738492429256439
1789022120822145000,2.25714501953125,-0.0720820426940918,-0.42394015192985535,0.3958403766155243
1789022120832070000,2.26706982421875,-0.09407317638397217,-0.1539379209280014,0.4166097939014435
1789022120841995000,2.2769951171875,-0.2809978127479553,-0.09651663154363632,0.3543015718460083
1789022120851920000,2.286919921875,-0.5119046568870544,0.1649334877729416,0.20891575515270233
1789022120861845000,2.296844970703125,-0.750141978263855,0.38728827238082886,0.05742128938436508
1789022120871769900,2.306769775390625,-0.9138537049293518,0.32131487131118774,-0.02932151034474373
1789022120881695000,2.316695068359375,-0.8295543789863586,-0.004886918235570192,-0.05253437161445618
1789022120891619800,2.326619873046875,-0.41294458508491516,-0.25534147024154663,-0.09896009415388107
1789022120901544700,2.336544677734375,0.24434591829776764,-0.12095122784376144,-0.22235478460788727
1789022120911469800,2.3464697265625,0.9908226728439331,0.2565632164478302,-0.1539379209280014
1789022120921394700,2.356394775390625,1.6090178489685059,0.6524035930633545,0.008552107028663158
1789022120931319600,2.366319580078125,2.160017967224121,1.119104266166687,0.27488914132118225
1789022120941244700,2.37624462890625,2.4092507362365723,1.3854413032531738,0.7098248600959778
1789022120951169500,2.38616943359375,2.2785255908966064,1.5430444478988647,1.1337649822235107
1789022120961094400,2.396094482421875,2.0109667778015137,1.5992439985275269,1.4147628545761108
1789022120971019500,2.40601953125,1.692095398902893,1.655443549156189,1.497840404510498
1789022120980944400,2.4159443359375,1.352454662322998,1.545487880706787,1.4404191970825195
1789022120990869000,2.425868896484375,0.9908226728439331,1.0653481483459473,1.3060288429260254
1789022121000793600,2.435793701171875,0.8307760953903198,0.5729911923408508,1.1252129077911377
1789022121010718200,2.44571826171875,0.6829468011856079,0.02932151034474373,0.8674280047416687
1789022121020642800,2.455642822265625,0.41294458508491516,-0.6927206516265869,0.5619956254959106
1789022121030567400,2.4655673828125,0.277332603931427,-1.071456789970398,0.5473348498344421
1789022121040491800,2.47549169921875,0.09285144507884979,-1.7287473678588867,0.3909534513950348
1789022121050416400,2.48541650390625,-0.25534147024154663,-2.327394723892212,0.03787361457943916
1789022121060341000,2.495341064453125,-0.768467903137207,-2.9834635257720947,-0.411722868680954
1789022121070265600,2.505265625,-1.314581036567688,-3.579667568206787,-0.7696896195411682
1789022121080190200,2.515190185546875,-1.431867003440857,-3.911978006362915,-0.8857539296150208
1789022121090115600,2.525115478515625,-1.8655810356140137,-4.353022575378418,-0.8747583627700806
1789022121100041000,2.535041015625,-2.4911065101623535,-4.206414699554443,-0.31520622968673706
1789022121109966300,2.54496630859375,-2.478889226913452,-3.760483503341675,-0.23212862014770508
1789022121119891700,2.5548916015625,-2.2088871002197266,-2.6975789070129395,-0.4373791813850403
1789022121129817000,2.564817138671875,-1.8069380521774292,-1.588248372077942,-0.7623592615127563
1789022121139742500,2.574742431640625,-1.3292417526245117,-0.9395100474357605,-1.0946696996688843
1789022121149667800,2.584667724609375,-0.924849271774292,-0.3225366175174713,-1.3976585865020752
1789022121159593200,2.59459326171875,-0.9810488224029541,0.360410213470459,-1.7812817096710205
1789022121169518600,2.6045185546875,-1.5442661046981812,1.0494656562805176,-2.1917827129364014
1789022121179444000,2.61444384765625,-2.3151774406433105,1.2229512929916382,-2.1502439975738525
1789022121189368800,2.624368896484375,-2.724457025527954,0.8698714375495911,-1.3194679021835327
1789022121199293700,2.634293701171875,-2.218660831451416,0.47525280714035034,-0.7367029190063477
1789022121209218800,2.64421875,-1.1716386079788208,0.45448338985443115,-0.37262752652168274
1789022121219143700,2.654143798828125,-0.7330377101898193,0.36163195967674255,-0.08429934084415436
1789022121229068500,2.664068603515625,-0.5900954008102417,0.4740310609340668,0.05253437161445618
1789022121238993700,2.67399365234375,-0.4471530318260193,0.4886918365955353,0.06108647957444191
1789022121248918500,2.68391845703125,-0.2614501118659973,0.4422661066055298,0.03298669680953026
1789022121258843400,2.693843505859375,-0.11606431007385254,0.22235478460788727,0.04886918142437935
1789022121268768500,2.7037685546875,0.013439024798572063,0.17837251722812653,0.034208428114652634
1789022121278693400,2.713693359375,0.1905898153781891,0.21135921776294708,-0.14172062277793884
1789022121288618200,2.7236181640625,0.09040798991918564,0.5155698657035828,-0.19425499439239502
1789022121298543400,2.73354345703125,-0.09529490768909454,0.6328558921813965,-0.29565855860710144
1789022121308468500,2.743468505859375,-0.17715078592300415,0.8344413042068481,-0.4361574649810791
1789022121318393300,2.753393310546875,-0.09040798991918564,1.0372483730316162,-0.4764745235443115
1789022121328318500,2.763318359375,-0.06719512492418289,0.9737184643745422,-0.30054548382759094
1789022121338243300,2.773243408203125,0.036651886999607086,0.6695078015327454,-0.07452550530433655
1789022121348168400,2.78316845703125,0.21380266547203064,0.14660754799842834,0.11972949653863907
1789022121358093300,2.79309326171875,0.3640754222869873,-0.40317076444625854,0.25534147024154663
1789022121368018400,2.803018310546875,0.4202749729156494,-0.44959646463394165,0.35674503445625305
1789022121377943300,2.812943359375,0.5009090900421143,-0.6218603253364563,0.4056142270565033
1789022121387868400,2.822868408203125,0.5876519083976746,-0.80389803647995,0.36285367608070374
1789022121397793300,2.832793212890625,0.7867938280105591,-0.9187406301498413,0.37140578031539917
1789022121407718400,2.842718505859375,1.1166608333587646,-1.0470222234725952,0.43371400237083435
1789022121417643300,2.852643310546875,1.5784746408462524,-1.0567960739135742,0.544891357421875
1789022121427568400,2.862568359375,2.017075538635254,-0.94439697265625,0.5668824911117554
1789022121437493200,2.8724931640625,2.127031087875366,-0.7037162184715271,0.39828383922576904
1789022121447418400,2.88241845703125,1.5613703727722168,-0.17348559200763702,0.10873392969369888
1789022121457343200,2.89234326171875,0.6438514590263367,0.25411975383758545,0.07941242307424545
1789022121467268400,2.902268310546875,0.0977383628487587,0.5412262082099915,0.07819069176912308
1789022121477193500,2.912193359375,0.09896009415388107,0.5656607747077942,-0.04520399495959282
1789022121487117800,2.922117919921875,0.8161153197288513,0.6780598759651184,-0.31031930446624756
1789022121497042400,2.93204248046875,1.8521419763565063,1.6310089826583862,-0.35063639283180237
1789022121506967000,2.941967041015625,2.2430953979492188,2.722013473510742,-0.3017672002315521
1789022121516891600,2.9518916015625,1.8631376028060913,2.941924810409546,-0.4776962697505951
1789022121526816300,2.961816162109375,1.117882490158081,2.802647590637207,-0.5021308660507202
1789022121536740900,2.971740966796875,-0.028099779039621353,2.0500621795654297,-0.6609556674957275
1789022121546665500,2.98166552734375,-1.6224569082260132,1.442862629890442,-1.7091996669769287
1789022121556590000,2.991590087890625,-1.9523237943649292,2.587623119354248,-2.6364924907684326
1789022121566514700,3.0015146484375,0.6328558921813965,4.450760841369629,-1.9608759880065918
1789022121576439300,3.011439208984375,1.1520910263061523,6.410415172576904,-0.4508182108402252
1789022121586364700,3.02136474609375,0.675616443157196,4.998095512390137,-0.07330377399921417
1789022121596289800,3.031289794921875,0.13561198115348816,1.9315544366836548,-0.8503237962722778
1789022121606215200,3.041215087890625,0.9969313144683838,-1.2180644273757935,-1.0763437747955322
1789022121616140500,3.051140625,1.7727296352386475,-2.0329580307006836,-1.2351685762405396
1789022121626066000,3.06106591796875,1.266933560371399,-1.0763437747955322,-0.740368127822876
1789022121635991300,3.0709912109375,0.5595521330833435,-0.5424479246139526,-0.2883281707763672
1789022121645916700,3.080916748046875,-0.034208428114652634,-0.3799578845500946,0.036651886999607086
1789022121655842000,3.090842041015625,-0.318871408700943,-0.20402882993221283,0.3335321843624115
1789022121665767400,3.100767333984375,-0.43371400237083435,0.043982263654470444,0.4520399272441864
1789022121675692800,3.11069287109375,-0.5351175665855408,0.3335321843624115,0.3946186602115631
1789022121685618000,3.120617919921875,-0.6560688018798828,0.564439058303833,0.2834412455558777
1789022121695542800,3.130542724609375,-0.8197805285453796,0.7318159937858582,0.19914191961288452
1789022121705468000,3.140468017578125,-0.9541707634925842,0.9395100474357605,0.21502439677715302
1789022121715392800,3.150392822265625,-1.0164790153503418,1.2302817106246948,0.27366742491722107
1789022121725318000,3.16031787109375,-1.033583164215088,1.323133111000061,0.22724169492721558
1789022121735242800,3.17024267578125,-1.0519092082977295,1.2034035921096802,0.09040798991918564
1789022121745168000,3.18016796875,-1.08978271484375,1.0054833889007568,-0.03543015569448471
1789022121755092700,3.1900927734375,-1.0311397314071655,0.8955277800559998,-0.043982263654470444
1789022121765017900,3.200017822265625,-0.8784235715866089,0.8857539296150208,-0.056199558079242706
1789022121774942700,3.209942626953125,-0.6316341757774353,0.9407317638397217,-0.13683371245861053
1789022121784867800,3.219867919921875,-0.5009090900421143,0.8491020202636719,-0.03298669680953026
1789022121794793000,3.22979296875,-0.28954991698265076,0.5656607747077942,0.07086031138896942
1789022121804717800,3.2397177734375,-0.20158538222312927,0.4056142270565033,-0.002443459117785096
1789022121814643000,3.249642822265625,-0.14538581669330597,0.328645259141922,-0.2968802750110626
1789022121824567800,3.25956787109375,-0.04153880476951599,0.05864302068948746,-0.6096430420875549
1789022121834493000,3.269492919921875,-0.06963858753442764,-0.12461641430854797,-0.8258891701698303
1789022121844417800,3.279417724609375,-0.277332603931427,0.06475166976451874,-0.9175189137458801
1789022121854343000,3.289343017578125,-0.3909534513950348,0.3347539007663727,-0.8881973624229431
1789022121864267800,3.299267822265625,-0.4825831651687622,0.5033525824546814,-0.750141978263855
1789022121874193000,3.30919287109375,-0.6059778332710266,0.5974257588386536,-0.4410443603992462
1789022121884117800,3.31911767578125,-0.7342594861984253,0.46914416551589966,-0.328645259141922
1789022121894043000,3.32904296875,-0.7098248600959778,-0.024434590712189674,-0.5033525824546814
1789022121903967700,3.3389677734375,-0.627968966960907,-0.5571087002754211,-0.657290518283844
1789022121913892900,3.348892822265625,-0.5876519083976746,-0.7916807532310486,-0.7452550530433655
1789022121923817700,3.358817626953125,-0.6206386089324951,-0.9639446139335632,-0.7953459620475769
1789022121933742800,3.368742919921875,-0.7244856357574463,-0.9834923148155212,-0.8576541543006897
1789022121943667700,3.378667724609375,-0.7757982611656189,-0.7134900689125061,-0.8466585874557495
1789022121953592800,3.3885927734375,-0.8393282294273376,-0.19792018830776215,-0.7293725609779358
1789022121963518000,3.39851806640625,-0.9908226728439331,0.17715078592300415,-0.6401863098144531
1789022121973442800,3.40844287109375,-1.196073293685913,0.32009315490722656,-0.6462949514389038
1789022121983367400,3.418367431640625,-1.3292417526245117,0.26878049969673157,-0.6560688018798828
1789022121993292000,3.4282919921875,-1.361006736755371,0.10751219838857651,-0.6169734001159668
1789022122003216600,3.438216552734375,-1.286481261253357,-0.13072505593299866,-0.516791582107544
1789022122013141500,3.4481416015625,-1.2596031427383423,-0.4312705397605896,-0.43982264399528503
1789022122023066000,3.458066162109375,-1.3121376037597656,-0.778241753578186,-0.4508182108402252
1789022122032990700,3.46799072265625,-1.3072506189346313,-0.9663881063461304,-0.5314523577690125
1789022122042915300,3.477915283203125,-1.1911863088607788,-0.7733548283576965,-0.5839866995811462
1789022122052840000,3.48783984375,-1.0445787906646729,-0.2968802750110626,-0.516791582107544
1789022122062764500,3.4977646484375,-0.916297197341919,0.20402882993221283,-0.3494146466255188
1789022122072689200,3.507689208984375,-0.8271108865737915,0.4166097939014435,-0.15027274191379547
1789022122082613800,3.51761376953125,-0.7831286191940308,0.27366742491722107,-0.01588248461484909
1789022122092538400,3.527538330078125,-0.7232639193534851,0.006108647678047419,-0.01588248461484909
1789022122102463000,3.537462890625,-0.6047561168670654,-0.23823726177215576,-0.09285144507884979
1789022122112387800,3.547387939453125,-0.43371400237083435,-0.43004879355430603,-0.1233946830034256
1789022122122312400,3.5573125,-0.2675587832927704,-0.5216785073280334,-0.05742128938436508
1789022122132237000,3.567237060546875,-0.11606431007385254,-0.46914416551589966,0.018325943499803543
1789022122142161700,3.57716162109375,0,-0.3176496922969818,0.034208428114652634
1789022122152086300,3.587086181640625,0.15271618962287903,-0.17226386070251465,0.036651886999607086
1789022122162011000,3.597010986328125,0.2834412455558777,-0.12950333952903748,0.03787361457943916
1789022122171935500,3.606935546875,0.40805765986442566,-0.14660754799842834,0.010995565913617611
1789022122181860000,3.616860107421875,0.5436696410179138,-0.18081597983837128,-0.009773836471140385
1789022122191784700,3.62678466796875,0.6829468011856079,-0.15515965223312378,-0.010995565913617611
1789022122201709600,3.63670947265625,0.833219587802887,-0.024434590712189674,0.01588248461484909
1789022122211634200,3.64663427734375,1.0042617321014404,0.16126830875873566,0.07452550530433655
1789022122221558800,3.656558837890625,1.1740821599960327,0.26878049969673157,0.1490510106086731
1789022122231483400,3.6664833984375,1.323133111000061,0.24434591829776764,0.1844811588525772
1789022122241408000,3.676407958984375,1.4379756450653076,0.14538581669330597,0.17715078592300415
1789022122251332600,3.68633251953125,1.5296053886413574,0.05253437161445618,0.16615521907806396
1789022122261257200,3.69625732421875,1.6139047145843506,0.003665188793092966,0.16737695038318634
1789022122271181800,3.706181884765625,1.674991250038147,-0.001221729558892548,0.17837251722812653
1789022122281106400,3.7161064453125,1.731190800666809,0.036651886999607086,0.19303326308727264
1789022122291032800,3.72603271484375,1.7629557847976685,0.13561198115348816,0.19425499439239502
1789022122300959000,3.735958984375,1.7788382768630981,0.26511532068252563,0.19669845700263977
1789022122310885000,3.745885009765625,1.802051067352295,0.4251618981361389,0.2309068888425827
1789022122320811300,3.755811279296875,1.85092031955719,0.5571087002754211,0.27366742491722107
1789022122330737400,3.7657373046875,1.8924590349197388,0.6023126840591431,0.2675587832927704
1789022122340663800,3.775663818359375,1.935219645500183,0.6426297426223755,0.2663370370864868
1789022122350590000,3.78558984375,1.9645410776138306,0.6511818766593933,0.2932150959968567
1789022122360516000,3.79551611328125,1.9914191961288452,0.7037162184715271,0.31031930446624756
1789022122370442200,3.805442138671875,1.9682062864303589,0.7049379348754883,0.2883281707763672
1789022122380368600,3.81536865234375,1.8851287364959717,0.6328558921813965,0.277332603931427
1789022122390293500,3.82529345703125,1.8106032609939575,0.6316341757774353,0.2919933497905731
1789022122400218600,3.835218505859375,1.7360776662826538,0.6084213256835938,0.31520622968673706
1789022122410143500,3.8451435546875,1.6407828330993652,0.5302306413650513,0.3090975880622864
1789022122420068600,3.855068603515625,1.5833615064620972,0.5571087002754211,0.29077163338661194
1789022122429993500,3.864993408203125,1.5662572383880615,0.6633991599082947,0.3127627670764923
1789022122439918600,3.874918701171875,1.5430444478988647,0.7452550530433655,0.34697118401527405
1789022122449843500,3.884843505859375,1.5125012397766113,0.7415898442268372,0.3384190797805786
1789022122459768600,3.8947685546875,1.3964369297027588,0.6194168925285339,0.26511532068252563
1789022122469693400,3.904693359375,1.1936297416687012,0.3970620930194855,0.15027274191379547
1789022122479618600,3.91461865234375,1.0482439994812012,0.3433060050010681,0.11239911615848541
1789022122489543400,3.92454345703125,0.9590576887130737,0.31154105067253113,0.12095122784376144
1789022122499468500,3.934468505859375,0.8698714375495911,0.17592905461788177,0.11606431007385254
1789022122509393400,3.944393310546875,0.7696896195411682,0.04520399495959282,0.09651663154363632
1789022122519318500,3.954318603515625,0.6328558921813965,-0.10995566099882126,0.06230820715427399
1789022122529243400,3.964243408203125,0.5009090900421143,-0.18570289015769958,0.03543015569448471
1789022122539168500,3.97416845703125,0.3836230933666229,-0.18692462146282196,0.017104214057326317
1789022122549093600,3.98409375,0.235793799161911,-0.23823726177215576,-0.0256563201546669
1789022122559018500,3.9940185546875,0.09040798991918564,-0.25411975383758545,-0.06841685622930527
1789022122568943600,4.003943603515625,-0.009773836471140385,-0.3017672002315521,-0.11239911615848541
1789022122578868500,4.013868408203125,-0.0818558782339096,-0.3909534513950348,-0.15271618962287903
1789022122588793600,4.023793701171875,-0.13683371245861053,-0.5021308660507202,-0.19425499439239502
1789022122598718700,4.03371875,-0.1893680840730667,-0.6548470258712769,-0.2577849328517914
1789022122608643600,4.0436435546875,-0.24923282861709595,-0.7953459620475769,-0.33597561717033386
1789022122618568700,4.053568603515625,-0.3042106628417969,-0.8576541543006897,-0.4043924808502197
1789022122628493800,4.063493896484375,-0.34086254239082336,-0.7965676784515381,-0.43982264399528503
1789022122638419000,4.0734189453125,-0.3811796307563782,-0.5949822664260864,-0.4324922561645508
1789022122648343800,4.08334375,-0.44470956921577454,-0.3445277214050293,-0.4166097939014435
1789022122658269000,4.09326904296875,-0.544891357421875,-0.1026252806186676,-0.4251618981361389
1789022122668194000,4.103194091796875,-0.6719512343406677,0.11362084746360779,-0.41294458508491516
1789022122678119000,4.113118896484375,-0.7892373204231262,0.20769402384757996,-0.36285367608070374
1789022122688043800,4.123043701171875,-0.8637627959251404,0.15027274191379547,-0.3078758418560028
1789022122697968400,4.132968505859375,-0.8894191384315491,0.01954767294228077,-0.21746785938739777
1789022122707893000,4.14289306640625,-0.9126319885253906,-0.20280711352825165,-0.1233946830034256
1789022122717817900,4.15281787109375,-0.943175196647644,-0.4630354940891266,-0.06963858753442764
1789022122727742500,4.162742431640625,-0.9578359723091125,-0.647516667842865,-0.09651663154363632
1789022122737667000,4.1726669921875,-0.94439697265625,-0.6817250847816467,-0.14782927930355072
1789022122747592000,4.182592041015625,-0.9211840629577637,-0.6414080262184143,-0.1795942485332489
1789022122757516500,4.1925166015625,-0.9272927641868591,-0.5778780579566956,-0.18325942754745483
1789022122767441200,4.202441162109375,-1.0103703737258911,-0.5693259835243225,-0.1954767256975174
1789022122777366000,4.212365966796875,-1.1398736238479614,-0.5400044918060303,-0.23212862014770508
1789022122787291400,4.22229150390625,-1.2253947257995605,-0.4361574649810791,-0.2516762912273407
1789022122797216500,4.232216552734375,-1.2461642026901245,-0.2761108875274658,-0.2309068888425827
1789022122807142000,4.242141845703125,-1.2437206506729126,-0.1331685185432434,-0.17348559200763702
1789022122817067300,4.2520673828125,-1.2180644273757935,-0.09651663154363632,-0.11728604137897491
1789022122826992600,4.26199267578125,-1.2009601593017578,-0.10629047453403473,-0.1380554437637329
1789022122836918000,4.27191796875,-1.2058470249176025,-0.07819069176912308,-0.1637117564678192
1789022122846843400,4.281843505859375,-1.2315033674240112,0.004886918235570192,-0.12950333952903748
1789022122856768800,4.291768798828125,-1.2681553363800049,-0.009773836471140385,-0.1185077652335167
1789022122866694100,4.301694091796875,-1.3194679021835327,-0.21868959069252014,-0.26389357447624207
1789022122876619500,4.31161962890625,-1.3842196464538574,-0.5729911923408508,-0.5045742988586426
1789022122886544600,4.321544677734375,-1.4379756450653076,-0.8759800791740417,-0.6243038177490234
1789022122896469800,4.3314697265625,-1.4941751956939697,-0.9810488224029541,-0.5656607747077942
1789022122906394600,4.34139453125,-1.5577051639556885,-0.9065233469009399,-0.4202749729156494
1789022122916319700,4.35131982421875,-1.6114612817764282,-0.6743947267532349,-0.31520622968673706
1789022122926244900,4.361244873046875,-1.6701042652130127,-0.4361574649810791,-0.31642794609069824
1789022122936170000,4.371169921875,-1.7470732927322388,-0.42394015192985535,-0.38240134716033936
1789022122946094800,4.3810947265625,-1.7825034856796265,-0.6499601006507874,-0.4410443603992462
1789022122956020000,4.39102001953125,-1.7629557847976685,-0.8735366463661194,-0.39828383922576904
1789022122965945000,4.400945068359375,-1.6969823837280273,-0.9480621218681335,-0.27366742491722107
1789022122975870000,4.410869873046875,-1.5845832824707031,-0.8918625712394714,-0.13194678723812103
1789022122985795000,4.420795166015625,-1.459966778755188,-0.7611374855041504,-0.017104214057326317
1789022122995720200,4.43072021484375,-1.3182462453842163,-0.6524035930633545,0.036651886999607086
1789022123005645000,4.44064501953125,-1.1801908016204834,-0.5668824911117554,0.08918625861406326
1789022123015570200,4.450570068359375,-1.0262528657913208,-0.4508182108402252,0.15760311484336853
1789022123025495000,4.4604951171875,-0.831997811794281,-0.2932150959968567,0.18203771114349365
1789022123035420200,4.470420166015625,-0.6450732350349426,-0.17226386070251465,0.16126830875873566
1789022123045345000,4.480344970703125,-0.4972439408302307,-0.14538581669330597,0.17592905461788177
1789022123055270100,4.490270263671875,-0.3481929302215576,-0.05742128938436508,0.24801109731197357
1789022123065195000,4.500195068359375,-0.14782927930355072,0.07452550530433655,0.3139844834804535
1789022123075120000,4.5101201171875,0.07086031138896942,0.1637117564678192,0.35185810923576355
1789022123085045200,4.520045166015625,0.27488914132118225,0.21502439677715302,0.33597561717033386
1789022123094970000,4.52997021484375,0.44837474822998047,0.21502439677715302,0.3029889166355133
1789022123104895200,4.539895263671875,0.5962040424346924,0.2101374864578247,0.31154105067253113
1789022123114820400,4.5498203125,0.7391464114189148,0.26511532068252563,0.3433060050010681
1789022123124745200,4.5597451171875,0.8772017955780029,0.3298669755458832,0.36285367608070374
1789022123134670300,4.56967041015625,1.0054833889007568,0.34697118401527405,0.39339691400527954
1789022123144595500,4.579595458984375,1.1264346837997437,0.3396408259868622,0.4324922561645508
1789022123154520600,4.5895205078125,1.2363903522491455,0.3433060050010681,0.4630354940891266
1789022123164445400,4.599445556640625,1.323133111000061,0.40317076444625854,0.4569268524646759
1789022123174370600,4.60937060546875,1.4098758697509766,0.49602219462394714,0.4520399272441864
1789022123184295400,4.61929541015625,1.5039490461349487,0.5998691916465759,0.4667007029056549
1789022123194220000,4.629219970703125,1.5919135808944702,0.6963858604431152,0.4972439408302307
1789022123204145000,4.639144775390625,1.682321548461914,0.7806851863861084,0.5302306413650513
1789022123214069500,4.649069580078125,1.7250821590423584,0.7538071274757385,0.5119046568870544
1789022123223994400,4.658994384765625,1.760512351989746,0.685390293598175,0.5045742988586426
1789022123233919000,4.6689189453125,1.7996076345443726,0.6096430420875549,0.5510000586509705
1789022123243843800,4.67884375,1.859472393989563,0.6597339510917664,0.6047561168670654
1789022123253768400,4.6887685546875,1.896124243736267,0.7623592615127563,0.6084213256835938
1789022123263693300,4.698693359375,1.8936808109283447,0.8112284541130066,0.5485565662384033
1789022123273618000,4.708617919921875,1.8631376028060913,0.7183769941329956,0.4764745235443115
1789022123283543300,4.718543212890625,1.8277074098587036,0.6365211009979248,0.45448338985443115
1789022123293468700,4.72846875,1.8093814849853516,0.6267472505569458,0.43371400237083435
1789022123303394000,4.73839404296875,1.7739512920379639,0.6328558921813965,0.40805765986442566
1789022123313319400,4.7483193359375,1.7519601583480835,0.7220421433448792,0.44348782300949097
1789022123323244800,4.758244873046875,1.665217399597168,0.720820426940918,0.4422661066055298
1789022123333170200,4.768170166015625,1.535714030265808,0.6780598759651184,0.401949018239975
1789022123343095600,4.778095458984375,1.390328288078308,0.6450732350349426,0.36651885509490967
1789022123353021000,4.78802099609375,1.2205078601837158,0.5180133581161499,0.360410213470459
1789022123362946300,4.7979462890625,1.0091485977172852,0.3384190797805786,0.34086254239082336
1789022123372871700,4.80787158203125,0.8014546036720276,0.21991132199764252,0.3799578845500946
1789022123382796800,4.817796875,0.6988292932510376,0.20891575515270233,0.41294458508491516
1789022123392721700,4.8277216796875,0.6462949514389038,0.07452550530433655,0.30543237924575806
1789022123402646800,4.837646728515625,0.5619956254959106,-0.10751219838857651,0.20891575515270233
1789022123412572000,4.847572021484375,0.46914416551589966,-0.2211330533027649,0.17348559200763702
1789022123422497000,4.8574970703125,0.370184063911438,-0.34574946761131287,0.12583814561367035
1789022123432422000,4.867421875,0.29565855860710144,-0.43004879355430603,0.10140355676412582
1789022123442347000,4.877346923828125,0.25045454502105713,-0.4764745235443115,0.11117739230394363
1789022123452272000,4.887272216796875,0.235793799161911,-0.5216785073280334,0.13439024984836578
1789022123462197000,4.897197021484375,0.23823726177215576,-0.5827649831771851,0.1441640853881836
1789022123472122000,4.9071220703125,0.22724169492721558,-0.667064368724823,0.13927717506885529
1789022123482047000,4.917046875,0.19914191961288452,-0.7293725609779358,0.13194678723812103
1789022123491971800,4.926971923828125,0.1698204129934311,-0.7024945020675659,0.1441640853881836
1789022123501897000,4.93689697265625,0.12461641430854797,-0.665842592716217,0.1441640853881836
1789022123511822000,4.946822021484375,0.04886918142437935,-0.6206386089324951,0.12705987691879272
1789022123521747200,4.956747314453125,-0.043982263654470444,-0.5094612240791321,0.10629047453403473
1789022123531672000,4.966672119140625,-0.14294235408306122,-0.36651885509490967,0.09040798991918564
1789022123541597200,4.97659716796875,-0.24434591829776764,-0.22479823231697083,0.07941242307424545
1789022123551522300,4.986522216796875,-0.34574946761131287,-0.08429934084415436,0.08674279600381851
1789022123561447400,4.996447509765625,-0.4618137776851654,-0.017104214057326317,0.10751219838857651
1789022123571372300,5.006372314453125,-0.6035344004631042,-0.010995565913617611,0.12583814561367035
1789022123581297400,5.01629736328125,-0.740368127822876,0.059864748269319534,0.1331685185432434
1789022123591222500,5.026222412109375,-0.8381064534187317,0.2211330533027649,0.17837251722812653
1789022123601147600,5.036147705078125,-0.916297197341919,0.3029889166355133,0.22846342623233795
1789022123611072500,5.046072509765625,-0.9566142559051514,0.2260199636220932,0.21258094906806946
1789022123620997600,5.05599755859375,-0.9578359723091125,0.04153880476951599,0.1441640853881836
1789022123630922800,5.0659228515625,-0.9517273306846619,-0.1637117564678192,0.08063415437936783
1789022123640847600,5.07584765625,-0.9382883310317993,-0.2883281707763672,0.06475166976451874
1789022123650772700,5.085772705078125,-0.9395100474357605,-0.3445277214050293,0.05864302068948746
1789022123660697900,5.09569775390625,-0.9553925395011902,-0.3787361681461334,0.020769402384757996
1789022123670623000,5.105623046875,-0.9101884961128235,-0.42271843552589417,-0.04520399495959282
1789022123680547800,5.1155478515625,-0.8943060636520386,-0.5082395076751709,-0.10506874322891235
1789022123690472700,5.12547265625,-0.9700532555580139,-0.5473348498344421,-0.14172062277793884
1789022123700397300,5.135397216796875,-1.0800089836120605,-0.4825831651687622,-0.16004657745361328
1789022123710322200,5.145322265625,-1.1789690256118774,-0.3481929302215576,-0.1441640853881836
1789022123720246800,5.155246826171875,-1.2522728443145752,-0.24923282861709595,-0.11606431007385254
1789022123730171600,5.165171630859375,-1.2889246940612793,-0.17348559200763702,-0.08674279600381851
1789022123740096300,5.17509619140625,-1.2913681268692017,-0.11239911615848541,-0.04153880476951599
1789022123750021000,5.185021240234375,-1.2229512929916382,-0.018325943499803543,0
1789022123759946000,5.194946044921875,-1.0641264915466309,0.08552107214927673,-0.018325943499803543
1789022123769870600,5.20487060546875,-0.8943060636520386,0.12705987691879272,-0.06719512492418289
1789022123779795500,5.21479541015625,-0.7660244107246399,0.1331685185432434,-0.09407317638397217
1789022123789720600,5.224720458984375,-0.7611374855041504,0.09162971377372742,-0.1282816082239151
1789022123799646000,5.23464599609375,-0.8100066781044006,-0.06841685622930527,-0.19669845700263977
1789022123809571300,5.2445712890625,-0.8881973624229431,-0.2712239623069763,-0.27855435013771057
1789022123819496700,5.25449658203125,-0.9920443892478943,-0.43982264399528503,-0.34086254239082336
1789022123829422000,5.264422119140625,-1.117882490158081,-0.45448338985443115,-0.3335321843624115
1789022123839347500,5.274347412109375,-1.2608249187469482,-0.32131487131118774,-0.287106454372406
1789022123849272800,5.28427294921875,-1.380554437637329,-0.13194678723812103,-0.22235478460788727
1789022123859198200,5.2941982421875,-1.4294235706329346,0.06108647957444191,-0.12217295914888382
1789022123869123600,5.30412353515625,-1.4013237953186035,0.15638138353824615,-0.03909534588456154
1789022123879049000,5.314049072265625,-1.3536763191223145,0.11484257876873016,-0.03909534588456154
1789022123888974000,5.32397412109375,-1.313359260559082,-0.0256563201546669,-0.10384701192378998
1789022123898899200,5.333899169921875,-1.293811559677124,-0.22357651591300964,-0.20891575515270233
1789022123908824000,5.343823974609375,-1.2925899028778076,-0.3738492429256439,-0.2968802750110626
1789022123918749200,5.353749267578125,-1.275485634803772,-0.4422661066055298,-0.31642794609069824
1789022123928674300,5.36367431640625,-1.2302817106246948,-0.3836230933666229,-0.25900667905807495
1789022123938599200,5.37359912109375,-1.1606431007385254,-0.28954991698265076,-0.13439024984836578
1789022123948524300,5.383524169921875,-1.0751219987869263,-0.21258094906806946,-0.003665188793092966
1789022123958449400,5.393449462890625,-0.9773836731910706,-0.16615521907806396,0.07086031138896942
1789022123968374500,5.40337451171875,-0.8906408548355103,-0.1698204129934311,0.09651663154363632
1789022123978299400,5.41329931640625,-0.8026763200759888,-0.16126830875873566,0.09651663154363632
1789022123988224500,5.423224609375,-0.7098248600959778,-0.10140355676412582,0.12583814561367035
1789022123998149600,5.433149658203125,-0.6206386089324951,-0.05864302068948746,0.20647229254245758
1789022124008074800,5.44307470703125,-0.5204567909240723,-0.018325943499803543,0.26511532068252563
1789022124017999600,5.45299951171875,-0.40805765986442566,0.009773836471140385,0.2516762912273407
1789022124027924700,5.4629248046875,-0.2834412455558777,0.026878049597144127,0.20769402384757996
1789022124037849900,5.472849853515625,-0.14049890637397766,0.0513126403093338,0.19303326308727264
1789022124047775000,5.48277490234375,-0.009773836471140385,0.08429934084415436,0.20280711352825165
1789022124057699800,5.492699951171875,0.11728604137897491,0.15149445831775665,0.19303326308727264
1789022124067625000,5.502625,0.24556763470172882,0.23823726177215576,0.17837251722812653
1789022124077550000,5.512550048828125,0.3652971386909485,0.3176496922969818,0.16249002516269684
1789022124087475200,5.52247509765625,0.4679224193096161,0.328645259141922,0.13561198115348816
1789022124097400000,5.532400146484375,0.5510000586509705,0.3090975880622864,0.11972949653863907
1789022124107325200,5.5423251953125,0.6365211009979248,0.3347539007663727,0.12583814561367035
1789022124117250300,5.552250244140625,0.748920202255249,0.36774060130119324,0.14172062277793884
1789022124127175200,5.562175048828125,0.8710931539535522,0.3652971386909485,0.1539379209280014
1789022124137100300,5.572100341796875,0.9859357476234436,0.33597561717033386,0.15515965223312378
1789022124147025400,5.582025390625,1.0739002227783203,0.31642794609069824,0.14538581669330597
1789022124156950500,5.591950439453125,1.1398736238479614,0.3335321843624115,0.13561198115348816
1789022124166875400,5.60187548828125,1.2070688009262085,0.38240134716033936,0.1282816082239151
1789022124176800500,5.611800537109375,1.2742639780044556,0.44959646463394165,0.1233946830034256
1789022124186725400,5.621725341796875,1.3500111103057861,0.4972439408302307,0.12583814561367035
1789022124196650200,5.631650146484375,1.4282019138336182,0.554665207862854,0.13194678723812103
1789022124206574800,5.641574951171875,1.5015056133270264,0.6194168925285339,0.1588248461484909
1789022124216499700,5.651499755859375,1.5552617311477661,0.6010909676551819,0.18570289015769958
1789022124226424600,5.661424560546875,1.5894701480865479,0.5510000586509705,0.21380266547203064
1789022124236349200,5.67134912109375,1.6407828330993652,0.5375609993934631,0.24556763470172882
1789022124246274000,5.681274169921875,1.6982040405273438,0.5729911923408508,0.24434591829776764
1789022124256199000,5.691198974609375,1.7372994422912598,0.5839866995811462,0.22846342623233795
1789022124266123800,5.701123779296875,1.7592905759811401,0.5302306413650513,0.24312418699264526
1789022124276048400,5.71104833984375,1.7849469184875488,0.5180133581161499,0.2883281707763672
1789022124285973800,5.720973876953125,1.8130466938018799,0.6267472505569458,0.31154105067253113
1789022124295899100,5.730899169921875,1.8044945001602173,0.7391464114189148,0.3078758418560028
1789022124305824500,5.740824462890625,1.760512351989746,0.7843503952026367,0.31154105067253113
1789022124315749600,5.75074951171875,1.6957606077194214,0.7037162184715271,0.3066541254520416
1789022124325675000,5.760675048828125,1.5992439985275269,0.6133082509040833,0.26878049969673157
1789022124335600400,5.770600341796875,1.4953969717025757,0.546113133430481,0.2162461280822754
1789022124345525800,5.78052587890625,1.4025455713272095,0.4874700903892517,0.1649334877729416
1789022124355451000,5.790450927734375,1.304807186126709,0.40317076444625854,0.10995566099882126
1789022124365376300,5.800376220703125,1.2192860841751099,0.37751442193984985,0.1026252806186676
1789022124375301600,5.810301513671875,1.1618647575378418,0.41905322670936584,0.1282816082239151
1789022124385226800,5.820226806640625,1.110552191734314,0.4324922561645508,0.1331685185432434
1789022124395151600,5.830151611328125,1.0665699243545532,0.43982264399528503,0.1282816082239151
1789022124405076700,5.84007666015625,0.9920443892478943,0.3274235129356384,0.11117739230394363
1789022124415001900,5.850001953125,0.8955277800559998,0.17715078592300415,0.09651663154363632
1789022124424926700,5.8599267578125,0.778241753578186,0.05742128938436508,0.06352993845939636
1789022124434851800,5.869851806640625,0.6633991599082947,-0.15149445831775665,0.006108647678047419
1789022124444777000,5.87977685546875,0.5412262082099915,-0.2528980076313019,-0.009773836471140385
1789022124454702000,5.8897021484375,0.4410443603992462,-0.2663370370864868,-0.014660755172371864
1789022124464627000,5.899626953125,0.35674503445625305,-0.2724456787109375,-0.0256563201546669
1789022124474552000,5.909552001953125,0.2712239623069763,-0.30543237924575806,-0.03176496922969818
1789022124484477200,5.919477294921875,0.17592905461788177,-0.40927940607070923,-0.030543239787220955
1789022124494402300,5.92940234375,0.07819069176912308,-0.5497782826423645,-0.03543015569448471
1789022124504327400,5.939327392578125,-0.018325943499803543,-0.6927206516265869,-0.059864748269319534
1789022124514252500,5.94925244140625,-0.10140355676412582,-0.7794634699821472,-0.10018182545900345
1789022124524177700,5.959177734375,-0.17715078592300415,-0.768467903137207,-0.13927717506885529
1789022124534102800,5.969102783203125,-0.26389357447624207,-0.695164144039154,-0.16615521907806396
1789022124544028000,5.97902783203125,-0.35674503445625305,-0.5473348498344421,-0.16615521907806396
1789022124553953000,5.988953125,-0.45937031507492065,-0.3445277214050293,-0.17226386070251465
1789022124563878100,5.998878173828125,-0.5705476999282837,-0.11484257876873016,-0.20280711352825165
1789022124573803300,6.00880322265625,-0.6768381595611572,0.06963858753442764,-0.2101374864578247
1789022124583728000,6.01872802734375,-0.7611374855041504,0.12705987691879272,-0.15271618962287903
1789022124593653200,6.0286533203125,-0.8295543789863586,-0.020769402384757996,-0.10506874322891235
1789022124603578400,6.038578369140625,-0.8723149299621582,-0.23457208275794983,-0.08063415437936783
1789022124613503200,6.048503173828125,-0.8662062287330627,-0.318871408700943,-0.02932151034474373
1789022124623428400,6.058428466796875,-0.84177166223526,-0.36285367608070374,-0.024434590712189674
1789022124633353500,6.068353515625,-0.8148936033248901,-0.40317076444625854,-0.08552107214927673
1789022124643278600,6.078278564453125,-0.8014546036720276,-0.37262752652168274,-0.1637117564678192
1789022124653203500,6.088203369140625,-0.8210022449493408,-0.4422661066055298,-0.2675587832927704
1789022124663128600,6.098128662109375,-0.8625410795211792,-0.49480047821998596,-0.3127627670764923
1789022124673053700,6.1080537109375,-0.9334014058113098,-0.4740310609340668,-0.2981020212173462
1789022124682978600,6.117978515625,-1.0103703737258911,-0.45326167345046997,-0.27366742491722107
1789022124692903400,6.1279033203125,-1.0421353578567505,-0.3860665261745453,-0.2406807243824005
1789022124702828300,6.137828369140625,-1.0360267162322998,-0.3347539007663727,-0.20402882993221283
1789022124712753200,6.147753173828125,-1.0445787906646729,-0.3530798554420471,-0.1844811588525772
1789022124722677800,6.157677734375,-1.1068869829177856,-0.3738492429256439,-0.17715078592300415
1789022124732602600,6.1676025390625,-1.2253947257995605,-0.38850998878479004,-0.17592905461788177
1789022124742527500,6.177527587890625,-1.303585410118103,-0.36285367608070374,-0.16859868168830872
1789022124752452400,6.187452392578125,-1.3182462453842163,-0.2981020212173462,-0.1441640853881836
1789022124762377200,6.197377197265625,-1.3255765438079834,-0.2419024556875229,-0.14294235408306122
1789022124772302000,6.207302001953125,-1.3206896781921387,-0.15638138353824615,-0.16004657745361328
1789022124782425600,6.217425537109375,-1.1740821599960327,0.0769689604640007,-0.11239911615848541
1789022124792548900,6.227548828125,-1.1533126831054688,0.02932151034474373,-0.2101374864578247
1789022124802672000,6.237672119140625,-1.2131774425506592,-0.20402882993221283,-0.3396408259868622
1789022124812795600,6.247795654296875,-1.2986985445022583,-0.4410443603992462,-0.3836230933666229
1789022124822919000,6.2579189453125,-1.4147628545761108,-0.516791582107544,-0.35185810923576355
1789022124833042200,6.268042236328125,-1.5320488214492798,-0.3811796307563782,-0.23945899307727814
1789022124843165400,6.27816552734375,-1.6322306394577026,-0.12583814561367035,-0.06963858753442764
1789022124853289000,6.2882890625,-1.6713260412216187,0.1026252806186676,0.05742128938436508
1789022124863412200,6.298412109375,-1.646891474723816,0.11972949653863907,0.09285144507884979
1789022124873535500,6.308535400390625,-1.5821397304534912,-0.14172062277793884,0.026878049597144127
1789022124883659000,6.318658935546875,-1.528383731842041,-0.40805765986442566,-0.040317077189683914
1789022124893782500,6.328782470703125,-1.4624103307724,-0.6084213256835938,-0.10995566099882126
1789022124903906000,6.338906005859375,-1.4233149290084839,-0.5387827157974243,-0.10506874322891235
1789022124914029800,6.34902978515625,-1.3695588111877441,-0.33231043815612793,-0.03298669680953026
1789022124924153300,6.3591533203125,-1.2877029180526733,-0.13072505593299866,0.12095122784376144
1789022124934276900,6.36927685546875,-1.1997383832931519,-0.021991131827235222,0.30543237924575806
1789022124944400400,6.379400390625,-1.0934479236602783,-0.012217295356094837,0.4276053309440613
1789022124954524000,6.38952392578125,-0.9773836731910706,-0.03909534588456154,0.48502662777900696
1789022124964647400,6.3996474609375,-0.8124501705169678,-0.059864748269319534,0.5021308660507202
1789022124974771000,6.40977099609375,-0.657290518283844,-0.06719512492418289,0.5216785073280334
1789022124984894500,6.41989453125,-0.5253437161445618,-0.07330377399921417,0.5351175665855408
1789022124995018000,6.43001806640625,-0.38728827238082886,-0.07941242307424545,0.526565432548523
1789022125005141500,6.4401416015625,-0.2260199636220932,-0.04764745384454727,0.5387827157974243
1789022125015265000,6.45026513671875,-0.06475166976451874,0.018325943499803543,0.5900954008102417
1789022125025388500,6.460388427734375,0.09162971377372742,0.14294235408306122,0.6267472505569458
1789022125035512300,6.47051220703125,0.2614501118659973,0.318871408700943,0.5986474752426147
1789022125045635800,6.4806357421875,0.43371400237083435,0.4202749729156494,0.526565432548523
1789022125055759400,6.49075927734375,0.5913171172142029,0.38850998878479004,0.46914416551589966
1789022125065883000,6.5008828125,0.7171552777290344,0.3078758418560028,0.411722868680954
1789022125076006400,6.51100634765625,0.8246674537658691,0.25411975383758545,0.3543015718460083
1789022125086130000,6.5211298828125,0.9382883310317993,0.22724169492721558,0.3274235129356384
1789022125096253400,6.53125341796875,1.0482439994812012,0.21746785938739777,0.30543237924575806
1789022125106377000,6.541376953125,1.147204041481018,0.21746785938739777,0.26511532068252563
1789022125116500500,6.55150048828125,1.2315033674240112,0.25534147024154663,0.21135921776294708
1789022125126624000,6.5616240234375,1.3084723949432373,0.3481929302215576,0.15760311484336853
1789022125136747500,6.57174755859375,1.3964369297027588,0.41416633129119873,0.11972949653863907
1789022125146871300,6.581871337890625,1.4746276140213013,0.4214966893196106,0.08796452730894089
1789022125156994800,6.591994873046875,1.5430444478988647,0.4202749729156494,0.06230820715427399
1789022125167118300,6.602118408203125,1.6053526401519775,0.3946186602115631,0.06352993845939636
1789022125177241900,6.612241943359375,1.6505566835403442,0.4056142270565033,0.08796452730894089
1789022125187166700,6.622166748046875,1.68354332447052,0.4471530318260193,0.11484257876873016
1789022125197091600,6.632091552734375,1.7079778909683228,0.544891357421875,0.1331685185432434
1789022125207016400,6.642016357421875,1.7690644264221191,0.7012727856636047,0.15760311484336853
1789022125216941000,6.651941162109375,1.8154901266098022,0.8588758707046509,0.18081597983837128
1789022125226866000,6.661865966796875,1.8264856338500977,0.8930842876434326,0.21746785938739777
1789022125236790800,6.671790771484375,1.8093814849853516,0.7977893948554993,0.2834412455558777
1789022125246715600,6.681715576171875,1.8044945001602173,0.8393282294273376,0.3591884970664978
1789022125256640500,6.691640625,1.8191553354263306,1.0213658809661865,0.38728827238082886
1789022125266565400,6.7015654296875,1.8069380521774292,1.1117738485336304,0.3897317349910736
1789022125276490200,6.711490234375,1.7556253671646118,1.0250310897827148,0.36774060130119324
1789022125286613500,6.721613525390625,1.6725478172302246,0.7806851863861084,0.2663370370864868
1789022125296737000,6.731737060546875,1.5418226718902588,0.4166097939014435,0.07819069176912308
1789022125306860300,6.7418603515625,1.4294235706329346,0.23823726177215576,-0.03909534588456154
1789022125316983600,6.751983642578125,1.3475676774978638,0.31031930446624756,-0.020769402384757996
1789022125327106800,6.76210693359375,1.276707410812378,0.4728093445301056,0.03909534588456154
1789022125337230300,6.772230224609375,1.2253947257995605,0.5656607747077942,0.08307760953903198
1789022125347353600,6.782353515625,1.1533126831054688,0.4520399272441864,0.059864748269319534
1789022125357476900,6.792476806640625,1.061682939529419,0.41294458508491516,0.06963858753442764
1789022125367600000,6.80260009765625,0.9505056142807007,0.3555232882499695,0.08674279600381851
1789022125377723600,6.8127236328125,0.8442151546478271,0.23823726177215576,0.06597339361906052
1789022125387649500,6.8226494140625,0.7428115606307983,0.13927717506885529,0.043982263654470444
1789022125397575400,6.832575439453125,0.6450732350349426,0.05253437161445618,0.028099779039621353
1789022125407501600,6.84250146484375,0.5473348498344421,-0.013439024798572063,0.004886918235570192
1789022125417427500,6.852427490234375,0.42882707715034485,-0.11117739230394363,-0.020769402384757996
1789022125427353600,6.862353515625,0.31642794609069824,-0.20769402384757996,-0.034208428114652634
1789022125437279500,6.872279541015625,0.1893680840730667,-0.35674503445625305,-0.07086031138896942
1789022125447205400,6.882205322265625,0.05497783049941063,-0.5693259835243225,-0.13683371245861053
1789022125457131500,6.892131591796875,-0.06841685622930527,-0.7880155444145203,-0.21135921776294708
1789022125467057400,6.902057373046875,-0.16249002516269684,-0.9126319885253906,-0.2626718580722809
1789022125476983600,6.911983642578125,-0.22235478460788727,-0.8869756460189819,-0.26022839546203613
1789022125486908400,6.921908447265625,-0.2565632164478302,-0.7745765447616577,-0.20280711352825165
1789022125496833500,6.93183349609375,-0.31154105067253113,-0.6976075768470764,-0.14294235408306122
1789022125506758700,6.941758544921875,-0.4153880476951599,-0.675616443157196,-0.1331685185432434
1789022125516683800,6.951683837890625,-0.5375609993934631,-0.564439058303833,-0.1539379209280014
1789022125526608600,6.961608642578125,-0.6462949514389038,-0.3396408259868622,-0.15760311484336853
1789022125536533800,6.97153369140625,-0.7367029190063477,-0.14294235408306122,-0.1233946830034256
1789022125546459000,6.981458984375,-0.7965676784515381,-0.0720820426940918,-0.07574722915887833
1789022125556384000,6.991384033203125,-0.8161153197288513,-0.14660754799842834,-0.04276053607463837
1789022125566308900,7.001308837890625,-0.8173370957374573,-0.3274235129356384,-0.013439024798572063
1789022125576234000,7.01123388671875,-0.8271108865737915,-0.49968740344047546,0.013439024798572063
1789022125586159000,7.0211591796875,-0.8185588121414185,-0.5387827157974243,0.04764745384454727
1789022125596084000,7.031083984375,-0.7990111112594604,-0.43982264399528503,0.0513126403093338
1789022125606009000,7.041009033203125,-0.7819069027900696,-0.370184063911438,-0.003665188793092966
1789022125615934200,7.050934326171875,-0.7757982611656189,-0.39217519760131836,-0.06719512492418289
1789022125625859300,7.060859375,-0.8307760953903198,-0.4838049113750458,-0.11728604137897491
1789022125635784200,7.0707841796875,-0.9407317638397217,-0.5681042671203613,-0.15271618962287903
1789022125645709300,7.080709228515625,-1.0873392820358276,-0.6401863098144531,-0.20158538222312927
1789022125655634400,7.090634521484375,-1.2180644273757935,-0.7574723362922668,-0.2577849328517914
1789022125665559600,7.1005595703125,-1.3206896781921387,-0.8747583627700806,-0.31031930446624756
1789022125675484400,7.110484375,-1.442862629890442,-0.8552106618881226,-0.3481929302215576
1789022125685409300,7.1204091796875,-1.5638138055801392,-0.6084213256835938,-0.3017672002315521
1789022125695334100,7.130334228515625,-1.6297872066497803,-0.12950333952903748,-0.20158538222312927
1789022125705259000,7.140259033203125,-1.5723659992218018,0.2968802750110626,-0.12583814561367035
1789022125715183900,7.150183837890625,-1.499062180519104,0.3848448097705841,-0.04764745384454727
1789022125725108700,7.160108642578125,-1.4636319875717163,0.2626718580722809,-0.01588248461484909
1789022125735033600,7.17003369140625,-1.3952151536941528,0.03787361457943916,-0.07941242307424545
1789022125744958500,7.17995849609375,-1.3695588111877441,-0.20769402384757996,-0.13439024984836578
1789022125754883300,7.18988330078125,-1.4013237953186035,-0.287106454372406,-0.1588248461484909
1789022125764808200,7.19980810546875,-1.4575233459472656,-0.16615521907806396,-0.15027274191379547
1789022125774733000,7.209733154296875,-1.5528182983398438,-0.008552107028663158,-0.14294235408306122
1789022125784658200,7.219658203125,-1.655443549156189,0.06719512492418289,-0.13194678723812103
1789022125794583600,7.22958349609375,-1.7104213237762451,0.008552107028663158,-0.09651663154363632
1789022125804508700,7.2395087890625,-1.7372994422912598,-0.09040798991918564,-0.0720820426940918
1789022125814434000,7.24943408203125,-1.7385212182998657,-0.12217295914888382,-0.0818558782339096
1789022125824359200,7.259359130859375,-1.7079778909683228,-0.08429934084415436,-0.08674279600381851
1789022125834284500,7.269284423828125,-1.654221773147583,-0.0513126403093338,-0.053756099194288254
1789022125844209700,7.279209716796875,-1.5601485967636108,-0.09407317638397217,-0.009773836471140385
1789022125854135000,7.289135009765625,-1.441640853881836,-0.19303326308727264,0.02932151034474373
1789022125864060200,7.29906005859375,-1.2791508436203003,-0.3897317349910736,0
1789022125873985500,7.308985595703125,-1.1520910263061523,-0.4679224193096161,0.017104214057326317
1789022125883910700,7.31891064453125,-1.0396918058395386,-0.37751442193984985,0.09896009415388107
1789022125893835800,7.328835693359375,-0.9505056142807007,-0.15149445831775665,0.18203771114349365
1789022125903761000,7.338760986328125,-0.8405499458312988,0.008552107028663158,0.25900667905807495
1789022125913686000,7.34868603515625,-0.6963858604431152,0,0.3445277214050293
1789022125923611100,7.358611083984375,-0.5216785073280334,-0.02932151034474373,0.3652971386909485
1789022125933536300,7.368536376953125,-0.3078758418560028,-0.017104214057326317,0.2919933497905731
1789022125943461400,7.37846142578125,-0.10995566099882126,-0.04276053607463837,0.24801109731197357
1789022125953386500,7.388386474609375,0.053756099194288254,-0.040317077189683914,0.27366742491722107
1789022125963311400,7.398311279296875,0.2101374864578247,0.0818558782339096,0.3029889166355133
1789022125973236500,7.408236572265625,0.3787361681461334,0.23823726177215576,0.3017672002315521
1789022125983161600,7.41816162109375,0.5619956254959106,0.34574946761131287,0.28588470816612244
1789022125993086700,7.428086669921875,0.7257073521614075,0.370184063911438,0.2419024556875229
1789022126003011800,7.43801171875,0.8576541543006897,0.31031930446624756,0.19669845700263977
1789022126012936700,7.447936767578125,0.9761618971824646,0.21991132199764252,0.17104214429855347
1789022126022861800,7.45786181640625,1.0958913564682007,0.16615521907806396,0.16126830875873566
1789022126032787000,7.467786865234375,1.2095122337341309,0.17837251722812653,0.15027274191379547
1789022126042712000,7.477712158203125,1.2999202013015747,0.27000224590301514,0.1490510106086731
1789022126052637000,7.487636962890625,1.37078058719635,0.3481929302215576,0.1490510106086731
1789022126062562000,7.49756201171875,1.4477494955062866,0.4105011224746704,0.1185077652335167
1789022126072487200,7.507487060546875,1.5503748655319214,0.526565432548523,0.07819069176912308
1789022126082412000,7.517412109375,1.6505566835403442,0.5400044918060303,0.034208428114652634
1789022126092337000,7.5273369140625,1.7397428750991821,0.6291907429695129,0.07330377399921417
1789022126102262000,7.537261962890625,1.820376992225647,0.711046576499939,0.13561198115348816
1789022126112187100,7.547187255859375,1.8704679012298584,0.7550288438796997,0.19914191961288452
1789022126122112300,7.5571123046875,1.897346019744873,0.7244856357574463,0.2883281707763672
1789022126132037000,7.567037109375,1.9046764373779297,0.7770199775695801,0.32131487131118774
1789022126141962200,7.576962158203125,1.8826853036880493,0.8478803038597107,0.29443681240081787
1789022126151887400,7.586887451171875,1.8387030363082886,0.8747583627700806,0.26022839546203613
1789022126161812500,7.5968125,1.811824917793274,0.8918625712394714,0.26511532068252563
1789022126171737300,7.6067373046875,1.8154901266098022,0.9053016304969788,0.287106454372406
1789022126181662500,7.616662353515625,1.8057162761688232,0.8686497211456299,0.26022839546203613
1789022126191587300,7.62658740234375,1.7580687999725342,0.7599157691001892,0.2309068888425827
1789022126201512200,7.63651220703125,1.6957606077194214,0.5925388336181641,0.1893680840730667
1789022126211437000,7.64643701171875,1.6346741914749146,0.5119046568870544,0.15149445831775665
1789022126221362000,7.65636181640625,1.5515965223312378,0.546113133430481,0.1185077652335167
1789022126231286800,7.666286865234375,1.4196497201919556,0.554665207862854,0.0769689604640007
1789022126241211600,7.676211669921875,1.3206896781921387,0.4740310609340668,0.04764745384454727
1789022126251136300,7.68613623046875,1.2363903522491455,0.27977606654167175,0
1789022126261061000,7.69606103515625,1.138651967048645,0.1649334877729416,-0.010995565913617611
1789022126270986000,7.705986083984375,1.0421353578567505,0.24801109731197357,0.003665188793092966
1789022126280910800,7.715910888671875,0.9419534802436829,0.3543015718460083,0.020769402384757996
1789022126290836200,7.725836181640625,0.8442151546478271,0.2406807243824005,-0.001221729558892548
1789022126300761300,7.73576123046875,0.7122683525085449,0.0513126403093338,-0.03298669680953026
1789022126310686700,7.745686767578125,0.5913171172142029,-0.07086031138896942,-0.018325943499803543
1789022126320611800,7.75561181640625,0.4728093445301056,-0.17104214429855347,-0.004886918235570192
1789022126330537200,7.765537109375,0.36285367608070374,-0.2211330533027649,-0.006108647678047419
1789022126340462600,7.775462646484375,0.26022839546203613,-0.23945899307727814,-0.010995565913617611
1789022126350387700,7.7853876953125,0.1637117564678192,-0.3078758418560028,-0.02932151034474373
1789022126360313000,7.79531298828125,0.050090912729501724,-0.4581485986709595,-0.06352993845939636
1789022126370238200,7.80523828125,-0.06352993845939636,-0.6059778332710266,-0.08307760953903198
1789022126380163600,7.81516357421875,-0.16126830875873566,-0.6633991599082947,-0.06963858753442764
1789022126390088400,7.82508837890625,-0.2614501118659973,-0.6902772188186646,-0.06352993845939636
1789022126400013600,7.835013671875,-0.38240134716033936,-0.7806851863861084,-0.09407317638397217
1789022126409938700,7.844938720703125,-0.5143481492996216,-0.9126319885253906,-0.1282816082239151
1789022126419863800,7.85486376953125,-0.627968966960907,-0.8906408548355103,-0.10140355676412582
1789022126429788700,7.86478857421875,-0.7037162184715271,-0.7171552777290344,-0.014660755172371864
1789022126439713800,7.8747138671875,-0.7525854110717773,-0.4459312856197357,0.13194678723812103
1789022126449639000,7.884638916015625,-0.8063415288925171,-0.14049890637397766,0.2932150959968567
1789022126459564000,7.89456396484375,-0.8808670043945312,0.02932151034474373,0.3897317349910736
1789022126469489000,7.904489013671875,-0.9272927641868591,0.03176496922969818,0.3958403766155243
1789022126479414000,7.9144140625,-0.9602794051170349,-0.13439024984836578,0.31520622968673706
1789022126489339100,7.924339111328125,-0.9834923148155212,-0.3396408259868622,0.21502439677715302
1789022126499264300,7.93426416015625,-1.0189224481582642,-0.48991355299949646,0.11606431007385254
1789022126509189000,7.944189208984375,-1.0299180746078491,-0.6023126840591431,0
1789022126519114200,7.9541142578125,-1.0519092082977295,-0.6548470258712769,-0.10506874322891235
1789022126529039400,7.964039306640625,-1.1252129077911377,-0.6487383842468262,-0.16737695038318634
1789022126538964200,7.973964111328125,-1.2205078601837158,-0.5558869242668152,-0.16004657745361328
1789022126548889300,7.983889404296875,-1.3377938270568848,-0.4276053309440613,-0.1185077652335167
1789022126558814500,7.993814453125,-1.4685189723968506,-0.3139844834804535,-0.06719512492418289
1789022126568739600,8.003739501953126,-1.5968005657196045,-0.2370155304670334,0.003665188793092966
1789022126578664400,8.01366455078125,-1.7201951742172241,-0.1844811588525772,0.03298669680953026
1789022126588589600,8.023589599609375,-1.7983858585357666,-0.11606431007385254,-0.004886918235570192
1789022126598514700,8.0335146484375,-1.6786564588546753,-0.0256563201546669,-0.036651886999607086
1789022126608439800,8.043439697265624,-1.4953969717025757,0.043982263654470444,-0.023212861269712448
1789022126618364700,8.05336474609375,-1.3634501695632935,0.02932151034474373,-0.004886918235570192
1789022126628289800,8.063289794921875,-1.2913681268692017,-0.0720820426940918,-0.053756099194288254
1789022126638215000,8.07321484375,-1.276707410812378,-0.25411975383758545,-0.11606431007385254
1789022126648140000,8.08314013671875,-1.331685185432434,-0.370184063911438,-0.1441640853881836
1789022126658065000,8.09306494140625,-1.3781108856201172,-0.3433060050010681,-0.13072505593299866
1789022126667990000,8.102989990234375,-1.4013237953186035,-0.21502439677715302,-0.06719512492418289
1789022126677915100,8.1129150390625,-1.4025455713272095,-0.13439024984836578,-0.020769402384757996
1789022126687840000,8.122840087890625,-1.4172062873840332,-0.18570289015769958,-0.050090912729501724
1789022126697764900,8.132764892578125,-1.4282019138336182,-0.31520622968673706,-0.10629047453403473
1789022126707689700,8.142689697265626,-1.442862629890442,-0.4324922561645508,-0.14172062277793884
1789022126717614600,8.152614501953124,-1.431867003440857,-0.41294458508491516,-0.12095122784376144
1789022126727539500,8.16253955078125,-1.3988803625106812,-0.3078758418560028,-0.06597339361906052
1789022126737464600,8.172464599609375,-1.3304635286331177,-0.18692462146282196,-0.013439024798572063
1789022126747389400,8.182389404296876,-1.2608249187469482,-0.11972949653863907,0.03787361457943916
1789022126757314300,8.192314208984374,-1.2156208753585815,-0.14049890637397766,0.06475166976451874
1789022126767239200,8.2022392578125,-1.1740821599960327,-0.14294235408306122,0.07574722915887833
1789022126777164000,8.2121640625,-1.12765634059906,-0.0720820426940918,0.11484257876873016
1789022126787089400,8.22208935546875,-1.0836740732192993,0.07086031138896942,0.22968515753746033
1789022126797014500,8.2320146484375,-1.0115920305252075,0.1637117564678192,0.35674503445625305
1789022126806940000,8.24193994140625,-0.8307760953903198,0.11728604137897491,0.3799578845500946
1789022126816865000,8.251864990234376,-0.6426297426223755,0.14294235408306122,0.37262752652168274
1789022126826790400,8.261790283203124,-0.4667007029056549,0.2419024556875229,0.40317076444625854
1789022126836715500,8.271715576171875,-0.29077163338661194,0.22968515753746033,0.3946186602115631
1789022126846641000,8.281640869140626,-0.11728604137897491,0.20158538222312927,0.30543237924575806
1789022126856566000,8.29156591796875,0.004886918235570192,0.3237583339214325,0.25900667905807495
1789022126866491400,8.301491455078125,0.08796452730894089,0.43371400237083435,0.25534147024154663
1789022126876416500,8.31141650390625,0.14172062277793884,0.4324922561645508,0.2712239623069763
1789022126886341600,8.321341552734374,0.18081597983837128,0.38240134716033936,0.2528980076313019
1789022126896266800,8.331266845703125,0.21868959069252014,0.31520622968673706,0.1905898153781891
1789022126906192000,8.34119189453125,0.2516762912273407,0.26389357447624207,0.10140355676412582
1789022126916116700,8.35111669921875,0.2919933497905731,0.24556763470172882,0.023212861269712448
1789022126926041900,8.361041748046874,0.3384190797805786,0.25411975383758545,-0.01954767294228077
1789022126935967000,8.370967041015625,0.3958403766155243,0.24434591829776764,-0.03909534588456154
1789022126945892000,8.38089208984375,0.4728093445301056,0.1649334877729416,-0.05742128938436508
1789022126955817000,8.39081689453125,0.5632173418998718,0.06108647957444191,-0.09162971377372742
1789022126965742000,8.4007421875,0.665842592716217,-0.03543015569448471,-0.14049890637397766
1789022126975667200,8.410667236328125,0.7635809779167175,-0.09285144507884979,-0.20647229254245758
1789022126985592000,8.420592041015626,0.8429933786392212,-0.06230820715427399,-0.2663370370864868
1789022126995517200,8.43051708984375,0.9053016304969788,0.0769689604640007,-0.2822195291519165
1789022127005442000,8.440442138671875,0.9700532555580139,0.25534147024154663,-0.2406807243824005
1789022127015367200,8.4503671875,1.0189224481582642,0.38728827238082886,-0.1747073233127594
1789022127025292000,8.4602919921875,1.0274745225906372,0.4202749729156494,-0.12583814561367035
1789022127035217200,8.470217041015625,0.9908226728439331,0.37262752652168274,-0.10873392969369888
1789022127045142300,8.480142333984375,0.9138537049293518,0.3176496922969818,-0.11117739230394363
1789022127055067100,8.490067138671876,0.84177166223526,0.24434591829776764,-0.14049890637397766
1789022127064992300,8.4999921875,0.7990111112594604,0.18814635276794434,-0.15638138353824615
1789022127074917000,8.509917236328125,0.7672461867332458,0.16859868168830872,-0.14782927930355072
1789022127084842200,8.51984228515625,0.7293725609779358,0.14172062277793884,-0.1380554437637329
1789022127094767400,8.529767333984376,0.6805033683776855,0.11239911615848541,-0.12950333952903748
1789022127104692200,8.539692138671874,0.637742817401886,0.10506874322891235,-0.11972949653863907
1789022127114617300,8.549617431640625,0.5962040424346924,0.09162971377372742,-0.11606431007385254
1789022127124542500,8.55954248046875,0.5534434914588928,0.03298669680953026,-0.14538581669330597
1789022127134467600,8.569467529296874,0.4984656572341919,-0.01954767294228077,-0.18814635276794434
1789022127144392400,8.579392333984375,0.4361574649810791,-0.07941242307424545,-0.2162461280822754
1789022127154317600,8.589317626953125,0.3652971386909485,-0.11362084746360779,-0.22968515753746033
1789022127164242700,8.59924267578125,0.2993237376213074,-0.06108647957444191,-0.19669845700263977
1789022127174167600,8.60916748046875,0.24923282861709595,0.07086031138896942,-0.12461641430854797
1789022127184092700,8.6190927734375,0.21380266547203064,0.17226386070251465,-0.05742128938436508
1789022127194017500,8.629017578125,0.17592905461788177,0.25045454502105713,-0.018325943499803543
1789022127203942400,8.6389423828125,0.14660754799842834,0.2528980076313019,-0.028099779039621353
1789022127213867300,8.6488671875,0.1233946830034256,0.18325942754745483,-0.05253437161445618
1789022127223792000,8.658792236328125,0.09285144507884979,0.08674279600381851,-0.07086031138896942
1789022127233717000,8.668717041015626,0.056199558079242706,0.01954767294228077,-0.07452550530433655
1789022127243641900,8.678641845703124,0.014660755172371864,-0.002443459117785096,-0.06352993845939636
1789022127253566700,8.688566650390625,-0.04886918142437935,0.002443459117785096,-0.06963858753442764
1789022127263491800,8.698491943359375,-0.0977383628487587,-0.06475166976451874,-0.12583814561367035
1789022127273416700,8.708416748046876,-0.13927717506885529,-0.04520399495959282,-0.1282816082239151
1789022127283341800,8.718341796875,-0.16126830875873566,-0.003665188793092966,-0.0818558782339096
1789022127293267000,8.728266845703125,-0.16126830875873566,0.021991131827235222,-0.01588248461484909
1789022127303192300,8.7381923828125,-0.1637117564678192,0.002443459117785096,0.017104214057326317
1789022127313117400,8.748117431640624,-0.1795942485332489,-0.046425722539424896,-0.009773836471140385
1789022127323042600,8.75804248046875,-0.20891575515270233,-0.10140355676412582,-0.0720820426940918
1789022127332968000,8.767968017578125,-0.25045454502105713,-0.12950333952903748,-0.11972949653863907
1789022127342893000,8.77789306640625,-0.2919933497905731,-0.12095122784376144,-0.12095122784376144
1789022127352818400,8.787818359375,-0.3139844834804535,-0.05497783049941063,-0.07330377399921417
1789022127362743600,8.79774365234375,-0.3029889166355133,0.03176496922969818,0.006108647678047419
1789022127372668700,8.807668701171876,-0.27000224590301514,0.07330377399921417,0.08796452730894089
1789022127382593800,8.81759375,-0.2528980076313019,0.04520399495959282,0.12217295914888382
1789022127392519000,8.827518798828125,-0.2528980076313019,-0.013439024798572063,0.11606431007385254
1789022127402443800,8.83744384765625,-0.2614501118659973,-0.059864748269319534,0.08307760953903198
1789022127412369000,8.847368896484374,-0.2626718580722809,-0.0720820426940918,0.040317077189683914
1789022127422294000,8.8572939453125,-0.25411975383758545,-0.04153880476951599,0.009773836471140385
1789022127432219100,8.86721923828125,-0.2370155304670334,0.03176496922969818,0.002443459117785096
1789022127442144000,8.87714404296875,-0.2101374864578247,0.1185077652335167,0.026878049597144127
1789022127452069000,8.887069091796874,-0.17837251722812653,0.15149445831775665,0.07452550530433655
1789022127461994200,8.896994140625,-0.15149445831775665,0.08552107214927673,0.0977383628487587
1789022127471919400,8.90691943359375,-0.13072505593299866,-0.030543239787220955,0.06597339361906052
1789022127481844200,8.91684423828125,-0.11362084746360779,-0.08063415437936783,0.004886918235570192
1789022127491769000,8.92676904296875,-0.10629047453403473,-0.07574722915887833,-0.028099779039621353
1789022127501694200,8.936694091796875,-0.12095122784376144,-0.036651886999607086,-0.030543239787220955
1789022127511619300,8.946619384765626,-0.12950333952903748,0.02932151034474373,-0.01954767294228077
1789022127521544400,8.95654443359375,-0.1026252806186676,0.08552107214927673,0.009773836471140385
1789022127531469300,8.96646923828125,-0.056199558079242706,0.09285144507884979,0.03909534588456154
1789022127541394400,8.97639453125,-0.014660755172371864,0.05864302068948746,0.028099779039621353
1789022127551319600,8.986319580078124,0.012217295356094837,0.03543015569448471,-0.0256563201546669
1789022127561244700,8.99624462890625,0.03176496922969818,0.06841685622930527,-0.05864302068948746
1789022127571169500,9.00616943359375,0.040317077189683914,0.08063415437936783,-0.04520399495959282
1789022127581094700,9.0160947265625,0.050090912729501724,0.08063415437936783,-0.014660755172371864
1789022127591019800,9.026019775390624,0.06841685622930527,0.06108647957444191,0.004886918235570192
1789022127600944600,9.035944580078125,0.09162971377372742,0.030543239787220955,-0.013439024798572063
1789022127610869800,9.045869873046875,0.11728604137897491,0.03909534588456154,-0.056199558079242706
1789022127620795000,9.055794921875,0.1441640853881836,0.0769689604640007,-0.07941242307424545
1789022127630720000,9.065719970703125,0.15760311484336853,0.09040798991918564,-0.0769689604640007
1789022127640644900,9.075644775390625,0.1588248461484909,0.053756099194288254,-0.06963858753442764
1789022127650570000,9.085570068359376,0.15515965223312378,-0.007330377586185932,-0.08307760953903198
1789022127660495000,9.0954951171875,0.15027274191379547,-0.023212861269712448,-0.11728604137897491
1789022127670420200,9.105420166015625,0.16126830875873566,0.01954767294228077,-0.1331685185432434
1789022127680345000,9.115344970703125,0.16615521907806396,0.09529490768909454,-0.11362084746360779
1789022127690270000,9.12527001953125,0.1637117564678192,0.1490510106086731,-0.07819069176912308
1789022127700195000,9.135195068359375,0.1588248461484909,0.15271618962287903,-0.04153880476951599
1789022127710120000,9.145119873046875,0.1649334877729416,0.14049890637397766,-0.024434590712189674
1789022127720044800,9.155044921875,0.18570289015769958,0.12950333952903748,-0.012217295356094837
1789022127729969700,9.1649697265625,0.19792018830776215,0.12217295914888382,-0.017104214057326317
1789022127739894500,9.17489453125,0.19914191961288452,0.10995566099882126,-0.0256563201546669
1789022127749819400,9.1848193359375,0.1747073233127594,0.10384701192378998,-0.040317077189683914
1789022127759744300,9.194744140625,0.13561198115348816,0.1026252806186676,-0.06230820715427399
1789022127769669000,9.204669189453124,0.11239911615848541,0.11117739230394363,-0.06230820715427399
1789022127779594200,9.21459423828125,0.11239911615848541,0.12461641430854797,-0.036651886999607086
1789022127789519400,9.224519287109375,0.12705987691879272,0.13194678723812103,-0.002443459117785096
1789022127799444500,9.234444580078126,0.15271618962287903,0.13194678723812103,0.030543239787220955
1789022127809369900,9.244369873046875,0.1698204129934311,0.11606431007385254,0.036651886999607086
1789022127819295000,9.254294921875,0.1588248461484909,0.10018182545900345,0.010995565913617611
1789022127829220000,9.26422021484375,0.12217295914888382,0.08918625861406326,-0.030543239787220955
1789022127839145500,9.2741455078125,0.07941242307424545,0.06475166976451874,-0.0818558782339096
1789022127849070600,9.284070556640625,0.03787361457943916,0.06963858753442764,-0.07086031138896942
1789022127858995700,9.29399560546875,0.009773836471140385,0.07819069176912308,-0.0256563201546669
1789022127868921000,9.303921142578124,0.006108647678047419,0.11239911615848541,0.012217295356094837
1789022127878846200,9.31384619140625,0.02932151034474373,0.14049890637397766,0.053756099194288254
1789022127888771300,9.323771240234375,0.04520399495959282,0.13561198115348816,0.06719512492418289
1789022127898696400,9.333696533203126,0.05253437161445618,0.11117739230394363,0.04153880476951599
1789022127908621300,9.343621337890625,0.036651886999607086,0.0818558782339096,-0.007330377586185932
1789022127918546400,9.35354638671875,0.012217295356094837,0.05497783049941063,-0.05864302068948746
1789022127928471600,9.363471435546876,-0.004886918235570192,0.0513126403093338,-0.08796452730894089
1789022127938396400,9.373396484375,-0.012217295356094837,0.06475166976451874,-0.08307760953903198
1789022127948321500,9.383321533203125,-0.014660755172371864,0.08796452730894089,-0.0513126403093338
1789022127958246700,9.39324658203125,-0.014660755172371864,0.09162971377372742,-0.021991131827235222
1789022127968171800,9.403171875,-0.013439024798572063,0.0769689604640007,0.002443459117785096
1789022127978096600,9.4130966796875,-0.020769402384757996,0.06230820715427399,0.014660755172371864
1789022127988021800,9.423021728515625,-0.028099779039621353,0.036651886999607086,0.013439024798572063
1789022127997946600,9.432946533203125,-0.03909534588456154,0.002443459117785096,-0.010995565913617611
1789022128007871700,9.442871826171874,-0.05742128938436508,-0.008552107028663158,-0.06352993845939636
1789022128017796900,9.452796875,-0.05497783049941063,0.013439024798572063,-0.11484257876873016
1789022128027721700,9.4627216796875,-0.0513126403093338,0.05497783049941063,-0.13561198115348816
1789022128037646800,9.472646728515626,-0.040317077189683914,0.10018182545900345,-0.11117739230394363
1789022128047571700,9.48257177734375,-0.02932151034474373,0.12461641430854797,-0.04764745384454727
1789022128057496800,9.492496826171875,-0.03176496922969818,0.09040798991918564,-0.001221729558892548
1789022128067421700,9.502421630859375,-0.043982263654470444,0.003665188793092966,-0.01588248461484909
1789022128077346800,9.512346923828124,-0.056199558079242706,-0.046425722539424896,-0.06475166976451874
1789022128087271700,9.522271728515625,-0.053756099194288254,-0.004886918235570192,-0.09040798991918564
1789022128097196800,9.53219677734375,-0.0513126403093338,0.04886918142437935,-0.08063415437936783
1789022128107121700,9.54212158203125,-0.04764745384454727,0.059864748269319534,-0.06963858753442764
1789022128117046800,9.552046875,-0.034208428114652634,0.04764745384454727,-0.0769689604640007
1789022128126972000,9.561971923828125,-0.021991131827235222,0.0256563201546669,-0.09896009415388107
1789022128136897000,9.57189697265625,-0.013439024798572063,0.028099779039621353,-0.12095122784376144
1789022128146822000,9.58182177734375,-0.001221729558892548,0.053756099194288254,-0.10629047453403473
1789022128156747000,9.5917470703125,0.009773836471140385,0.06352993845939636,-0.06719512492418289
1789022128166672100,9.601672119140625,0.004886918235570192,0.0256563201546669,-0.04764745384454727
1789022128176597000,9.611596923828126,-0.01588248461484909,0.003665188793092966,-0.08063415437936783
1789022128186522000,9.621522216796874,-0.03176496922969818,0.053756099194288254,-0.11239911615848541
1789022128196447000,9.631447021484375,-0.04276053607463837,0.10873392969369888,-0.09040798991918564
1789022128206371800,9.641371826171875,-0.03543015569448471,0.11362084746360779,-0.030543239787220955
1789022128216297000,9.651296875,-0.0256563201546669,0.0769689604640007,-0.004886918235570192
1789022128226221800,9.661221923828125,-0.002443459117785096,0.05742128938436508,-0.03543015569448471
1789022128236146700,9.671146728515625,0.009773836471140385,0.06597339361906052,-0.08674279600381851
1789022128246071600,9.681071533203125,0.007330377586185932,0.11606431007385254,-0.12950333952903748
1789022128255996400,9.690996337890626,0.008552107028663158,0.1698204129934311,-0.10995566099882126
1789022128265921300,9.70092138671875,0.023212861269712448,0.1747073233127594,-0.03543015569448471
1789022128275846100,9.71084619140625,0.046425722539424896,0.12950333952903748,0.023212861269712448
1789022128285771000,9.72077099609375,0.07941242307424545,0.0720820426940918,0.017104214057326317
1789022128295696100,9.730696044921874,0.10384701192378998,0.059864748269319534,-0.034208428114652634
1789022128305621000,9.74062109375,0.1026252806186676,0.08674279600381851,-0.08674279600381851
1789022128315546000,9.750546142578125,0.08307760953903198,0.11728604137897491,-0.09040798991918564
1789022128325471200,9.76047119140625,0.06719512492418289,0.12095122784376144,-0.050090912729501724
1789022128335396600,9.770396728515625,0.06475166976451874,0.1282816082239151,-0.021991131827235222
1789022128345321700,9.78032177734375,0.08429934084415436,0.14294235408306122,-0.023212861269712448
1789022128355246800,9.790246826171876,0.09896009415388107,0.15271618962287903,-0.04276053607463837
1789022128365172200,9.800172119140624,0.10629047453403473,0.15027274191379547,-0.04764745384454727
1789022128375097300,9.810097412109375,0.1026252806186676,0.1490510106086731,-0.03909534588456154
1789022128385022500,9.8200224609375,0.10140355676412582,0.14538581669330597,-0.028099779039621353
1789022128394947800,9.82994775390625,0.1026252806186676,0.13561198115348816,-0.024434590712189674
1789022128404873000,9.839873046875,0.10140355676412582,0.12705987691879272,-0.0256563201546669
1789022128414798000,9.849798095703125,0.09529490768909454,0.12217295914888382,-0.0256563201546669
1789022128424723200,9.85972314453125,0.07574722915887833,0.12217295914888382,-0.023212861269712448
1789022128434648000,9.86964794921875,0.07330377399921417,0.1380554437637329,-0.014660755172371864
1789022128444573200,9.8795732421875,0.06841685622930527,0.1026252806186676,-0.002443459117785096
1789022128454498300,9.889498291015625,0.053756099194288254,0.06597339361906052,-0.026878049597144127
1789022128464423400,9.89942333984375,0.036651886999607086,0.0818558782339096,-0.07819069176912308
1789022128474348300,9.909348388671875,0.03543015569448471,0.15271618962287903,-0.12217295914888382
1789022128484273400,9.9192734375,0.0513126403093338,0.1954767256975174,-0.11728604137897491
1789022128494198500,9.929198486328126,0.04520399495959282,0.16249002516269684,-0.08307760953903198
1789022128504123400,9.939123291015624,0.0256563201546669,0.10506874322891235,-0.06963858753442764
1789022128514048500,9.949048583984375,0.013439024798572063,0.08796452730894089,-0.08307760953903198
1789022128523973600,9.9589736328125,-0.003665188793092966,0.10506874322891235,-0.11728604137897491
1789022128533898800,9.968898681640624,-0.028099779039621353,0.10751219838857651,-0.14172062277793884
1789022128543823600,9.97882373046875,-0.059864748269319534,0.10384701192378998,-0.14294235408306122
1789022128553748700,9.988748779296875,-0.08063415437936783,0.10629047453403473,-0.1233946830034256
1789022128563673900,9.998673828125,-0.0818558782339096,0.12217295914888382,-0.1233946830034256
1789022128573599000,10.008598876953124,-0.06352993845939636,0.12950333952903748,-0.13439024984836578
1789022128583523800,10.01852392578125,-0.05253437161445618,0.12583814561367035,-0.1698204129934311
1789022128593449000,10.028448974609375,-0.04886918142437935,0.11362084746360779,-0.19792018830776215
1789022128603374000,10.0383740234375,-0.04886918142437935,0.10018182545900345,-0.19792018830776215
1789022128613299200,10.04829931640625,-0.043982263654470444,0.08552107214927673,-0.1905898153781891
1789022128623224000,10.05822412109375,-0.028099779039621353,0.08796452730894089,-0.17104214429855347
1789022128633149200,10.068149169921876,-0.0256563201546669,0.05497783049941063,-0.1539379209280014
1789022128643074300,10.07807421875,-0.03543015569448471,0.05742128938436508,-0.18203771114349365
1789022128652999200,10.087999267578125,-0.043982263654470444,0.06841685622930527,-0.19914191961288452
1789022128662924300,10.09792431640625,-0.05742128938436508,0.06597339361906052,-0.1954767256975174
1789022128672849400,10.107849365234374,-0.07086031138896942,0.05253437161445618,-0.1747073233127594
1789022128682774500,10.1177744140625,-0.0720820426940918,0.05253437161445618,-0.15027274191379547
1789022128692699400,10.127699462890625,-0.06719512492418289,0.05253437161445618,-0.1539379209280014
1789022128702624500,10.13762451171875,-0.053756099194288254,0.06352993845939636,-0.1893680840730667
1789022128712549600,10.147549560546874,-0.04520399495959282,0.06597339361906052,-0.2211330533027649
1789022128722474500,10.157474609375,-0.043982263654470444,0.04886918142437935,-0.21502439677715302
1789022128732399600,10.167399658203125,-0.06597339361906052,0.007330377586185932,-0.17348559200763702
1789022128742324500,10.177324462890626,-0.08552107214927673,-0.006108647678047419,-0.14782927930355072
1789022128752249600,10.18724951171875,-0.08063415437936783,0.018325943499803543,-0.14294235408306122
1789022128762174500,10.197174560546875,-0.046425722539424896,0.06230820715427399,-0.15638138353824615
1789022128772099600,10.207099609375,-0.010995565913617611,0.06597339361906052,-0.1588248461484909
1789022128782024400,10.2170244140625,0.01588248461484909,0.053756099194288254,-0.16249002516269684
1789022128791949600,10.226949462890625,0.021991131827235222,0.030543239787220955,-0.16615521907806396
1789022128801874400,10.23687451171875,0.026878049597144127,0.05497783049941063,-0.19181154668331146
1789022128811799600,10.246799560546876,0.03176496922969818,0.08429934084415436,-0.20280711352825165
1789022128821724700,10.256724609375,0.02932151034474373,0.0818558782339096,-0.18814635276794434
1789022128831649800,10.26664990234375,0.021991131827235222,0.06352993845939636,-0.13927717506885529
1789022128841574700,10.27657470703125,0.006108647678047419,0.050090912729501724,-0.09407317638397217
1789022128851499800,10.286499755859374,-0.003665188793092966,0.036651886999607086,-0.07330377399921417
1789022128861425000,10.2964248046875,-0.009773836471140385,0.03176496922969818,-0.08552107214927673
1789022128871350000,10.30635009765625,-0.0256563201546669,0.010995565913617611,-0.10751219838857651
1789022128881275000,10.31627490234375,-0.05864302068948746,-0.006108647678047419,-0.11606431007385254
1789022128891200000,10.326199951171875,-0.07574722915887833,0,-0.11484257876873016
1789022128901125000,10.336125,-0.06352993845939636,0.043982263654470444,-0.1185077652335167
1789022128911050000,10.346050048828126,-0.023212861269712448,0.09285144507884979,-0.09285144507884979
1789022128920975000,10.35597509765625,0.004886918235570192,0.11606431007385254,-0.04520399495959282
1789022128930900000,10.36589990234375,0.006108647678047419,0.07941242307424545,-0.001221729558892548
1789022128940825000,10.3758251953125,-0.002443459117785096,0.013439024798572063,0.006108647678047419
1789022128950750000,10.38575,0.007330377586185932,-0.01954767294228077,-0.001221729558892548
1789022128960675000,10.395675048828124,0.028099779039621353,0.009773836471140385,-0.021991131827235222
1789022128970600200,10.40560009765625,0.0513126403093338,0.05497783049941063,-0.04886918142437935
1789022128980525000,10.415525146484375,0.059864748269319534,0.05497783049941063,-0.08552107214927673
1789022128990450200,10.4254501953125,0.04520399495959282,0.05253437161445618,-0.14172062277793884
1789022129000375000,10.435375,0.02932151034474373,0.08674279600381851,-0.1747073233127594
1789022129010300200,10.445300048828125,0.024434590712189674,0.1331685185432434,-0.13439024984836578
1789022129020225300,10.455225341796876,0.03176496922969818,0.12461641430854797,-0.034208428114652634
1789022129030150100,10.465150146484374,0.04153880476951599,0.07452550530433655,0.04520399495959282
1789022129040075300,10.4750751953125,0.06230820715427399,0.02932151034474373,0.04886918142437935
1789022129050000400,10.48500048828125,0.08063415437936783,0.01588248461484909,-0.010995565913617611
1789022129059925500,10.494925537109374,0.07452550530433655,0.02932151034474373,-0.08796452730894089
1789022129069850400,10.504850341796875,0.050090912729501724,0.03787361457943916,-0.11362084746360779
1789022129079775500,10.514775390625,0.0256563201546669,0.05864302068948746,-0.0977383628487587
1789022129089700600,10.52470068359375,0.01588248461484909,0.08674279600381851,-0.07086031138896942
1789022129099625500,10.53462548828125,0.01588248461484909,0.1185077652335167,-0.06719512492418289
1789022129109550600,10.544550537109375,0.034208428114652634,0.15271618962287903,-0.06963858753442764
1789022129119475700,10.554475830078125,0.030543239787220955,0.15760311484336853,-0.036651886999607086
1789022129129400600,10.564400634765626,0.01588248461484909,0.16126830875873566,-0.003665188793092966
1789022129139325700,10.57432568359375,-0.001221729558892548,0.1380554437637329,0.010995565913617611
1789022129149250600,10.58425048828125,-0.036651886999607086,0.06597339361906052,-0.023212861269712448
1789022129159175700,10.59417578125,-0.08063415437936783,-0.021991131827235222,-0.09040798991918564
1789022129169100500,10.6041005859375,-0.12950333952903748,-0.05864302068948746,-0.14538581669330597
1789022129179025700,10.614025634765625,-0.17592905461788177,0.004886918235570192,-0.15515965223312378
1789022129188950500,10.623950439453125,-0.21991132199764252,0.12461641430854797,-0.08307760953903198
1789022129198875600,10.633875732421876,-0.27977606654167175,0.20402882993221283,0.020769402384757996
1789022129208800500,10.643800537109374,-0.3433060050010681,0.1747073233127594,0.036651886999607086
1789022129218725600,10.6537255859375,-0.4214966893196106,0.07941242307424545,-0.053756099194288254
1789022129228650500,10.663650390625,-0.5155698657035828,0.007330377586185932,-0.1588248461484909
1789022129238575600,10.67357568359375,-0.5888736248016357,0.012217295356094837,-0.1954767256975174
1789022129248500700,10.683500732421875,-0.6365211009979248,0.08063415437936783,-0.1795942485332489
1789022129258425900,10.69342578125,-0.6682860851287842,0.1893680840730667,-0.16004657745361328
1789022129268350700,10.703350830078126,-0.6914989352226257,0.2614501118659973,-0.17226386070251465
1789022129278275800,10.71327587890625,-0.7073814272880554,0.235793799161911,-0.20158538222312927
1789022129288201000,10.723200927734375,-0.7379246354103088,0.15271618962287903,-0.22479823231697083
1789022129298126000,10.7331259765625,-0.758694052696228,0.05253437161445618,-0.24923282861709595
1789022129308051000,10.743051025390624,-0.7806851863861084,-0.002443459117785096,-0.24556763470172882
1789022129317975800,10.752975830078125,-0.7733548283576965,-0.014660755172371864,-0.22724169492721558
1789022129327901000,10.76290087890625,-0.7623592615127563,0.013439024798572063,-0.22479823231697083
1789022129337825800,10.77282568359375,-0.7550288438796997,0.06475166976451874,-0.21746785938739777
1789022129347750700,10.782750732421874,-0.7440332770347595,0.12950333952903748,-0.1893680840730667
1789022129357675500,10.792675537109375,-0.7220421433448792,0.15027274191379547,-0.14294235408306122
1789022129367600400,10.802600341796875,-0.7024945020675659,0.06963858753442764,-0.08552107214927673
1789022129377525200,10.812525146484376,-0.6682860851287842,-0.10751219838857651,-0.06352993845939636
1789022129387450000,10.8224501953125,-0.6133082509040833,-0.2968802750110626,-0.1282816082239151
1789022129397375000,10.832375,-0.5668824911117554,-0.3127627670764923,-0.1795942485332489
1789022129407300000,10.842300048828125,-0.5094612240791321,-0.21502439677715302,-0.19181154668331146
1789022129417225200,10.85222509765625,-0.44348782300949097,-0.12461641430854797,-0.1893680840730667
1789022129427150300,10.862150390625,-0.36651885509490967,-0.0769689604640007,-0.1747073233127594
1789022129437075500,10.872075439453125,-0.25411975383758545,-0.07086031138896942,-0.14660754799842834
1789022129447000600,10.88200048828125,-0.12217295914888382,-0.10384701192378998,-0.13194678723812103
1789022129456925700,10.89192578125,0.004886918235570192,-0.1282816082239151,-0.1490510106086731
1789022129466850800,10.901850830078125,0.12950333952903748,-0.09529490768909454,-0.1844811588525772
1789022129476776200,10.911776123046875,0.2528980076313019,0.007330377586185932,-0.2162461280822754
1789022129486701300,10.921701416015624,0.37629270553588867,0.11728604137897491,-0.21258094906806946
1789022129496626400,10.93162646484375,0.48991355299949646,0.14294235408306122,-0.17715078592300415
1789022129506551600,10.941551513671875,0.5839866995811462,0.08307760953903198,-0.15515965223312378
1789022129516476700,10.9514765625,0.667064368724823,0.0513126403093338,-0.1637117564678192
1789022129526401500,10.961401611328125,0.7635809779167175,0.10506874322891235,-0.16859868168830872
1789022129536326700,10.97132666015625,0.8955277800559998,0.22968515753746033,-0.14049890637397766
1789022129546251800,10.981251708984376,1.0482439994812012,0.3543015718460083,-0.11484257876873016
1789022129556177000,10.991177001953124,1.1838558912277222,0.40927940607070923,-0.13927717506885529
1789022129566101800,11.001101806640625,1.2705987691879272,0.4056142270565033,-0.19181154668331146
1789022129576027000,11.01102685546875,1.284037709236145,0.4361574649810791,-0.21258094906806946
1789022129585952000,11.020951904296876,1.2779290676116943,0.3946186602115631,-0.22479823231697083
1789022129595877000,11.030877197265625,1.2901464700698853,0.36163195967674255,-0.19792018830776215
1789022129605802000,11.040802001953125,1.3402373790740967,0.34697118401527405,-0.15271618962287903
1789022129615727000,11.05072705078125,1.4269801378250122,0.35185810923576355,-0.11239911615848541
1789022129625652000,11.06065185546875,1.535714030265808,0.33597561717033386,-0.10751219838857651
1789022129635577000,11.0705771484375,1.6346741914749146,0.3249800503253937,-0.11117739230394363
1789022129645502000,11.080501953125,1.7067562341690063,0.3494146466255188,-0.11606431007385254
1789022129655427000,11.090427001953126,1.740964651107788,0.3836230933666229,-0.14049890637397766
1789022129665352000,11.10035205078125,1.7519601583480835,0.38240134716033936,-0.1637117564678192
1789022129675277000,11.110277099609375,1.7348560094833374,0.3445277214050293,-0.1649334877729416
1789022129685202200,11.1202021484375,1.6896519660949707,0.3029889166355133,-0.1637117564678192
1789022129695127000,11.130126953125,1.6236785650253296,0.2260199636220932,-0.1893680840730667
1789022129705052200,11.14005224609375,1.5515965223312378,0.10873392969369888,-0.20891575515270233
1789022129714977000,11.14997705078125,1.4856231212615967,0.043982263654470444,-0.17715078592300415
1789022129724902100,11.159902099609376,1.4575233459472656,0.10751219838857651,-0.11484257876873016
1789022129734827000,11.169826904296874,1.480736255645752,0.2809978127479553,-0.059864748269319534
1789022129744752000,11.179752197265625,1.5149446725845337,0.4361574649810791,-0.040317077189683914
1789022129754677000,11.189677001953125,1.4685189723968506,0.46547895669937134,-0.056199558079242706
1789022129764602000,11.19960205078125,1.352454662322998,0.34086254239082336,-0.09040798991918564
1789022129774527000,11.20952685546875,1.2168426513671875,0.08429934084415436,-0.11972949653863907
1789022129784452000,11.2194521484375,1.1227694749832153,-0.06230820715427399,-0.09162971377372742
1789022129794377000,11.229376953125,1.0580178499221802,-0.018325943499803543,-0.034208428114652634
1789022129804302000,11.239302001953124,1.0201442241668701,0.09285144507884979,0.006108647678047419
1789022129814227000,11.24922705078125,0.9847140312194824,0.1588248461484909,0.01954767294228077
1789022129824151800,11.25915185546875,0.9602794051170349,0.17837251722812653,0.046425722539424896
1789022129834076700,11.26907666015625,0.9260709881782532,0.11362084746360779,0.08063415437936783
1789022129844001500,11.27900146484375,0.8845322132110596,0.006108647678047419,0.11117739230394363
1789022129853926700,11.2889267578125,0.7831286191940308,-0.12705987691879272,0.10995566099882126
1789022129863851500,11.2988515625,0.6133082509040833,-0.22724169492721558,0.08552107214927673
1789022129873776400,11.3087763671875,0.43860089778900146,-0.1954767256975174,0.07452550530433655
1789022129883701200,11.318701171875,0.31031930446624756,-0.13561198115348816,0.08307760953903198
1789022129893626000,11.328626220703125,0.20891575515270233,-0.11362084746360779,0.11606431007385254
1789022129903551000,11.338551025390625,0.08918625861406326,-0.15760311484336853,0.13439024984836578
1789022129913476000,11.34847607421875,-0.06108647957444191,-0.26878049969673157,0.10140355676412582
1789022129923401200,11.358401123046875,-0.2211330533027649,-0.39828383922576904,0.020769402384757996
1789022129933326600,11.36832666015625,-0.37140578031539917,-0.481361448764801,-0.06230820715427399
1789022129943251700,11.378251708984376,-0.49602219462394714,-0.4886918365955353,-0.11606431007385254
1789022129953176800,11.3881767578125,-0.5998691916465759,-0.49113526940345764,-0.1490510106086731
1789022129963102000,11.39810205078125,-0.6841685771942139,-0.5180133581161499,-0.1649334877729416
1789022129973027000,11.408027099609376,-0.7476984858512878,-0.4972439408302307,-0.1490510106086731
1789022129982952200,11.4179521484375,-0.7770199775695801,-0.39828383922576904,-0.11117739230394363
1789022129992877300,11.427877197265625,-0.7819069027900696,-0.2577849328517914,-0.11606431007385254
1789022130002802700,11.437802734375,-0.8063415288925171,-0.1649334877729416,-0.18814635276794434
1789022130012727600,11.4477275390625,-0.8600975871086121,-0.22235478460788727,-0.2993237376213074
1789022130022652700,11.457652587890625,-0.9236275553703308,-0.3543015718460083,-0.36774060130119324
1789022130032577500,11.46757763671875,-1.0140355825424194,-0.3946186602115631,-0.370184063911438
1789022130042502700,11.477502685546876,-1.0983349084854126,-0.32009315490722656,-0.3481929302215576
1789022130052427500,11.487427490234374,-1.1447606086730957,-0.17348559200763702,-0.3335321843624115
1789022130062352600,11.4973525390625,-1.1704169511795044,0.01588248461484909,-0.32131487131118774
1789022130072277500,11.507277587890625,-1.2180644273757935,0.17715078592300415,-0.27366742491722107
1789022130082202600,11.51720263671875,-1.2742639780044556,0.2663370370864868,-0.19914191961288452
1789022130092127500,11.52712744140625,-1.3597849607467651,0.2663370370864868,-0.13194678723812103
1789022130102052600,11.537052490234375,-1.4575233459472656,0.2260199636220932,-0.11972949653863907
1789022130111977500,11.5469775390625,-1.5601485967636108,0.1844811588525772,-0.1649334877729416
1789022130121902600,11.556902587890624,-1.646891474723816,0.15027274191379547,-0.2211330533027649
1789022130131827500,11.566827392578125,-1.64566969871521,0.11117739230394363,-0.2101374864578247
1789022130141752600,11.576752685546875,-1.6322306394577026,0.09651663154363632,-0.14660754799842834
1789022130151677700,11.586677734375,-1.6126830577850342,0.07452550530433655,-0.12705987691879272
1789022130161602600,11.5966025390625,-1.6102395057678223,-0.014660755172371864,-0.13439024984836578
1789022130171527700,11.606527587890625,-1.6139047145843506,-0.08307760953903198,-0.14782927930355072
1789022130181452500,11.61645263671875,-1.6126830577850342,-0.08674279600381851,-0.16004657745361328
1789022130191377700,11.626377685546874,-1.6016874313354492,-0.01954767294228077,-0.13439024984836578
1789022130201302500,11.636302490234375,-1.6444480419158936,0.046425722539424896,-0.06475166976451874
1789022130211227400,11.646227294921875,-1.703091025352478,0.1233946830034256,-0.002443459117785096
1789022130221152500,11.656152587890626,-1.6884303092956543,0.09285144507884979,0.03298669680953026
1789022130231077600,11.66607763671875,-1.64566969871521,0,0.06475166976451874
1789022130241002800,11.676002685546875,-1.5638138055801392,-0.07819069176912308,0.1331685185432434
1789022130250927600,11.685927734375,-1.4538581371307373,-0.1539379209280014,0.21502439677715302
1789022130260852700,11.695852783203126,-1.2999202013015747,-0.14049890637397766,0.28466299176216125
1789022130270777900,11.70577783203125,-1.158199667930603,-0.0720820426940918,0.31520622968673706
1789022130280702700,11.71570263671875,-1.0702351331710815,-0.05742128938436508,0.2968802750110626
1789022130290627800,11.7256279296875,-1.0213658809661865,-0.11362084746360779,0.27366742491722107
1789022130300553000,11.735552978515624,-0.9615011811256409,-0.20769402384757996,0.2834412455558777
1789022130310478000,11.74547802734375,-0.8258891701698303,-0.21868959069252014,0.3127627670764923
1789022130320403000,11.75540283203125,-0.6414080262184143,-0.1637117564678192,0.31520622968673706
1789022130330327800,11.765327880859376,-0.4838049113750458,-0.18203771114349365,0.287106454372406
1789022130340252700,11.775252685546874,-0.3335321843624115,-0.25045454502105713,0.28954991698265076
1789022130350177500,11.785177490234375,-0.18203771114349365,-0.21258094906806946,0.2981020212173462
1789022130360102400,11.795102294921875,0.003665188793092966,-0.07452550530433655,0.2675587832927704
1789022130370027300,11.80502734375,0.21380266547203064,0.14294235408306122,0.24556763470172882
1789022130379952400,11.814952392578125,0.43493571877479553,0.3738492429256439,0.19914191961288452
1789022130389877200,11.824877197265625,0.6291907429695129,0.4569268524646759,0.12095122784376144
1789022130399802000,11.834802001953125,0.8075632452964783,0.4202749729156494,0.0720820426940918
1789022130409727000,11.84472705078125,0.9822705388069153,0.37629270553588867,0.03298669680953026
1789022130419652000,11.854652099609375,1.1398736238479614,0.3298669755458832,0.001221729558892548
1789022130429577200,11.8645771484375,1.2681553363800049,0.27977606654167175,-0.009773836471140385
1789022130439502300,11.87450244140625,1.3683371543884277,0.2626718580722809,-0.010995565913617611
1789022130449427500,11.884427490234375,1.4379756450653076,0.34208428859710693,-0.043982263654470444
1789022130459352600,11.8943525390625,1.5051708221435547,0.39828383922576904,-0.1026252806186676
1789022130469277700,11.904277587890626,1.5906919240951538,0.4935787320137024,-0.11972949653863907
1789022130479202600,11.91420263671875,1.6957606077194214,0.6805033683776855,-0.10140355676412582
1789022130489127700,11.924127685546875,1.7886121273040771,0.8845322132110596,-0.1026252806186676
1789022130499052800,11.934052734375,1.860694169998169,0.9883792400360107,-0.0977383628487587
1789022130508978000,11.94397802734375,1.9095633029937744,0.915075421333313,-0.05253437161445618
1789022130518903000,11.953903076171875,1.9144501686096191,0.833219587802887,-0.013439024798572063
1789022130528828000,11.963827880859375,1.9107850790023804,0.7024945020675659,-0.020769402384757996
1789022130538753000,11.9737529296875,1.8900156021118164,0.6010909676551819,-0.06963858753442764
1789022130548678000,11.983677978515624,1.8704679012298584,0.5436696410179138,-0.10506874322891235
1789022130558603000,11.99360302734375,1.8533637523651123,0.5033525824546814,-0.10995566099882126
1789022130568528000,12.00352783203125,1.820376992225647,0.47525280714035034,-0.13927717506885529
1789022130578453000,12.013452880859376,1.750738501548767,0.4276053309440613,-0.19914191961288452
1789022130588378000,12.023378173828124,1.6896519660949707,0.4630354940891266,-0.20402882993221283
1789022130598303000,12.033302978515625,1.6407828330993652,0.6084213256835938,-0.15638138353824615
1789022130608228000,12.04322802734375,1.5748094320297241,0.7538071274757385,-0.10751219838857651
1789022130618153000,12.053153076171874,1.5198315382003784,0.7134900689125061,-0.11239911615848541
1789022130628078000,12.063078125,1.4196497201919556,0.5338957905769348,-0.13439024984836578
1789022130638003000,12.0730029296875,1.284037709236145,0.35185810923576355,-0.17348559200763702
1789022130647928000,12.082927978515626,1.1679733991622925,0.24312418699264526,-0.2003636509180069
1789022130657853000,12.09285302734375,1.0641264915466309,0.22479823231697083,-0.17104214429855347
1789022130667778000,12.102778076171875,0.952949047088623,0.24556763470172882,-0.1331685185432434
1789022130677703000,12.112702880859375,0.8637627959251404,0.30543237924575806,-0.11362084746360779
1789022130687628000,12.1226279296875,0.7867938280105591,0.23823726177215576,-0.09285144507884979
1789022130697553000,12.132552978515625,0.7122683525085449,0.07819069176912308,-0.0513126403093338
1789022130707478000,12.14247802734375,0.6157516837120056,-0.06352993845939636,-0.009773836471140385
1789022130717403000,12.15240283203125,0.4984656572341919,-0.16859868168830872,0.008552107028663158
1789022130727328000,12.162327880859374,0.3848448097705841,-0.24556763470172882,-0.009773836471140385
1789022130737252900,12.1722529296875,0.2577849328517914,-0.3384190797805786,-0.04764745384454727
1789022130747178000,12.182177978515625,0.12095122784376144,-0.4972439408302307,-0.10140355676412582
1789022130757103000,12.19210302734375,-0.012217295356094837,-0.5949822664260864,-0.1282816082239151
1789022130767028000,12.202028076171874,-0.11606431007385254,-0.6206386089324951,-0.12950333952903748
1789022130776953000,12.211953125,-0.2211330533027649,-0.6071996092796326,-0.13072505593299866
1789022130786878000,12.2218779296875,-0.360410213470459,-0.5998691916465759,-0.1698204129934311
1789022130796803000,12.231802978515624,-0.5351175665855408,-0.5754346251487732,-0.27000224590301514
1789022130806728000,12.24172802734375,-0.730594277381897,-0.41783151030540466,-0.33719736337661743
1789022130816652800,12.25165283203125,-0.916297197341919,-0.017104214057326317,-0.26022839546203613
1789022130826577700,12.26157763671875,-1.0665699243545532,0.2309068888425827,-0.13927717506885529
1789022130836502800,12.271502685546874,-1.1398736238479614,0.20402882993221283,-0.06841685622930527
1789022130846427600,12.281427734375,-1.1533126831054688,0.030543239787220955,-0.004886918235570192
1789022130856352500,12.2913525390625,-1.12765634059906,-0.10751219838857651,0.09407317638397217
1789022130866277400,12.30127734375,-1.0885610580444336,-0.23212862014770508,0.16249002516269684
1789022130876202200,12.3112021484375,-1.0201442241668701,-0.28954991698265076,0.15638138353824615
1789022130886127000,12.321127197265625,-0.962722897529602,-0.370184063911438,0.05253437161445618
1789022130896052000,12.331052001953125,-0.943175196647644,-0.5143481492996216,-0.0818558782339096
1789022130905976800,12.340976806640626,-0.9896009564399719,-0.6731730103492737,-0.19303326308727264
1789022130915902000,12.35090185546875,-1.0836740732192993,-0.6878337264060974,-0.25534147024154663
1789022130925827000,12.3608271484375,-1.1520910263061523,-0.5583304166793823,-0.27000224590301514
1789022130935752200,12.370752197265626,-1.1545344591140747,-0.4153880476951599,-0.24312418699264526
1789022130945677300,12.38067724609375,-1.0958913564682007,-0.29565855860710144,-0.17837251722812653
1789022130955602400,12.3906025390625,-1.061682939529419,-0.21258094906806946,-0.10629047453403473
