time,seconds_elapsed,z,y,x
1789620128867022300,0.050022216796875,-0.9386474622905254,1.303188045924902,1.8960934408143162
1789620128876994300,0.059994384765625,-0.8518196581870316,1.6236270375043154,2.06384303984791
1789620128886966300,0.06996630859375,-0.7376081725955009,1.7856553362816572,2.137328985688835
1789620128896938200,0.079938232421875,-0.5678904883593321,1.9412071325212716,2.0234104916945097
1789620128906911500,0.089911376953125,-0.21833821502029893,1.9087731819063425,1.5235023833237586
1789620128916883200,0.09988330078125,0.33665245975553987,1.6453654065817593,0.74525181921646
1789620128926855400,0.10985546875,0.9320289209336042,1.1320710162848233,-0.1436832254000008
1789620128936828400,0.119828369140625,1.567587754896283,0.46756139764785765,-0.9949601550124585
1789620128946800000,0.129800048828125,2.121471929734945,-0.17721125486195086,-1.6507403776183724
1789620128956772400,0.1397724609375,2.3600609056234356,-0.6231757377296686,-2.037581932649016
1789620128966745300,0.149745361328125,2.1033166798412797,-0.8031897750526666,-2.1144255183547735
1789620128976717300,0.15971728515625,1.3609148432284592,-0.7229372576862573,-2.0185969539329407
1789620128986689300,0.169689208984375,0.36935353687405587,-0.4750175588726997,-1.9890170775748788
1789620128996661500,0.17966162109375,-0.6998761155724526,-0.21336276469528673,-1.9030401912122963
1789620129006634200,0.18963427734375,-1.5665262631446122,-0.07523205885589122,-1.8901602513730524
1789620129016606200,0.199606201171875,-2.065745950859785,-0.07206278117001057,-1.9838599870726465
1789620129026578200,0.209578125,-2.0570669698417188,-0.3518921144634485,-2.151615723586082
1789620129036551200,0.21955126953125,-1.5760440330743788,-0.7168553074240684,-2.0769899600602684
1789620129046523400,0.2295234375,-0.9082090694069862,-0.9461129758656024,-1.5261980521485208
1789620129056495000,0.2394951171875,-0.475153167951107,-0.8900847991734743,-0.7558368530515581
1789620129066468400,0.24946826171875,-0.34319325970113274,-0.6619324616253376,-0.13721746345199642
1789620129076440300,0.2594404296875,-0.3122135995477438,-0.2556798114210367,0.277645961372368
1789620129086412300,0.269412353515625,-0.1915180126339197,0.06381108565330505,0.6011854397177696
1789620129096385300,0.27938525390625,-0.13148995265066624,0.1271428633570671,0.861819731741026
1789620129106357200,0.289357177734375,-0.010588029509782791,-0.04027355819940567,1.038991896701604
1789620129116329200,0.2993291015625,0.12989713050127027,-0.43064533318281173,1.0128107959363608
1789620129126302200,0.30930224609375,0.12455343138575553,-0.757244600957632,0.8377217939253896
1789620129136274400,0.3192744140625,-0.43069209493398664,-1.3359756322830916,0.13753104117950424
1789620129146246100,0.32924609375,-0.661092503669858,-2.0085732803076506,-0.41455556445159014
1789620129156218400,0.33921826171875,-0.829504366004467,-2.3387001376867294,0.03596307458914816
1789620129166191400,0.34919140625,-1.0274953740447759,-1.5528841067612171,0.7338344262104481
1789620129176163000,0.3591630859375,-0.6752554690569639,-0.534844543325901,1.3417818343438208
1789620129186135300,0.36913525390625,-0.35304186902046203,-0.23591420372128485,1.7185457936048507
1789620129196108300,0.3791083984375,0.018584873482584953,-0.2743184609174728,1.8623932696558534
1789620129206080300,0.389080322265625,0.11352876402437687,-0.45436756955385205,2.1028215898007154
1789620129216052200,0.39905224609375,0.3199602681517601,-0.15895020650625227,1.9544053445294498
1789620129226025200,0.409025146484375,0.88681030754745,0.10579437038004398,1.077464762154594
1789620129235997200,0.4189970703125,1.7839064467877148,0.0007797522008419036,0.38823637038990855
1789620129245969400,0.428969482421875,2.2485943348258735,-0.4345850107192993,0.33059257519468666
1789620129255941400,0.43894140625,2.143061830252409,-0.785396928730607,0.7159554359748959
1789620129265914000,0.4489140625,1.5953022757738828,-0.8772223949909209,1.295049163132906
1789620129275886300,0.45888623046875,0.8656950388044118,-0.651806496669352,1.7544582339853048
1789620129285858300,0.4688583984375,0.1667138262450695,-0.22712533258795736,1.910148561912775
1789620129295831300,0.478831298828125,-0.4012742772698402,-0.10760317336767912,1.7284049243181943
1789620129305803300,0.48880322265625,-1.399737033575773,-2.6755945895045996,0.2777387907549739
1789620129315775500,0.498775390625,-0.5278425556093455,-2.5039520746856927,0.2851414682269096
1789620129325748200,0.508748291015625,1.4236638526082037,-0.5347744006991386,0.8469105510964989
1789620129335720200,0.51872021484375,-0.26471710435748097,-2.2435323752611875,0.37829175335019827
1789620129345692400,0.5286923828125,-1.8606448185533284,-2.3227017735660076,0.005417202743142843
1789620129355665200,0.5386650390625,-4.54798537543118,0.04916588970720768,-1.2721825206778943
1789620129365637400,0.548637451171875,-3.30592838229537,0.6690496001541614,-2.090902165556699
1789620129375609300,0.558609375,-3.669109952536225,-1.475458337253332,-0.7418548702545463
1789620129385581300,0.568581298828125,-5.913452475136518,-3.601564941051602,0.7037288454778492
1789620129395554300,0.57855419921875,-6.242466987359523,-4.049835947296023,0.6978007706031203
1789620129405526300,0.5885263671875,-3.261527515032887,-3.941941389766335,0.33297512294966725
1789620129415498200,0.598498291015625,-2.2462568317890166,-5.496617056119442,-0.8467510496858507
1789620129425471200,0.60847119140625,-2.8108523702561854,-6.05226122636795,-1.6859367786839603
1789620129435443500,0.618443359375,-1.8260194953739641,-5.030448574134708,-2.9690491280466316
1789620129445415200,0.628415283203125,0.0373790058016777,-2.071176159214973,-7.371987734639644
1789620129455388400,0.638388427734375,1.3238321900248526,0.08167758173346519,-9.569288520079851
1789620129465360400,0.6483603515625,2.627985866111517,-0.7262018124401569,-4.180943622630834
1789620129475332900,0.658332763671875,3.762339440375566,-1.6338739984914659,1.025089481946826
1789620129485305900,0.668305908203125,2.3058348099172115,-2.0386647594496607,3.015242723944783
1789620129495277600,0.678277587890625,2.6373639353096485,-1.346407594448328,4.503323811405897
1789620129505249800,0.688249755859375,2.334666936647892,-0.70985858040452,5.072846869403124
1789620129515221500,0.698221435546875,1.0618886420339346,-1.0866183018818496,4.089271593366563
1789620129525194800,0.70819482421875,-0.3058879036575556,-1.7368842911109328,2.51977215963006
1789620129535166700,0.718166748046875,-1.4133113854199648,-1.747335250237584,1.3810899085119366
1789620129545138700,0.728138671875,-2.758282809585333,-1.6857795422956345,0.9957169647291302
1789620129555111700,0.738111572265625,-3.79280705935359,-1.7822616021901367,1.3550015275314449
1789620129565083600,0.748083740234375,-3.6593840928137302,-2.1149439892709254,2.005069656100869
1789620129575055600,0.7580556640625,-3.1976439486652612,-2.2624214923873542,2.337753212225437
1789620129585028600,0.768028564453125,-3.353642904150486,-1.5964163744956255,2.68102012168467
1789620129595000800,0.778000732421875,-3.5785984914839264,-0.7953986827850341,2.6299855154961347
1789620129604972500,0.78797265625,-3.2076760978579517,-2.2081895514622327,2.3786837730288504
1789620129614945500,0.797945556640625,-2.0751684437215325,-2.8667630580484866,2.541998019963503
1789620129624917800,0.807917724609375,-2.335120525634289,-2.162005600175261,2.470269000792503
1789620129634889700,0.8178896484375,-2.916378445088863,-1.9062202825531362,2.237375021675229
1789620129644861700,0.82786181640625,-2.8395956496596333,-2.7390216442763804,1.4499720138192176
1789620129654834700,0.837834716796875,-2.7148434808313846,-3.5718358654811975,0.11339900016486644
1789620129664806700,0.847806640625,-1.9389815654262899,-4.3673157968088985,-0.8524778298348188
1789620129674778600,0.857778564453125,0.3010451398015022,-5.3356695383161306,-1.6598001746475695
1789620129684752000,0.867751953125,2.1875731721520424,-5.136090968823432,-1.984004656240344
1789620129694723600,0.8777236328125,2.3990777417600153,-4.478970291393995,-0.8506471072763204
1789620129704695800,0.88769580078125,1.2472279660329222,-3.468314700730145,0.463151764512062
1789620129714668800,0.897668701171875,0.05357596123442054,-2.974363601067662,1.3489678003251553
1789620129724640500,0.907640625,-0.4698896213997155,-2.5269611943513155,1.4803174677222966
1789620129734612700,0.91761279296875,-0.8289145834177732,-2.494018125170469,1.652234707829356
1789620129744585700,0.927585693359375,-1.0632499935150146,-2.5754700814545153,1.2962211295217274
1789620129754557700,0.9375576171875,-1.1429846244871615,-2.608844820050895,0.7656032639801502
1789620129764529700,0.94752978515625,-0.7844260378718376,-2.6867472671598196,0.2788368151247501
1789620129774501600,0.957501708984375,0.1476512522481382,-2.749733007904887,-0.10642331593334674
1789620129784474600,0.967474609375,1.1237060696519912,-2.9156261654168367,0.2087023716688156
1789620129794446600,0.977446533203125,2.0482512107014657,-2.7692753282427787,1.0649497831702233
1789620129804418600,0.98741845703125,3.1035739183485505,-2.46312234390825,1.8722183519691227
1789620129814391600,0.9973916015625,3.5866976267874238,-2.1772326876625416,2.742502472129464
1789620129824363800,1.00736376953125,3.316655235753953,-1.606717403757572,3.5095044969916342
1789620129834335500,1.01733544921875,2.698893339766562,-1.0271795130286365,3.490379525282979
1789620129844308700,1.027308837890625,2.220295584319532,-0.765806969858706,3.40374753601253
1789620129854280700,1.03728076171875,2.0560005096539853,-0.5019916366465389,4.075642588725686
1789620129864252700,1.047252685546875,2.328288341526687,-0.1977604141548276,4.741215452679992
1789620129874225700,1.0572255859375,2.7067481449201702,0.1024244555555284,4.9058314298629755
1789620129884197600,1.06719775390625,2.733843072594702,0.6497418192245066,4.644325104245543
1789620129894169600,1.077169677734375,3.0248221609339114,1.1527440942183136,3.882048354339599
1789620129904141600,1.0871416015625,4.252723787467182,1.4731557593993843,3.416358595782518
1789620129914114800,1.09711474609375,3.4252526808559893,1.6275547323420643,4.007718222534656
1789620129924086500,1.10708642578125,1.763762361164391,1.9565549237787723,3.9466538052409885
1789620129934058800,1.117058837890625,1.1745838778436184,2.2929721134737133,4.401186209967732
1789620129944031700,1.12703173828125,3.118299193793535,2.726010187011957,4.332732851466536
1789620129954003500,1.13700341796875,5.402876111626624,2.8966256968706845,5.449627341407537
1789620129963975700,1.1469755859375,5.240056370210647,2.7043694330900907,6.657618983334302
1789620129973948700,1.15694873046875,5.616397281754017,3.197053581556678,7.783389438170194
1789620129983920600,1.166920654296875,5.0142099715173245,4.313422294057905,9.237883313328027
1789620129993892600,1.176892578125,2.709415610563755,5.353618451982737,10.890956810069083
1789620130003865600,1.186865478515625,-0.8336483339414,6.735691234052181,12.296620895606278
1789620130013837600,1.196837646484375,-7.4594485759496685,8.703896848136186,13.501013051736354
1789620130023809800,1.206809814453125,-8.774674265670775,9.245237767744063,12.089774965459108
1789620130033781800,1.21678173828125,-7.244941901916265,9.097558896836638,10.14893666625023
1789620130043754500,1.22675439453125,-6.1945923065066335,8.3201266633749,8.371109831637144
1789620130053726700,1.236726806640625,-4.519505715399981,7.453854116943478,6.7329621013492345
1789620130063698700,1.24669873046875,-2.881203086811304,6.826837485876679,5.332012769374251
1789620130073671700,1.256671630859375,-1.9128056522928176,6.103394616755843,3.302082228261232
1789620130083643600,1.2666435546875,-1.075114326570928,5.4764031201303,1.224799568864703
1789620130093615900,1.276615966796875,-1.0946925950050352,4.971302557682991,-0.24703356362879275
1789620130103588600,1.286588623046875,-1.1935130347192286,4.614475324904919,-1.1348036561191082
1789620130113560600,1.296560546875,-1.4207456270739436,4.280393884681165,-1.5318997709214686
1789620130123532800,1.30653271484375,-1.9713354365423321,3.369538392418623,-2.6313848609000443
1789620130133505500,1.316505615234375,-2.1556196985304354,2.273624292794615,-3.5037907955199477
1789620130143477800,1.326477783203125,-2.18619720762372,1.5118189597927032,-2.2330326085567473
1789620130153449700,1.33644970703125,-2.957000670595467,0.9593423136644065,-0.7644383118540048
1789620130163422500,1.34642236328125,-1.279686758828163,-0.18390695310831068,0.37412440453767776
1789620130173394700,1.356394775390625,3.0029332774698734,-2.486508187931776,0.6103817226082087
1789620130183366700,1.36636669921875,-2.95788066830039,-0.1681720622293651,-1.458535259503126
1789620130193338600,1.376338623046875,-3.8296354455351826,0.8952624940723181,-0.2654261294096708
1789620130203311600,1.3863115234375,-1.1629447318457067,0.5431048605404794,2.9570681828737255
1789620130213283800,1.396283935546875,-0.5653166923485696,0.8466041154958307,3.067882427242398
1789620130223255600,1.406255615234375,0.6210040927790105,0.23840861435290425,0.809442405706644
1789620130233228800,1.416228759765625,1.5167676682412623,-0.34303938431367276,-1.3247878833144902
1789620130243200800,1.42620068359375,2.822684262347221,-1.3493871947810052,-3.1259032390564676
1789620130253172700,1.4361728515625,3.888030351358652,-3.6979385721355675,-6.496250025248528
1789620130263145700,1.446145751953125,4.584512732839584,-3.800119428193569,-6.82221099511981
1789620130273117700,1.45611767578125,4.6335552884280675,-7.092420851674675,-8.285949083963036
1789620130283089700,1.466089599609375,-0.04805909750908613,-7.388661221542954,-8.104473157393931
1789620130293062700,1.476062744140625,-3.841533973121643,-4.722550499698519,-3.9703058989852664
1789620130303035000,1.486034912109375,-3.6765886178538203,-4.4775849745154375,-1.2158318340331316
1789620130313006600,1.496006591796875,-2.5999218011438847,-3.595660685443878,-0.9291466434955596
1789620130322979600,1.5059794921875,-1.6721148818194864,-2.5907813400939106,-1.0820306818306444
1789620130332951800,1.515951904296875,-0.9019409489229321,-2.038368845243007,-0.9545943884849548
1789620130342923500,1.525923583984375,-0.23243892882615327,-1.411867031830549,-0.9375164124339819
1789620130352895700,1.535895751953125,0.5129927770018577,-1.0123802955646066,-0.9122831869781016
1789620130362868700,1.54586865234375,0.7934531016752123,-0.5760166943328455,-1.2254215001553297
1789620130372840700,1.5558408203125,0.8558113581717014,-0.5068041514948011,-1.5633827044218778
1789620130382812700,1.565812744140625,0.48196401700973507,-0.5281634581267833,-1.8547990151345728
1789620130392785700,1.57578564453125,0.28418767463341355,-0.8514382576540112,-2.3341969810485836
1789620130402757600,1.585757568359375,-0.5119840383507311,-0.534552720772475,-2.6431056938320396
1789620130412729900,1.595729736328125,-1.10288510768041,-0.29620559081584213,-2.529813076651096
1789620130422702800,1.605702880859375,-0.21973244585767387,-0.5639573866941034,-1.8558663521051406
1789620130432674600,1.615674560546875,0.03138414930105209,-0.7905877023067325,-0.9004074557453393
1789620130442646800,1.625646728515625,-0.9780546859841793,-0.91279902754575,-0.839248930427432
1789620130452619800,1.635619873046875,-0.8615396726906299,-1.0255090225331485,-0.9925532400012016
1789620130462591700,1.645591796875,0.16520225263833999,-1.7058976166948676,-1.5965180813044308
1789620130472563700,1.655563720703125,1.1474386812865733,-1.750367749801278,-0.1364502054065466
1789620130482536000,1.665535888671875,0.8632686153750866,-1.0810407940104603,2.1959715826630593
1789620130492507600,1.675507568359375,0.6522703147888184,-0.8613212076343596,1.5466554415047167
1789620130502480000,1.68547998046875,-0.5324047854909673,-1.0218176206693053,-1.5545470715373753
1789620130512451600,1.69545166015625,-0.7753671176254748,-1.543051864054799,-4.333967361697554
1789620130522424600,1.705424560546875,-10.435775586044787,1.921825555703044,-17.8218432839632
1789620130532396800,1.715396728515625,-17.933662321460247,4.20265071978718,-14.330778114503621
1789620130542368800,1.72536865234375,-11.10124440510273,7.775988222002983,2.494322076553106
1789620130552341800,1.735341796875,-1.7660639161050318,5.26079053068161,17.443188834780454
1789620130562313700,1.745313720703125,7.038051548105478,-0.4520853038355708,27.09508432639837
1789620130572285700,1.75528564453125,15.750812086176872,-0.7206710663199424,25.159912382388114
1789620130582258700,1.7652587890625,20.93056684015989,1.8661150666579602,16.497141325366496
1789620130592231000,1.77523095703125,22.82754378581047,0.7694611084520816,11.837895130842924
1789620130602202600,1.78520263671875,22.84071189494133,-1.2446955249458551,10.465938084596395
1789620130612175600,1.795175537109375,20.069077436351776,-2.55832196277678,8.332554183271526
1789620130622147800,1.80514794921875,13.22932493932247,-4.047750957715511,3.3869933850884437
1789620130632119600,1.81511962890625,-6.93627342762947,-6.078537823396921,-6.114742524722218
1789620130642092800,1.8250927734375,-32.152264840114114,-5.750246949273348,-11.740067209297418
1789620130652064800,1.835064697265625,-17.290625114440918,-3.7825498692333697,-5.783707904848456
1789620130662036700,1.84503662109375,-7.012218018668889,-5.786917514544725,-0.7053080774933099
1789620130672009700,1.855009765625,-3.210266698873043,-7.615178651365637,-2.662885330057144
1789620130681981700,1.864981689453125,-1.334033266043663,-7.7091200868666165,-6.299079101419449
1789620130691953700,1.87495361328125,-0.4512543329041451,-7.575895273247361,-6.683476478168368
1789620130701926700,1.8849267578125,0.024223756152391432,-7.373529118862748,-5.787307975167035
1789620130711899000,1.89489892578125,0.4911000941455364,-7.140401915511489,-5.225753704091907
1789620130721870600,1.90487060546875,0.5234907901406288,-6.6927855737835165,-5.216798828741908
1789620130731842800,1.9148427734375,0.5544447313308716,-4.9599569878041745,-5.760023077878356
1789620130741815800,1.92481591796875,0.3394716818947345,-2.6838112137079237,-3.8172389052987095
1789620130751787800,1.934787841796875,1.4873615410149097,-1.9239277886793016,0.8741963251680135
1789620130761759700,1.944759765625,3.5988171036481855,-1.9854539782658218,4.020874056705832
1789620130771732700,1.954732666015625,1.7592859464026986,-0.6772291072174906,5.793755836132169
1789620130781704700,1.96470458984375,0.15231106075271963,-0.5456427084550262,5.620105488622189
1789620130791676700,1.9746767578125,2.905513352203369,-2.3049489669933916,3.890483005207777
1789620130801650000,1.98464990234375,6.551102728420496,-1.8649848935842512,3.0548019963949917
1789620130811621600,1.99462158203125,4.263717767429352,-0.3899576412245631,3.208534175992012
1789620130821593900,2.00459375,0.482872364026308,0.364065951859951,4.133257742348313
1789620130831566800,2.01456689453125,-1.5065338589966297,0.6161006847769022,4.338635353508591
1789620130841538600,2.02453857421875,-0.22105799537301063,0.3666010232955217,3.6786733151733872
1789620130851510800,2.0345107421875,0.9594668168269097,0.43416415495872496,3.0541087534338236
1789620130861483800,2.04448388671875,0.9167534642599523,0.10071779776811599,1.669784393045306
1789620130871455700,2.054455810546875,0.6379566888846456,-0.17187632357478141,0.05140051689147949
1789620130881427700,2.064427734375,-0.03731938456892967,0.05937748712003231,-0.880765766686201
1789620130891400700,2.074400634765625,-0.20198036993741988,0.4807815292268991,-0.5483692108094692
1789620130901372700,2.08437255859375,1.033321303719282,1.0409440536826848,0.7596101610451936
1789620130911344600,2.0943447265625,3.054885583025217,2.1010843907445667,1.615887967684865
1789620130921318000,2.10431787109375,-1.099337205940485,3.5020459976792333,3.3912902054995295
1789620130931289600,2.11428955078125,0.6687561701655388,2.873071802803874,5.024278361067176
1789620130941261800,2.12426171875,2.0727020536080003,3.2883991553455587,3.9223037923604247
1789620130951233800,2.13423388671875,-1.4863886043295262,2.837621426977217,2.884800819042325
1789620130961206800,2.144206787109375,-3.1884301301181313,3.9767610664740203,2.0783722081989047
1789620130971178800,2.1541787109375,-4.651989939785003,2.677106455372274,0.7157341944396496
1789620130981151000,2.16415087890625,-0.3687245913207531,0.6106117319718003,-0.7309358552247286
1789620130991123700,2.174123779296875,1.7355844605587423,2.4899855086535214,-0.7169546761453152
1789620131001095700,2.184095703125,-0.39514483460411426,3.6011692197322844,0.5452490329623222
1789620131011068000,2.19406787109375,-1.35867553986907,2.791499727271497,2.5227275023043156
1789620131021040600,2.20404052734375,-0.4543780909478664,2.5401784033209083,2.9351310763537883
1789620131031012900,2.214012939453125,-1.1128595353364943,3.073255352452397,1.9119857142120598
1789620131040984800,2.22398486328125,-0.9541371462367475,2.0577961608991027,1.1984633506029843
1789620131050957600,2.23395751953125,-0.634560762836039,1.5759996094107627,0.7329284903466701
1789620131060929800,2.2439296875,-0.6122437170878052,1.4684008199572562,0.37105157296359537
1789620131070901800,2.25390185546875,0.15275895065069198,0.7074599948301911,-0.1962012020140886
1789620131080874800,2.263874755859375,0.7450815772160887,0.26353958501070734,-1.4747639252483844
1789620131090846700,2.2738466796875,1.8489535039767622,1.0167629676282406,-0.3760170864164829
1789620131100819000,2.28381884765625,3.7457124229624865,0.2371763326115906,0.18263561799824238
1789620131110791700,2.293791748046875,1.7135668361485004,0.3231993962034583,-1.947580759206414
1789620131120764000,2.303763916015625,1.048681662197411,2.0454495972841977,-0.5984720891058445
1789620131130735900,2.31373583984375,-0.5702057795643806,2.39028054118976,-3.7520068469315766
1789620131140708600,2.32370849609375,0.05518588064908981,1.3004901851430535,-3.794385852977633
1789620131150680800,2.333680908203125,1.4034697903633118,0.3409914022753015,-5.478843499019741
1789620131160652800,2.34365283203125,0.487247802631557,1.4717147668108344,-4.605484209197759
1789620131170625800,2.353625732421875,0.3759779234498739,1.435246738374233,-2.9361785395801068
1789620131180597800,2.36359765625,1.6163880261614918,-0.15881874387999995,-3.8058699545443058
1789620131190570000,2.373570068359375,1.8055264501824975,-2.6302371521696446,-6.453485234755277
1789620131200542700,2.383542724609375,1.2178025495842097,-4.081679530802369,-9.487207033720612
1789620131210514700,2.3935146484375,0.9877642521589994,-4.972158882251382,-9.160036103537678
1789620131220487000,2.40348681640625,0.33020576783418654,-4.96078525532186,-6.570222439432143
1789620131230458600,2.413458740234375,0.09228460820466279,-4.22924646576792,-3.579236789387464
1789620131240431900,2.423431884765625,0.7350760237693786,-4.435495014543831,-1.879834672191739
1789620131250403800,2.43340380859375,1.6206629270017145,-4.563856606040895,-0.28093875584006306
1789620131260375800,2.443375732421875,2.383366085626185,-3.2058392378196117,1.2263614113539456
1789620131270348800,2.453348876953125,2.1360893608912823,-2.845368387842178,1.815878040587902
1789620131280320800,2.46332080078125,0.8927475886419415,-3.1700089227646586,1.8297253641545772
1789620131290292700,2.473292724609375,-0.6784583567515016,-2.260288864272833,2.005353149217367
1789620131300265700,2.483265625,-1.589908307775855,-1.706783313488215,1.0855734690040348
1789620131310237700,2.49323779296875,-1.5479038341306148,-1.174926188475266,-0.49367315950393675
1789620131320209700,2.503209716796875,-2.1425684937775133,-1.1242070049114525,-1.959386347812414
1789620131330183000,2.513182861328125,-6.629192514795064,0.20279767766967416,-3.7983132555544374
1789620131340154600,2.523154541015625,-1.4385025252997874,0.1626477458499372,-7.722876809540391
1789620131350126800,2.533126953125,5.072921688205003,-1.6425484494648872,-4.019466527995467
1789620131360099800,2.543099853515625,3.1600667899429795,0.14695143341571093,1.181227553641796
1789620131370071600,2.553071533203125,1.9600491956353185,1.3076391801148652,1.464658126297593
1789620131380043800,2.563043701171875,2.0445733989715573,-1.5685833418048918,0.15637831019163131
1789620131390016800,2.573016845703125,0.6481144372183829,-2.4633985305011272,-3.483131453850865
1789620131399988700,2.58298876953125,-0.9090017541546374,0.3250358178503811,-7.702644168850779
1789620131409960700,2.592960693359375,-1.3088123155474662,-0.7049836678445339,-5.396740385350585
1789620131419933700,2.60293359375,2.3215175322175026,0.1742208408743143,-4.767324876448511
1789620131429905700,2.61290576171875,2.8523429030299186,2.2422844210267066,-4.001736810037493
1789620131439877600,2.622877685546875,0.46300797212719913,3.8224832356929777,-3.039830637234449
1789620131449851000,2.632850830078125,-0.44625911843273786,0.32695728743225333,-7.809746114698052
1789620131459822600,2.642822509765625,1.4885633180201052,-4.676393728679418,-4.884529114115238
1789620131469794800,2.652794921875,5.519489397662878,-4.652927512896061,2.578141346490383
1789620131479768000,2.66276806640625,4.952441789868474,1.1702823812574148,7.617291697996854
1789620131489739800,2.67273974609375,0.95563593342714,2.0759669006228445,9.620227849200367
1789620131499712000,2.6827119140625,1.908919312378764,2.1822721431344747,11.126050345057248
1789620131509685000,2.69268505859375,3.8840655393809076,2.9878526127159595,9.17293708616495
1789620131519657000,2.702656982421875,0.14604637433476744,2.6865625582426786,8.243802717629075
1789620131529629000,2.71262890625,-2.512394324338436,1.5104501556575298,8.764608798730373
1789620131539601200,2.72260107421875,-1.9839362671792506,-0.2542459792256355,6.966811773756146
1789620131549574000,2.732573974609375,0.21973522233664988,-1.908095136514306,4.130497045463323
1789620131559546000,2.742546142578125,1.328439976081252,-3.3726462953060863,3.100056265616417
1789620131569518000,2.75251806640625,0.3124947911093011,-5.457535922574997,2.945085484135151
1789620131579490800,2.76249072265625,-0.3123913307348266,-7.0263172711700195,2.1830273454159497
1789620131589463000,2.772463134765625,0.9720154788851737,-7.483537307545542,0.9421353044062852
1789620131599435000,2.78243505859375,2.0114707553148268,-6.681512484619021,1.8864730872929094
1789620131609408000,2.792407958984375,0.5302355151604861,-6.682116880252957,3.1080431727170943
1789620131619380000,2.8023798828125,-0.6862422155607492,-5.708433175894617,2.3398095602333546
1789620131629352200,2.812352294921875,-0.5081173529852181,-4.640847783523798,2.0400147127538917
1789620131639325000,2.822324951171875,0.5188970326095819,-3.8711289009183645,1.6815332830280065
1789620131649297000,2.832296875,0.576536736151576,-2.965980388125777,1.881485362008214
1789620131659269000,2.84226904296875,0.4204904343932867,-2.9418191758155823,3.110850046831369
1789620131669241900,2.852241943359375,1.0390402658879756,-2.6336282559126616,4.0583898406296965
1789620131679214000,2.862214111328125,1.360823657813668,-4.0339235078930855,5.883953993451595
1789620131689186000,2.87218603515625,0.11315817714631557,-4.505472513872385,5.817029744213819
1789620131699158800,2.88215869140625,-0.7197912878107279,-1.3272797001302241,2.946851324763894
1789620131709131000,2.892131103515625,0.2774023984074592,0.6742939305484295,0.5732651671350002
1789620131719103000,2.90210302734375,-0.6084101668069138,1.5085805623933672,-1.0743471415907144
1789620131729076000,2.912075927734375,0.24827214724672958,1.550767260737717,-3.492290911862254
1789620131739048000,2.9220478515625,1.0647364326804876,4.667008352957666,-9.7823473333925
1789620131749020200,2.932020263671875,0.3648246612727642,3.061774173495173,-14.887887096607685
1789620131758993000,2.941992919921875,-1.1970797872900962,7.722886161890625,-6.898560075306892
1789620131768965000,2.951965087890625,0.23164244468621908,5.856462759935855,-1.0404098006755114
1789620131778937000,2.96193701171875,0.7625602430224419,2.597171625652909,0.9542202944755553
1789620131788909800,2.971909912109375,1.9880676678955553,-0.5632014537602663,2.6432857265740632
1789620131798882000,2.981882080078125,1.3263795364201068,-2.4362808064728974,3.5318384938746687
1789620131808854000,2.99185400390625,-0.27566161915473636,-2.3097364935308695,4.158880259382724
1789620131818827000,3.001826904296875,-1.2552034749567509,-2.110731632272899,4.3853035811811685
1789620131828799000,3.011799072265625,-1.9580080451965332,-3.0853622620925307,4.151887624016404
1789620131838771200,3.021771240234375,-0.6857949101846664,-2.3406413348823785,1.6393927619129418
1789620131848744000,3.031743896484375,1.2645055563092231,-0.06405804615169763,-0.3767114984214306
1789620131858716000,3.0417158203125,1.2667711631536482,0.7032455920055508,-0.8765227222889661
1789620131868688100,3.051688232421875,0.6580500672340392,0.6074383626326918,-1.7731231869667767
1789620131878659800,3.061659912109375,0.08933014231324195,0.968141267800331,-2.5378391467183827
1789620131888633000,3.071633056640625,-0.4953532215453684,1.435137140519917,-2.3932360299944877
1789620131898605000,3.08160498046875,-0.10412205325365066,4.600264720983803,-0.5505804571181535
1789620131908577000,3.091576904296875,1.190800926216319,4.116134173589945,2.095252031329274
1789620131918550000,3.101550048828125,0.3658253627479076,1.7504624423474073,3.605328677499294
1789620131928522000,3.11152197265625,0.041419367233663795,2.77773920520544,4.736983514198661
1789620131938494000,3.121493896484375,0.8017197025001048,2.257834164597094,4.363932291850447
1789620131948467000,3.131467041015625,1.7828081301569938,2.6193641682386395,3.4816672265172004
1789620131958439200,3.141439208984375,1.264693772357702,4.761650922465324,3.0214427476286887
1789620131968411000,3.151410888671875,0.12589556670971214,5.181292046552896,1.8019962302297352
1789620131978384100,3.161384033203125,0.6060451547086239,4.515443872788548,0.37522505925595756
1789620131988356000,3.171356201171875,1.8672890788733958,3.1421514862850306,-0.46482115902900695
1789620131998328000,3.181328125,0.8741979326032101,3.650467795908451,-2.8472715911149975
1789620132008301000,3.191301025390625,1.1119301455318926,3.2973166212946174,-4.370525698766112
1789620132018273000,3.20127294921875,1.3182020751833914,0.4885989249795675,-4.0913410931169985
1789620132028245000,3.211244873046875,0.5668225668668747,-0.3642307870328426,-2.979301057469845
1789620132038218000,3.221218017578125,0.1512495690010488,-1.6134049186974764,-3.3142338538259266
1789620132048190200,3.231190185546875,2.3581178087316452,-2.766249550680816,-2.8106618161201475
1789620132058162000,3.241161865234375,1.8812780028678475,-3.835038181361556,-1.2127788762032985
1789620132068135000,3.251135009765625,0.8490214057706296,-4.146417960433662,-0.6173644211024045
1789620132078107100,3.261107177734375,1.3253541388951242,-2.4773989988029004,-1.7378391076177357
1789620132088078800,3.271078857421875,1.3439841666936874,-6.257247792384028,-4.641017879393696
1789620132098052000,3.281052001953125,0.20533552558422088,-11.43948150370121,-8.830555727368592
1789620132108024000,3.291024169921875,-0.8550595899563282,-11.404265228891372,-8.62529911223948
1789620132117996000,3.30099609375,-0.21306392787918446,-7.0610103988885875,-7.161346503862738
1789620132127969000,3.310968994140625,0.08362988484501838,-3.7389170637339353,-6.124427467912435
1789620132137941200,3.320941162109375,-0.23822299212031064,-2.744085941928625,-4.142974249720573
1789620132147913000,3.330912841796875,-0.33100999688915905,-1.969962979145348,-3.140711516609788
1789620132157886000,3.340885986328125,-0.1734931111216545,-1.9392939923763275,-3.18272636551857
1789620132167858200,3.350858154296875,-0.15502455749511718,-2.413063889275491,-3.355248585781455
1789620132177830000,3.360829833984375,-0.5284534540493041,-0.8624839678034186,-3.2328567163437603
1789620132187803100,3.37080322265625,-1.0628478424549102,2.3782360292613505,-5.123653512054681
1789620132197775000,3.380775146484375,-1.2663678430497645,3.1171944474220274,-7.326282214519381
1789620132207747000,3.3907470703125,-0.14054129237877205,1.5208371096372604,-7.310937345871329
1789620132217720000,3.400719970703125,1.486993876746297,2.2655390398859976,-5.103957462459802
1789620132227692000,3.410692138671875,2.7843057241141795,1.8779048731729386,-4.661636304530501
1789620132237664000,3.4206640625,1.6133096416294574,-0.7389046421468257,-4.822713001671433
1789620132247637000,3.430636962890625,-1.178637610213831,-3.611744389760494,-4.969049810320139
1789620132257609200,3.440609130859375,-0.324015827152878,0.5633303408369421,-2.7402339426755904
1789620132267581000,3.450580810546875,2.3516120800994336,-1.1012012462466954,-1.8131892398953438
1789620132277554000,3.460553955078125,1.153679621502757,-5.569529732117057,0.3635691082537174
1789620132287526100,3.470526123046875,-0.6258700913801789,-4.056591266775131,3.319979119479656
1789620132297498000,3.480498046875,-0.4637599595382809,-3.7822728058576582,6.990279158583283
1789620132307471000,3.49047119140625,-0.2166333107985556,-5.550788791289925,8.040262843289971
1789620132317443000,3.500443115234375,0.14477584294229745,-4.929495798566937,7.1305521371483795
1789620132327415000,3.5104150390625,0.32133506363630293,-2.457771338269114,4.534492856651545
1789620132337388000,3.520387939453125,-0.09369739761203527,-3.7119203357368704,2.699002937620878
1789620132347360000,3.530360107421875,-0.15760931329131125,-5.265916203132272,0.971651321747899
1789620132357332000,3.54033203125,-0.14430208795070648,-2.9724358478754755,1.3137749063909052
1789620132367305000,3.550304931640625,0.6094453185409308,-1.3988894768357276,2.697218976813555
1789620132377277000,3.56027685546875,0.8472942897170782,-0.45776071912348265,3.328425460785627
1789620132387249000,3.570248779296875,0.6698118166983127,-1.4468676180630922,2.1503969954460858
1789620132397222100,3.58022216796875,0.33495895371064544,-0.17713000631928444,2.6089409739017486
1789620132407193900,3.59019384765625,0.27455577680468557,0.38079964451789855,2.8626281502008437
1789620132417166000,3.600166015625,-0.1540297012388706,-0.692993370321393,2.8739725510358807
1789620132427139000,3.61013916015625,0.44948885760158297,-0.27284897288680077,2.566664259186387
1789620132437110800,3.62011083984375,0.7138841826587915,-0.30339199518859383,2.419123335444927
1789620132447083000,3.6300830078125,0.8729150531858205,-0.2788040818989277,2.4267875864624977
1789620132457056000,3.640055908203125,1.074408370258659,-0.0376753583997488,2.171032956239581
1789620132467028000,3.650028076171875,1.11532490253672,-0.030718963390588758,1.7454904991537332
1789620132476999700,3.659999755859375,1.0809830724738538,-0.0211795661509037,1.8124252697855232
1789620132486973000,3.669972900390625,1.0696458320319653,0.19101123215556143,2.1823650821149347
1789620132496944600,3.679944580078125,1.0424464210696518,0.6849369051158428,2.3072914384663106
1789620132506916900,3.689916748046875,0.9568103109687566,1.894483959791064,2.601752523702383
1789620132516889900,3.699889892578125,0.9474014082409441,2.314115731528401,3.150608641245961
1789620132526861600,3.709861572265625,1.1319500202536583,2.6139509110182524,3.205413413622975
1789620132536833800,3.719833740234375,1.2063966278202831,2.5615233891665934,2.6573124983608722
1789620132546806800,3.729806884765625,1.4853088462688029,2.2723820376485584,2.3901158521473405
1789620132556778800,3.73977880859375,1.8303437883138656,1.7957476912289856,2.6586487154006955
1789620132566750700,3.749750732421875,2.160881564581394,1.2729828772753475,3.1377076586186883
1789620132576723700,3.7597236328125,2.521429863709211,1.034151324802637,2.8229128104060885
1789620132586695700,3.76969580078125,2.02044944993183,0.6331324835985899,2.4278175140321254
1789620132596667600,3.779667724609375,1.051766476470232,-0.2665244460403919,1.652988156545162
1789620132606641000,3.789640869140625,0.571833088505268,-1.0861907241195439,1.266501114040613
1789620132616612600,3.799612548828125,0.8363225215867162,-1.5854671104580162,1.4280249704271555
1789620132626584800,3.809584716796875,1.049181428413093,-2.21036777228415,1.7165584191799164
1789620132636557800,3.819557861328125,0.9251742327332496,-2.619455353653431,2.2357997351825234
1789620132646529800,3.82952978515625,0.6332593248486519,-2.3632471344441175,2.3950036241888997
1789620132656501800,3.839501708984375,0.09188786397203802,-2.0488439158976077,1.8446598984360694
1789620132666474800,3.849474853515625,-0.380138550260663,-1.8663082511425018,1.5302549263238905
1789620132676446700,3.85944677734375,-0.5344624121405184,-1.5934809055656194,1.8390537489920853
1789620132686418700,3.869418701171875,-0.2770981547638774,-0.9193506411463022,2.366472526231408
1789620132696392000,3.879391845703125,0.22633257477506993,-1.5998276442438364,2.668918180480599
1789620132706363600,3.88936376953125,0.4628850763998925,-1.776664220574498,2.129527225896716
1789620132716335900,3.8993359375,0.535225067076087,-1.6115730270951985,1.455598037007451
1789620132726308900,3.909308837890625,0.0022726211071014404,-1.390561793473363,0.5689250921040773
1789620132736280600,3.919280517578125,-0.5767910031735897,-1.2361357863932847,-0.2175999638736248
1789620132746252800,3.929252685546875,-1.0688725095719098,-1.3817501259863376,-0.7301806529432535
1789620132756225800,3.939225830078125,-1.4946964139476417,-1.3668477404087782,-0.5457873776227236
1789620132766197800,3.94919775390625,-1.4225824871122836,-1.1698089185267686,0.4007441159158945
1789620132776169700,3.959169677734375,-1.4338719428896902,-0.6575859568536281,0.5737018049865961
1789620132786142700,3.969142822265625,-1.2521394112110138,2.7490795124322176,-0.8643179052323102
1789620132796114700,3.97911474609375,0.07311090198345482,3.866933202794194,0.043102644145488735
1789620132806086700,3.989086669921875,0.6367074925411492,2.5717694733709093,2.092258694732189
1789620132816060000,3.999059814453125,1.3637673100501297,0.6418360145360231,2.9519162069380283
1789620132826031600,4.009031494140625,2.0287644199430943,-0.2725906142115593,3.301261559528112
1789620132836003800,4.01900390625,2.044887871748209,-0.6423661758899688,2.49341957475543
1789620132845976800,4.028976806640625,1.5684610305994748,-1.3016110058665276,1.5347569139182566
1789620132855948800,4.03894873046875,0.7371925775319338,-1.8947651148200033,1.194862695762515
1789620132865920800,4.048920654296875,0.34193244598507877,-2.0960756226718424,0.9368179087758064
1789620132875893800,4.058893798828125,0.7479787599623203,-2.1480480942323803,0.6713824270159006
1789620132885865700,4.06886572265625,0.6223071382015943,-2.352337910155952,0.7203852351158857
1789620132895837700,4.078837646484375,0.7456681449323892,-2.464210139144957,0.556719106003642
1789620132905811000,4.08881103515625,1.222140578788519,-2.8864409874647854,0.6018278292745352
1789620132915782700,4.09878271484375,1.589811277142167,-2.6705650709047912,1.2418337057739495
1789620132925755000,4.1087548828125,1.42852006046772,-2.3794670323610303,1.520970380628109
1789620132935727900,4.118727783203125,1.567501830178499,-1.6601622859582303,0.9918336935549974
1789620132945699600,4.128699462890625,1.485301685875654,-1.964533939833939,-0.3678688512742519
1789620132955671800,4.138671875,1.2958195629835128,-2.3673218365371227,-1.3418892402410507
1789620132965644800,4.148644775390625,1.2325064899802207,-1.8798016467049716,-1.9780244127869604
1789620132975616800,4.15861669921875,0.8757493998289108,-1.1472960579454898,-2.9882103401124476
1789620132985588700,4.168588623046875,0.9925849503137171,-0.8231216792300343,-4.004735991853475
1789620132995561700,4.178561767578125,1.4307494269549845,-0.6007005788102746,-4.582809436053037
1789620133005533700,4.18853369140625,1.4705062678039074,0.011529402013123035,-4.905870592829585
1789620133015505700,4.198505615234375,1.260483899577707,0.7404132931441069,-4.8221062679499385
1789620133025479000,4.20847900390625,1.2468306372784077,0.6844117121979594,-4.868357731515169
1789620133035450600,4.21845068359375,1.5235165579795837,0.1747393117904663,-4.965159232622384
1789620133045422800,4.2284228515625,1.5396576915718614,0.41342531831264495,-4.718291088688373
1789620133055395800,4.238395751953125,1.2196927472449839,0.7598807946801185,-4.349408676457405
1789620133065367800,4.248367919921875,0.9677120826028287,0.34527591119408607,-4.403833509606122
1789620133075339800,4.25833984375,0.622257453840971,-0.5565525172650814,-4.662867307630181
1789620133085312800,4.268312744140625,0.4045301372606307,-0.6375026615068317,-4.279055037292838
1789620133095284700,4.27828466796875,0.719865814351663,-0.0063590136379003525,-3.6558921590447424
1789620133105256700,4.288256591796875,1.0191152298428117,0.42095600607842204,-3.4294098005354403
1789620133115230000,4.29822998046875,0.8941232609093188,0.4801712883740663,-3.6046155607938766
1789620133125201700,4.30820166015625,0.5154724649883806,0.48656858819574117,-3.892680807512998
1789620133135174000,4.318173828125,0.37142055240646005,0.6215200794771313,-4.47079341467917
1789620133145147000,4.32814697265625,0.16577055404558777,0.8597764624103903,-4.872718264812231
1789620133155118600,4.33811865234375,0.11125680050440132,1.01868487560153,-5.003081843781471
1789620133165090800,4.3480908203125,0.27597389997430144,0.9057713208660483,-5.133844066679478
1789620133175063800,4.358063720703125,0.8356874385535716,0.45914399017542595,-5.158930577141046
1789620133185035800,4.368035888671875,1.1019206465624272,0.3196156924977898,-4.505662483486533
1789620133195007700,4.3780078125,0.9434978249311446,0.6851128462046384,-2.931878796559572
1789620133204980700,4.387980712890625,0.5448749024203047,0.7536264104604721,-1.7858669332057238
1789620133214952700,4.39795263671875,0.06390110202431679,0.1895136870741844,-1.62110073389709
1789620133224925000,4.407925048828125,-0.08370937982201576,-0.5860466150358319,-1.821648440682888
1789620133234898000,4.41789794921875,0.02032267532693222,-1.2659110391929744,-1.98278125192523
1789620133244869600,4.42786962890625,0.05891629934906959,-1.5178902425304055,-1.5505378358960151
1789620133254841900,4.437841796875,-0.12225918296873568,-1.4420613868251442,-0.9475497306704521
1789620133264814800,4.44781494140625,-0.18392098163366316,-1.2690177730366587,-0.2946563155472278
1789620133274786800,4.457786865234375,-0.11525195282148197,-1.2416884520843625,0.030139702197909353
1789620133284758800,4.4677587890625,-0.0341179764454253,-1.4687603009194135,0.03862871360182762
1789620133294731800,4.477731689453125,0.08065412043724209,-1.64042210496068,0.2927069350451231
1789620133304703700,4.487703857421875,-0.07470774272084235,-1.8309207114189863,0.6730366239637136
1789620133314675700,4.49767578125,-0.2861457133660093,-2.0875959636181594,1.0950012225627899
1789620133324649000,4.50764892578125,0.06366144804954528,-2.3843799388438462,1.2083072837471962
1789620133334620700,4.51762060546875,0.48963009465821083,-2.2564842112928627,1.344410283151269
1789620133344593000,4.527593017578125,0.4818768867155537,-1.9122621930658816,1.4382453356683254
1789620133354566000,4.53756591796875,0.11423135933578013,-1.7512714206427336,1.4801479563742874
1789620133364537600,4.54753759765625,-0.4663181926537305,-1.374022746604681,1.5895885743021965
1789620133374509800,4.557509765625,-0.31288105048052967,-0.9653829090029,1.3170599194109438
1789620133384482800,4.56748291015625,0.08287227141074836,-0.535549476724863,1.042178563913703
1789620133394454800,4.577454833984375,-0.10180325491726398,-0.17555179721713066,1.4369751696020363
1789620133404426800,4.5874267578125,-0.3071194912791252,-0.2319786178380251,2.3983494274854658
1789620133414399700,4.597399658203125,-0.4079799123883247,-0.5421352848559617,3.3458103108286856
1789620133424371700,4.607371826171875,-0.5084656549662351,-0.7785942629784345,4.090726760610938
1789620133434344000,4.617343994140625,-0.4931570266753435,-1.4050520911186932,4.031665499833226
1789620133444317000,4.62731689453125,-0.31519115405380727,-1.7342665098279713,3.9156682998687025
1789620133454288600,4.63728857421875,-0.0594037906050682,-1.6340683520197867,3.6085651752024885
1789620133464260900,4.6472607421875,0.48126083717644214,-1.6433207490116357,2.954031591656804
1789620133474233900,4.65723388671875,1.0005892469406128,-1.0327221687823533,2.577971250620484
1789620133484206300,4.667206298828125,1.047277348357439,-0.4182698357343673,2.266352694356441
1789620133494178300,4.67717822265625,0.9151157800555229,0.13236498191952706,2.00642983853817
1789620133504151300,4.6871513671875,0.9349591291666031,0.6471113245904445,1.9307851072281599
1789620133514123500,4.69712353515625,0.8878829052150249,0.8889239387005567,1.8886440015912054
1789620133524096500,4.707096435546875,0.4109989314159378,1.0076298131018877,2.2852672381848094
1789620133534068200,4.717068115234375,-0.018259879311919212,1.171678804051876,3.1519097869724035
1789620133544040400,4.72704052734375,-0.011603928554058075,1.3721587062984704,3.816898713558912
1789620133554012400,4.737012451171875,0.13159805266764013,1.6681676054984331,3.994965708467364
1789620133563985400,4.7469853515625,0.3081189871778712,1.886018913784623,3.955169704651832
1789620133573957400,4.756957275390625,0.650946957230568,1.8461603661268948,3.7834243139803405
1789620133583930400,4.766930419921875,0.8121610170155763,1.4215256715357303,3.437593691512942
1789620133593902300,4.77690234375,0.7597410939484834,0.813444627085328,3.0151889479309317
1789620133603874600,4.78687451171875,0.7213315760552883,0.33728140530884265,2.591681211543083
1789620133613847600,4.79684765625,0.9060375705868006,0.0033136545926332472,1.9844284346103667
1789620133623819300,4.8068193359375,1.240961599114537,-0.180129772657156,1.2344073551654815
1789620133633791500,4.81679150390625,1.2619517801731823,-0.22556465914249418,0.5820224740862846
1789620133643764500,4.826764404296875,0.9882862302064895,-0.10056816016435623,0.20375965456962583
1789620133653736400,4.836736328125,0.874357653209567,-0.08173603392243385,-0.17654606895148753
1789620133663708400,4.84670849609375,0.8718418709963559,-0.1093313123345375,-0.4749696280777454
1789620133673681400,4.856681396484375,0.6874100172311067,-0.24256664734780786,-0.3242337076872587
1789620133683653400,4.8666533203125,0.3288513940831646,-0.45527124039530753,0.3639472939163446
1789620133693625300,4.876625244140625,0.22409283302426336,-0.6289888079226017,1.4265864620566366
1789620133703598600,4.8865986328125,0.0959597895860672,-0.8549345753371715,2.348827563947439
1789620133713570300,4.8965703125,0.2713297639628872,-1.1561176623046399,2.792504812660813
1789620133723542500,4.90654248046875,0.4996849671393633,-0.960090063291788,2.8751684828221795
1789620133733515500,4.916515625,0.45163613529596475,-1.0194020839601754,2.655549580341577
1789620133743487200,4.9264873046875,0.07271631317529827,-1.0177151537865399,2.545406951624155
1789620133753459500,4.93645947265625,-0.2264619002431631,-1.0166846416950226,2.558810623076558
1789620133763432400,4.946432373046875,-0.577193117701076,-1.2048346392005682,2.158746306118369
1789620133773404400,4.956404296875,-0.7887889092564583,-1.3424772692620754,1.6909259652733801
1789620133783376400,4.96637646484375,-1.0308797557860612,-1.2898001565635204,1.3439064252823592
1789620133793349600,4.976349609375,-1.0717618012726307,-1.004863270998001,1.3767542173951863
1789620133803321300,4.9863212890625,-0.5018640647441148,-0.9526648817270994,1.5670815589398144
1789620133813293600,4.99629345703125,0.4296873018056154,-1.1216682802140712,2.104896057987213
1789620133823266600,5.0062666015625,0.8799667252629995,-1.3102654369652271,2.7974036906182764
1789620133833238300,5.01623828125,0.5828431428194045,-1.7684534415900706,2.7590374273449183
1789620133843210500,5.02621044921875,-0.0461713840663433,-2.2489070540368554,2.004308608600497
1789620133853183500,5.03618359375,-0.376224007165432,-2.4711703335464,1.1179518900394438
1789620133863155500,5.046155517578125,-0.304784910851717,-2.5650164919793603,0.4500941300183534
1789620133873127400,5.05612744140625,-0.03849661165475845,-2.487935298125446,-0.12948445804715156
1789620133883100200,5.06610009765625,0.2479716481965035,-2.230285647936165,-0.5066700037211179
1789620133893072400,5.076072265625,0.9247615602791309,-1.8915908686980605,-0.3882558057427406
1789620133903044400,5.08604443359375,1.4178829311192034,-1.7822767997592686,-0.35307927842140197
1789620133913017300,5.096017333984375,1.502152282911539,-1.8135408298119902,-0.2615653623282909
1789620133922989300,5.1059892578125,1.5835528012692928,-2.0470579092636703,-0.37469957407712934
1789620133932961500,5.11596142578125,1.3601181398928164,-2.121487419565022,-0.5906774897068738
1789620133942934300,5.125934326171875,1.3224118018329143,-1.8735992849335072,-0.856785756161809
1789620133952906500,5.135906494140625,1.1863352520443498,-1.6972566295996308,-1.5555740764975547
1789620133962878500,5.14587841796875,1.1968179214835166,-1.2570739450037478,-2.0817448995023966
1789620133972851200,5.155851318359375,1.1636145939312874,-0.9181772134527564,-2.955497572556138
1789620133982823400,5.165823486328125,1.4154502971448004,-0.5320888148769736,-3.385029976060986
1789620133992795400,5.17579541015625,1.8606946490444243,-0.06436755049228668,-3.220504599770903
1789620134002768400,5.185768310546875,1.9066741638004778,0.38796997453868387,-2.87151229840219
1789620134012740400,5.195740234375,1.7600645295597612,0.09992752417325973,-3.0825463278889655
1789620134022712600,5.205712646484375,1.7171897028207779,-0.5274216998487711,-3.6693536981642243
1789620134032685300,5.215685302734375,1.9556337172806262,-0.8157920669943094,-3.9807846229016777
1789620134042657300,5.2256572265625,1.7183355118550359,-0.5059112943083047,-4.219390549924969
1789620134052629500,5.23562939453125,1.5122645116031168,0.03043956192731857,-4.287967242544889
1789620134062602200,5.245602294921875,1.649592084366083,0.09395429498255252,-4.488362973639369
1789620134072574500,5.255574462890625,1.8226583483777938,-0.18352379900962112,-4.62909421736598
1789620134082546400,5.26554638671875,1.3167746727287768,-0.006719955904781818,-4.210762422311306
1789620134092519200,5.275519287109375,0.6836405816949903,0.5721104441419244,-3.6324154218673703
1789620186830053600,58.0130537109375,-1.4485902040719985,1.3337281456172465,-0.030391249823162797
1789620186840025600,58.023025634765624,-0.1412865395218134,0.6089689332008361,0.5968802898697555
1789620186849997600,58.03299755859375,0.9372773429811,0.026788053682446477,1.2651288027741014
1789620186859969500,58.042969482421874,1.56017075663805,-0.27884850556254387,1.7090579804219304
1789620186869941800,58.05294165039062,2.1066694974005222,-0.12909224385917187,1.478242268883437
1789620186879913500,58.06291357421875,2.3409622373998165,0.22616320955753325,0.9749834618452936
1789620186889885700,58.0728857421875,2.1664491355806588,0.2796212435007095,0.9483330630678682
1789620186899856600,58.08285668945312,1.8047843996435402,-0.1948123780041933,1.4806250723667442
1789620186909828600,58.09282861328125,1.5740139885514974,-0.1706178479462862,1.245880058555305
1789620186919800600,58.102800537109374,1.2478273932307957,0.37903497293293476,0.31912228295765815
1789620186929772500,58.1127724609375,0.577819761699438,0.4599743035197258,-0.03979210395854898
1789620186939744800,58.12274487304688,-0.22138766571879387,0.29621991160213945,0.08719621729077771
1789620186949716500,58.13271655273437,-0.7154056931376457,0.14445406364202498,0.3788698454990983
1789620186959688700,58.14268872070313,-0.818060596448183,0.1196744271725416,0.5631406269511208
1789620186969660400,58.15266040039062,-0.8207832994103431,0.0767839644730091,0.6514701043218374
1789620186979632600,58.16263256835938,-0.8401017478644848,0.10511749403178691,0.7370000506345182
1789620186989603800,58.17260375976562,-0.8098585852921009,0.19378245043456555,0.6686945031061768
1789620186999575600,58.182575439453124,-0.7598790411144495,0.13307634505927562,0.5476559479735791
1789620187009547800,58.1925478515625,-0.7963748343408107,-0.025661095479130744,0.4444199933720752
1789620187019519500,58.20251953125,-0.8752116396903992,-0.08541384565234184,0.48088425894901154
1789620187029491700,58.21249169921875,-0.8511614865392446,-0.09920037894248962,0.498196701342985
1789620187039463400,58.22246337890625,-0.756733728826046,-0.15092881261408328,0.40465818408709014
1789620187049435600,58.232435546875,-0.6316758550494909,-0.1831307080388069,0.2147241527089849
1789620187059407600,58.24240771484375,-0.5401110855519772,-0.28177053048908707,-0.008589549168944359
1789620187069379600,58.252379638671876,-0.46888884685933585,-0.35820845800340173,-0.1828903234116733
1789620187079351600,58.2623515625,-0.39179216317534443,-0.3432213167518377,-0.19639878867911173
1789620187089322500,58.27232250976562,-0.26420389413833617,-0.27400515718460083,-0.06824904070128686
1789620187099294700,58.28229467773438,-0.09790098678171634,-0.3097042470753193,0.05708296470837667
1789620187109266700,58.2922666015625,0.11851473574340343,-0.3313882556170225,0.12198373616137541
1789620187119238700,58.30223876953125,0.2904413282006979,-0.2918091094225645,0.15618801178392022
1789620187129210600,58.312210693359376,0.4762450548410415,-0.2958130843669176,0.20298978444198146
1789620187139182600,58.3221826171875,0.6595809300631285,-0.4237053047865629,0.247160149150528
1789620187149154600,58.332154541015626,0.8034872966945171,-0.521440871873498,0.2549799925886094
1789620187159126500,58.34212646484375,0.8246820604145526,-0.5252215594559908,0.260822672468517
1789620187169098500,58.35209838867188,0.7324082658648491,-0.4531137701004743,0.2657558910869993
1789620187179070700,58.36207080078125,0.5395581278443337,-0.4283195205837488,0.2793321974262595
1789620187189042700,58.37204272460937,0.2467436407715082,-0.4110615117907524,0.33358192973639816
1789620187199014700,58.3820146484375,-0.06843757641017437,-0.40728608490526674,0.3584953486533835
1789620187208985600,58.391985595703126,-0.3831161047667265,-0.3737637545317411,0.3546856907047331
1789620187218957600,58.40195751953125,-0.704722386559844,-0.2670961084485054,0.4194185673780739
1789620187228929800,58.4119296875,-1.0287269616663455,-0.15053192225098608,0.46518896942809224
1789620187238901500,58.421901611328124,-1.2783166395187378,-0.05907587382495403,0.48092820768859235
1789620187248873700,58.43187377929687,-1.419894270941615,0.015184125128388404,0.4685339690070599
1789620187258845400,58.441845458984375,-1.3170833002865314,0.03571779459118843,0.3632232904907316
1789620187268817700,58.45181762695312,-1.0735574525177478,-0.023678981751203535,0.22926707559069617
1789620187278789600,58.46178955078125,-0.757058138474822,-0.1514811857998371,0.15613788903187958
1789620187288761600,58.47176171875,-0.461419241631031,-0.21853987507224082,0.14209736271435394
1789620187298733800,58.48173388671875,-0.24958266358971595,-0.17784487659037113,0.18525133518828077
1789620187308705500,58.49170556640625,-0.09640928691923618,-0.08387596856057643,0.20234662770023568
1789620187318677800,58.501677734375,0.15845453194379805,0.005413257220387459,0.1072473091347143
1789620187328649500,58.5116494140625,0.5612298614263534,-0.0707891079723835,-0.09774999747108667
1789620187338621700,58.52162158203125,0.9437754728287457,-0.27152444628477096,-0.1978637649314478
1789620187348592600,58.53159252929687,1.2139204474538563,-0.4143979627370834,-0.14198497011475264
1789620187358564600,58.54156469726563,1.2734814744472502,-0.4212900603383779,-0.005538271839544176
1789620187368536800,58.551536865234375,1.1569979522705078,-0.3192506585776806,0.1413501428099349
1789620187378508500,58.56150854492188,1.0318027158498764,-0.197561968973279,0.19720340132657438
1789620187388480800,58.571480712890626,0.8176695513039827,-0.054631753897666925,0.309245981913805
1789620187398452500,58.58145239257812,0.5651783067911863,0.09667699794471263,0.394734061846137
1789620187408424700,58.5914248046875,0.3919301103413105,0.1614893695950508,0.4363491343149915
1789620187418396700,58.601396728515624,0.3187690125405788,0.05084463657438755,0.40276729230657216
1789620187428368600,58.61136865234375,0.0662532181084156,-0.03339490460157394,0.3784932307390496
1789620187438340600,58.621340576171875,-0.17098317412734032,0.0501321043908596,0.31866346980687227
1789620187448312600,58.6313125,-0.3300754194527864,0.09094166916310786,0.17649207374192774
1789620187458284500,58.641284423828125,-0.37488603655993935,0.061065586337447166,0.12236441517518833
1789620187468256800,58.6512568359375,-0.2582768421769142,0.061436173215508455,0.16151591054210437
1789620187478228500,58.661228515625,0.06813304050564765,0.0010801964521408081,0.051668940303009
1789620187488200700,58.67120068359375,0.3696808691322803,-0.10435527748763561,-0.00010859320731833577
1789620187498172400,58.68117236328125,0.5802700774610042,-0.14647300224900245,0.01284815646149218
1789620187508144600,58.69114453125,0.619791940510273,-0.121133978331089,0.021042404436226934
1789620187518116600,58.70111669921875,0.5488613782405853,-0.07086568033993244,-0.0175519685045816
1789620187528088600,58.71108862304688,0.3870078515082597,-0.06030629240274429,-0.08386104498608038
1789620187538060300,58.72106030273437,0.14488660984039306,-0.01134790796637535,-0.14785044634835795
1789620187548032000,58.731031982421875,0.060791445571184155,0.007342763978242873,-0.2564017507537268
1789620187558003200,58.741003173828126,0.11149287428259849,-0.021309914532303808,-0.3313468641607091
1789620187567975200,58.75097509765625,0.1983148331671953,-0.09761106392443179,-0.3174800321759656
1789620187577947100,58.76094702148438,0.16488193464279174,-0.031989713978767396,-0.17410114175109193
1789620187587919400,58.77091943359375,0.07066928098499775,0.13837269790172577,-0.08771372009254992
1789620187597891000,58.78089111328125,0.060522565501928326,0.2450274845033884,-0.10950876952698453
1789620187607863300,58.79086328125,0.20222236199975013,0.24159575648903844,-0.1287144965879619
1789620187617835000,58.8008349609375,0.435594480022788,0.08745090443789959,-0.15958176414174957
1789620187627807200,58.81080712890625,0.552606994509697,-0.053631052422523494,-0.1375180355674587
1789620187637779200,58.820779296875,0.42460429945290085,-0.0637695845991373,-0.026415019118972122
1789620187647751200,58.83075122070313,0.21442191835939883,0.017915011397004126,0.11125391442757099
1789620187657723100,58.84072314453125,-0.09848200154006481,0.15215513953864573,0.29523564980514344
1789620187667695000,58.85069506835937,-0.3808721252322197,0.3112204968571663,0.49461895245406773
1789620187677667000,58.8606669921875,-0.6032955637395382,0.40810032389760015,0.6004162454435601
1789620187687639300,58.870639404296874,-0.7162281154364347,0.3863309751600027,0.5792157095698639
1789620187697611000,58.88061108398438,-0.79167644739151,0.29385668960213657,0.5377546951515599
1789620187707583200,58.890583251953124,-0.6736129625469446,0.2149503261476755,0.45897170234844087
1789620187717555000,58.90055493164063,-0.46190614836513993,0.10846271280646323,0.426447771895118
1789620187727527200,58.910527099609375,-0.1887988168030977,0.04328150784373283,0.4306562199030071
1789620187737499100,58.9204990234375,0.13931436266601085,-0.1516682328045368,0.3451144370220601
1789620187747471000,58.93047119140625,0.3648153089225292,-0.3252577900379896,0.2924739300068468
1789620187757443000,58.94044311523437,0.5155681804478168,-0.3401233507364988,0.1929828244894743
1789620187767415000,58.9504150390625,0.582131779679656,-0.33273674761652944,0.11251081915348768
1789620187777387300,58.96038720703125,0.586924859175086,-0.3826911573529243,0.023833441660553217
1789620187787359200,58.97035913085937,0.47850306290090083,-0.4775725040525198,0.004696962177194655
1789620187797331200,58.980331298828126,0.31153906128704545,-0.5171756156444549,-0.03559665242955089
1789620187807303200,58.99030322265625,0.05437631783187389,-0.4862801266431808,-0.08102525530457497
1789620187817275100,59.00027514648438,-0.23059622356891632,-0.34610827036499975,-0.028397498173080384
1789620187827247000,59.0102470703125,-0.4155798659980297,-0.17757950365245342,0.08373988455813378
1789620187837219300,59.02021923828125,-0.37850831871032714,-0.15007248804569243,0.1178704830231145
1789620187847191000,59.03019091796875,-0.31294717451930043,-0.21985037314891814,0.13799432957600802
1789620187857163300,59.04016333007812,-0.36230303384065626,-0.2628939805835485,0.15460498037617654
1789620187867135000,59.050135009765626,-0.4480605783641338,-0.2299871517598629,0.12414601962864398
1789620187877107200,59.06010717773437,-0.5419160891473292,-0.1531581791013479,0.04730542959757149
1789620187887079200,59.0700791015625,-0.4729664715617895,-0.12429273462295531,-0.06578317117756233
1789620187897051100,59.080051025390624,-0.3381558500558138,-0.2027291424781084,-0.1476568052060902
1789620187907023000,59.09002319335937,-0.2045066735446453,-0.24768705910146235,-0.11656241436554118
1789620187916995000,59.0999951171875,-0.10066343723237514,-0.25239713648855683,-0.04774018601933494
1789620187926967000,59.10996704101562,-0.031790976536273954,-0.24446458992362022,-0.037583259669505056
1789620187936939300,59.11993920898438,-0.006270750832557678,-0.24870354266762731,-0.03767994324332103
1789620187946911000,59.12991088867187,-0.0642179128885269,-0.2066980461090803,-0.08254630912570282
1789620187956883200,59.13988330078125,-0.1098240642875433,-0.15535188975334166,-0.1496765840632841
1789620187966855200,59.149855224609375,-0.1930862848639488,-0.10525368763208388,-0.1909188959633
1789620187976827100,59.1598271484375,-0.2798188118994236,-0.0077414079070091246,-0.17918394317440686
1789620187986799400,59.16979931640625,-0.32881928191184995,0.047666591060161585,-0.19340099510261788
1789620187996771000,59.17977099609375,-0.21767244458794593,0.06867956847250462,-0.30904841351509094
1789620188006743300,59.18974340820313,0.08011573924422263,-0.041507483908534044,-0.5011638805855065
1789620188016715000,59.199715087890624,0.38983459936678405,-0.1630535501718521,-0.5982513590272516
1789620188026687200,59.20968725585937,0.6454676490366459,-0.19527765742838382,-0.5627677385181188
1789620188036659200,59.2196591796875,0.8729629839807749,-0.21183248638808727,-0.44794429504070427
1789620188046631200,59.22963110351562,0.9833826760739087,-0.20672142698466778,-0.29974156465595586
1789620188056603100,59.23960302734375,0.9632657707184552,-0.1179231995910406,-0.1390805904427543
1789620188066575000,59.2495751953125,0.8108195392787456,-0.019984803408384322,-0.005234758848324418
1789620188076547000,59.25954711914063,0.5204799178868532,0.054742813056707376,0.08603511935584246
1789620188086519300,59.269519287109375,0.11389116759598254,0.043728667089343067,0.16465104849636553
1789620188096491000,59.27949096679688,-0.3470382446914911,0.08294248710274696,0.15615529682440682
1789620188106463200,59.289463134765626,-0.6828548381447792,0.14974281769990921,0.06189716005707159
1789620188116435000,59.29943505859375,-0.882889919233322,0.14472528179883956,-0.004180190027784556
1789620188126407200,59.3094072265625,-0.9564730418384074,0.07520224823951721,-0.03848196207489818
1789620188136379100,59.319379150390624,-0.9259522313684224,0.05227028546333313,0.002582856100052595
1789620188146351000,59.32935107421875,-0.7709972319781779,0.04172200344204902,0.0047455870918929575
1789620188156323000,59.339322998046875,-0.42908465973734855,-0.07409633282423018,-0.05157198273455724
1789620188166295000,59.349294921875,-0.018473814323544502,-0.2201829661041498,-0.090350114744436
1789620188176267300,59.35926733398438,0.4069160825490951,-0.29254794509112836,-0.08972927943235262
1789620188186239200,59.3692392578125,0.746367817634344,-0.4134890311986208,-0.000941573432739824
1789620188196211200,59.37921118164063,0.8668909705907106,-0.4792565116167068,0.08983480389975011
1789620188206183200,59.38918310546875,0.7872796737372875,-0.4351204327702522,0.07976071526147424
1789620188216155100,59.39915502929688,0.581320463296771,-0.3843272341221571,-0.03869695653244853
1789620188226128100,59.40912817382812,0.5949468375891447,-0.4096493069052696,-0.20900473388256505
1789620188236100000,59.41910009765625,0.33681378779709337,-0.3263531840592623,-0.4861206252325326
1789620188246072000,59.42907202148437,0.04717851528227329,-0.33421734156310556,-0.6003587796352803
1789620188256044000,59.4390439453125,-0.06442015746235848,-0.2747165203243494,-0.4619411100806668
1789620188266016300,59.449016357421876,-0.0053331777215003965,-0.09910159474313258,-0.11161354152020066
1789620188275988200,59.45898828125,0.18732757520675658,0.05077975464463234,0.46326651346553116
