time,seconds_elapsed,z,y,x
1789620128867022300,0.050022216796875,-0.43869104981422424,-0.3730767071247101,-0.5125075578689575
1789620128876994300,0.059994384765625,-0.5497704744338989,-0.2856254279613495,-0.7855489253997803
1789620128886966300,0.06996630859375,-0.6489297747612,-0.09792529791593552,-1.0704885721206665
1789620128896938200,0.079938232421875,-0.7231206893920898,0.10669655352830887,-1.3210617303848267
1789620128906911500,0.089911376953125,-0.7531132102012634,0.29781338572502136,-1.488839864730835
1789620128916883200,0.09988330078125,-0.72707200050354,0.4326721429824829,-1.5463788509368896
1789620128926855400,0.10985546875,-0.6335238218307495,0.488502562046051,-1.4761521816253662
1789620128936828400,0.119828369140625,-0.4844653010368347,0.5084454417228699,-1.270318627357483
1789620128946800000,0.129800048828125,-0.3102334439754486,0.5267158150672913,-0.9476998448371887
1789620128956772400,0.1397724609375,-0.15119215846061707,0.532334566116333,-0.5565600395202637
1789620128966745300,0.149745361328125,-0.03415079787373543,0.5027731657028198,-0.17350055277347565
1789620128976717300,0.15971728515625,0.0687369704246521,0.4190351068973541,0.14738692343235016
1789620128986689300,0.169689208984375,0.1520744413137436,0.2800975441932678,0.35694921016693115
1789620128996661500,0.17966162109375,0.23439167439937592,0.10186174511909485,0.43709731101989746
1789620129006634200,0.18963427734375,0.31096965074539185,-0.08795935660600662,0.4011475145816803
1789620129016606200,0.199606201171875,0.41583243012428284,-0.26006320118904114,0.29710447788238525
1789620129026578200,0.209578125,0.550327479839325,-0.32085150480270386,0.19418591260910034
1789620129036551200,0.21955126953125,0.675477921962738,-0.2635442912578583,0.13789281249046326
1789620129046523400,0.2295234375,0.7238465547561646,-0.15469948947429657,0.1389922797679901
1789620129056495000,0.2394951171875,0.7006733417510986,-0.11856916546821594,0.19995762407779694
1789620129066468400,0.24946826171875,0.6219415664672852,-0.2286221832036972,0.3136650323867798
1789620129076440300,0.2594404296875,0.49865400791168213,-0.42413148283958435,0.46899497509002686
1789620129086412300,0.269412353515625,0.3465740382671356,-0.6250489950180054,0.6140241622924805
1789620129096385300,0.27938525390625,0.1837848573923111,-0.734383761882782,0.705054759979248
1789620129106357200,0.289357177734375,0.054587334394454956,-0.7043123841285706,0.7343704104423523
1789620129116329200,0.2993291015625,-0.021489055827260017,-0.5505726337432861,0.6983252763748169
1789620129126302200,0.30930224609375,0.12418056279420853,-0.0033484562300145626,0.2768121063709259
1789620129136274400,0.3192744140625,0.3827522099018097,1.0341178178787231,-0.49346569180488586
1789620129146246100,0.32924609375,0.6987689137458801,1.7184172868728638,-1.0630099773406982
1789620129156218400,0.33921826171875,0.8317786455154419,2.2400782108306885,-1.5248241424560547
1789620129166191400,0.34919140625,0.8102239370346069,2.624626398086548,-1.8854540586471558
1789620129176163000,0.3591630859375,0.7471759915351868,2.6815133094787598,-2.1716055870056152
1789620129186135300,0.36913525390625,0.687434196472168,2.4456236362457275,-2.3279662132263184
1789620129196108300,0.3791083984375,0.5664464831352234,2.008913278579712,-2.411198377609253
1789620129206080300,0.389080322265625,0.37128254771232605,1.6692951917648315,-2.4444985389709473
1789620129216052200,0.39905224609375,0.20578572154045105,1.5920414924621582,-2.4266719818115234
1789620129226025200,0.409025146484375,0.1435154229402542,1.8681128025054932,-2.307727575302124
1789620129235997200,0.4189970703125,0.1685246378183365,2.243091344833374,-2.110023021697998
1789620129245969400,0.428969482421875,0.21283456683158875,2.607457160949707,-1.860554575920105
1789620129255941400,0.43894140625,0.22147122025489807,2.852789878845215,-1.571171760559082
1789620129265914000,0.4489140625,0.15969155728816986,2.9223732948303223,-1.2480357885360718
1789620129275886300,0.45888623046875,0.019909685477614403,2.8070218563079834,-0.8839997053146362
1789620129285858300,0.4688583984375,-0.17640568315982819,2.4633989334106445,-0.46461591124534607
1789620129295831300,0.478831298828125,-0.0951308012008667,1.5890763998031616,0.06177440658211708
1789620129305803300,0.48880322265625,-0.04260691627860069,0.7748304009437561,0.6499702334403992
1789620129315775500,0.498775390625,-0.29762428998947144,0.5499666929244995,1.226799488067627
1789620129325748200,0.508748291015625,-0.32545536756515503,-0.39933693408966064,1.8378090858459473
1789620129335720200,0.51872021484375,-0.43245771527290344,-1.9585479497909546,2.221381902694702
1789620129345692400,0.5286923828125,-1.0723145008087158,-4.203669548034668,1.9364138841629028
1789620129355665200,0.5386650390625,-1.2781624794006348,-5.269657611846924,1.8769538402557373
1789620129365637400,0.548637451171875,-1.1781625747680664,-6.1449689865112305,1.8264341354370117
1789620129375609300,0.558609375,-1.0155326128005981,-7.466070652008057,1.3816204071044922
1789620129385581300,0.568581298828125,-0.8595206141471863,-8.375633239746094,0.49547794461250305
1789620129395554300,0.57855419921875,-0.9741891026496887,-7.0924577713012695,-0.5226799845695496
1789620129405526300,0.5885263671875,-0.9052441120147705,-5.192510604858398,-1.2694472074508667
1789620129415498200,0.598498291015625,-0.49364563822746277,-3.4503188133239746,-1.9266985654830933
1789620129425471200,0.60847119140625,0.21478739380836487,-2.2289042472839355,-2.269174575805664
1789620129435443500,0.618443359375,1.3473466634750366,-1.8591220378875732,-2.275729179382324
1789620129445415200,0.628415283203125,2.7203187942504883,-2.135394811630249,-2.012681722640991
1789620129455388400,0.638388427734375,3.4875028133392334,-2.1797754764556885,-1.6268364191055298
1789620129465360400,0.6483603515625,3.4295499324798584,-2.0582964420318604,-1.1191751956939697
1789620129475332900,0.658332763671875,2.9462621212005615,-2.507638454437256,-0.5239518284797668
1789620129485305900,0.668305908203125,2.2049174308776855,-2.6432979106903076,0.1184510812163353
1789620129495277600,0.678277587890625,1.446008324623108,-2.725933313369751,0.6696774363517761
1789620129505249800,0.688249755859375,1.0561249256134033,-2.958660125732422,0.9422096014022827
1789620129515221500,0.698221435546875,1.0686674118041992,-3.1906838417053223,0.9687988758087158
1789620129525194800,0.70819482421875,1.2141406536102295,-3.1393795013427734,0.8335589170455933
1789620129535166700,0.718166748046875,1.298810601234436,-2.9069762229919434,0.5350952744483948
1789620129545138700,0.728138671875,1.309144377708435,-2.770219326019287,0.1450585573911667
1789620129555111700,0.738111572265625,1.336421012878418,-2.754159450531006,-0.14550377428531647
1789620129565083600,0.748083740234375,1.3982465267181396,-2.7914676666259766,-0.23525215685367584
1789620129575055600,0.7580556640625,1.3556894063949585,-2.955744504928589,-0.25626716017723083
1789620129585028600,0.768028564453125,1.176608681678772,-3.22373104095459,-0.321360319852829
1789620129595000800,0.778000732421875,1.1271450519561768,-3.7683298587799072,-0.2804991900920868
1789620129604972500,0.78797265625,1.1850792169570923,-4.260290622711182,-0.04493579640984535
1789620129614945500,0.797945556640625,1.189640998840332,-4.641587734222412,0.1541149914264679
1789620129624917800,0.807917724609375,1.1253013610839844,-5.018935680389404,0.1871224045753479
1789620129634889700,0.8178896484375,1.1444151401519775,-5.228562355041504,0.17071813344955444
1789620129644861700,0.82786181640625,1.2689729928970337,-5.408053398132324,0.1472935527563095
1789620129654834700,0.837834716796875,1.4907925128936768,-5.634304523468018,0.1981295645236969
1789620129664806700,0.847806640625,1.8171907663345337,-5.733409881591797,0.42229413986206055
1789620129674778600,0.857778564453125,2.1713521480560303,-5.730483055114746,0.8105076551437378
1789620129684752000,0.867751953125,2.4126293659210205,-5.817493915557861,1.272638201713562
1789620129694723600,0.8777236328125,2.484412670135498,-6.0320563316345215,1.6681402921676636
1789620129704695800,0.88769580078125,2.4545159339904785,-6.167916297912598,1.8746236562728882
1789620129714668800,0.897668701171875,2.427661180496216,-6.020252704620361,1.8510278463363647
1789620129724640500,0.907640625,2.4160304069519043,-5.566035747528076,1.6071940660476685
1789620129734612700,0.91761279296875,2.4335079193115234,-4.897183895111084,1.212999939918518
1789620129744585700,0.927585693359375,2.488152027130127,-4.257448673248291,0.7817786931991577
1789620129754557700,0.9375576171875,2.594813585281372,-3.7892374992370605,0.3849770128726959
1789620129764529700,0.94752978515625,2.7691173553466797,-3.629986524581909,0.1915537416934967
1789620129774501600,0.957501708984375,2.945924997329712,-3.7281813621520996,0.18719734251499176
1789620129784474600,0.967474609375,3.061485767364502,-3.775625705718994,0.25422853231430054
1789620129794446600,0.977446533203125,3.167567491531372,-3.6455578804016113,0.34127184748649597
1789620129804418600,0.98741845703125,3.260312080383301,-3.152148485183716,0.34791088104248047
1789620129814391600,0.9973916015625,3.265413284301758,-2.4669673442840576,0.21679653227329254
1789620129824363800,1.00736376953125,3.2424089908599854,-1.8334670066833496,0.0007262825965881348
1789620129834335500,1.01733544921875,3.2342398166656494,-1.3032766580581665,-0.251471608877182
1789620129844308700,1.027308837890625,3.1756927967071533,-0.8993998169898987,-0.48684924840927124
1789620129854280700,1.03728076171875,3.045747995376587,-0.6041351556777954,-0.6381804943084717
1789620129864252700,1.047252685546875,2.8721060752868652,-0.36487600207328796,-0.678765594959259
1789620129874225700,1.0572255859375,2.6738321781158447,-0.18855342268943787,-0.6818018555641174
1789620129884197600,1.06719775390625,2.4937617778778076,0.00007684924639761448,-0.6749087572097778
1789620129894169600,1.077169677734375,2.3886210918426514,0.32047751545906067,-0.5332664251327515
1789620129904141600,1.0871416015625,2.3255906105041504,0.7203890681266785,-0.3713150918483734
1789620129914114800,1.09711474609375,2.174394130706787,0.8958258628845215,-0.3873758316040039
1789620129924086500,1.10708642578125,2.0152180194854736,0.858844518661499,-0.48773467540740967
1789620129934058800,1.117058837890625,1.9328877925872803,0.507834792137146,-0.3328907787799835
1789620129944031700,1.12703173828125,1.800947666168213,0.10701277107000351,0.20009753108024597
1789620129954003500,1.13700341796875,1.625185251235962,-0.4860961139202118,0.7872723937034607
1789620129963975700,1.1469755859375,1.3922332525253296,-1.1634401082992554,1.4625024795532227
1789620129973948700,1.15694873046875,1.133431077003479,-1.56850004196167,2.0676043033599854
1789620129983920600,1.166920654296875,0.8051717877388,-1.55973482131958,2.283952474594116
1789620129993892600,1.176892578125,0.3814660310745239,-1.0202564001083374,2.0023341178894043
1789620130003865600,1.186865478515625,-0.09258230030536652,0.5904393196105957,0.8207786083221436
1789620130013837600,1.196837646484375,-0.4535388946533203,1.635790228843689,-0.41585782170295715
1789620130023809800,1.206809814453125,-0.7614626288414001,2.3781113624572754,-1.2199292182922363
1789620130033781800,1.21678173828125,-1.0492103099822998,2.465071439743042,-1.641133189201355
1789620130043754500,1.22675439453125,-1.338457465171814,2.0299532413482666,-1.6513824462890625
1789620130053726700,1.236726806640625,-1.6195623874664307,1.4379650354385376,-1.3930332660675049
1789620130063698700,1.24669873046875,-1.7907029390335083,0.9312875866889954,-1.1006959676742554
1789620130073671700,1.256671630859375,-1.8153212070465088,0.8620922565460205,-0.8175303339958191
1789620130083643600,1.2666435546875,-1.7624083757400513,0.9544071555137634,-0.6926996111869812
1789620130093615900,1.276615966796875,-1.692282795906067,0.829649806022644,-0.5301375985145569
1789620130103588600,1.286588623046875,-1.6545881032943726,0.5302802324295044,-0.3376670181751251
1789620130113560600,1.296560546875,-1.5770294666290283,0.2617667615413666,-0.2422550469636917
1789620130123532800,1.30653271484375,-1.414715051651001,0.1473063975572586,-0.24181100726127625
1789620130133505500,1.316505615234375,-1.3483141660690308,0.2536347210407257,-0.3169614374637604
1789620130143477800,1.326477783203125,-1.390331745147705,0.5819759368896484,-0.520821750164032
1789620130153449700,1.33644970703125,-1.5647534132003784,0.5562753677368164,-0.6732397675514221
1789620130163422500,1.34642236328125,-1.7369747161865234,0.51933753490448,-0.2864581346511841
1789620130173394700,1.356394775390625,-1.7023131847381592,0.7418718338012695,-0.49979838728904724
1789620130183366700,1.36636669921875,-1.6138832569122314,0.7224544286727905,-0.7165988683700562
1789620130193338600,1.376338623046875,-1.8210172653198242,0.5199013352394104,-0.6599451899528503
1789620130203311600,1.3863115234375,-1.9982521533966064,0.28262174129486084,-0.5677120089530945
1789620130213283800,1.396283935546875,-2.0047318935394287,0.1744161695241928,-0.3934962749481201
1789620130223255600,1.406255615234375,-1.8172156810760498,0.11529547721147537,-0.22602622210979462
1789620130233228800,1.416228759765625,-1.5192550420761108,0.13510620594024658,0.010092305950820446
1789620130243200800,1.42620068359375,-1.0092333555221558,-0.04624444991350174,0.4360104203224182
1789620130253172700,1.4361728515625,-0.5348018407821655,-0.5638343095779419,1.0525718927383423
1789620130263145700,1.446145751953125,-0.08800649642944336,-1.2441911697387695,1.7523235082626343
1789620130273117700,1.45611767578125,0.3067184388637543,-1.353315830230713,1.8962663412094116
1789620130283089700,1.466089599609375,0.4427773356437683,-1.014822244644165,1.5211187601089478
1789620130293062700,1.476062744140625,0.35764193534851074,-0.6770820021629333,1.1177449226379395
1789620130303035000,1.486034912109375,0.23212401568889618,-0.4369729459285736,0.8270390629768372
1789620130313006600,1.496006591796875,0.16638655960559845,-0.3135852515697479,0.6183356642723083
1789620130322979600,1.5059794921875,0.1617835909128189,-0.17125992476940155,0.4660392105579376
1789620130332951800,1.515951904296875,0.17631007730960846,-0.006473105400800705,0.35960596799850464
1789620130342923500,1.525923583984375,0.21639730036258698,0.22353722155094147,0.3254605531692505
1789620130352895700,1.535895751953125,0.2667931020259857,0.40872520208358765,0.3330084979534149
1789620130362868700,1.54586865234375,0.3368254005908966,0.6758955121040344,0.3337462544441223
1789620130372840700,1.5558408203125,0.4522111117839813,0.964347243309021,0.26835528016090393
1789620130382812700,1.565812744140625,0.6260269284248352,1.2578999996185303,0.19421309232711792
1789620130392785700,1.57578564453125,0.8895944356918335,1.3417059183120728,0.08487141877412796
1789620130402757600,1.585757568359375,1.2016775608062744,1.3947827816009521,-0.08926839381456375
1789620130412729900,1.595729736328125,1.4657819271087646,1.5501092672348022,-0.23641231656074524
1789620130422702800,1.605702880859375,1.615096092224121,1.6343644857406616,-0.2689542770385742
1789620130432674600,1.615674560546875,1.7193583250045776,1.407218337059021,-0.3028049170970917
1789620130442646800,1.625646728515625,1.8654170036315918,1.127807378768921,-0.33757293224334717
1789620130452619800,1.635619873046875,2.1217682361602783,1.1128572225570679,-0.3651411831378937
1789620130462591700,1.645591796875,2.2948992252349854,1.2753914594650269,-0.36421868205070496
1789620130472563700,1.655563720703125,2.245851993560791,1.43342125415802,-0.3593973219394684
1789620130482536000,1.665535888671875,2.243942975997925,1.5504766702651978,-0.3052562177181244
1789620130492507600,1.675507568359375,2.5134689807891846,1.858659029006958,-0.39492377638816833
1789620130502480000,1.68547998046875,2.9651238918304443,2.17044997215271,-0.49922052025794983
1789620130512451600,1.69545166015625,4.927310466766357,4.618398666381836,-1.9926635026931763
1789620130522424600,1.705424560546875,6.292490005493164,5.757806777954102,-4.196578025817871
1789620130532396800,1.715396728515625,5.794220447540283,4.734931945800781,-5.454770565032959
1789620130542368800,1.72536865234375,3.8038740158081055,2.7618112564086914,-5.40378999710083
1789620130552341800,1.735341796875,1.1479456424713135,0.5518083572387695,-4.243804931640625
1789620130562313700,1.745313720703125,-0.9573864936828613,-1.0864368677139282,-2.42199444770813
1789620130572285700,1.75528564453125,-1.9212026596069336,-1.6542036533355713,-0.6037036180496216
1789620130582258700,1.7652587890625,-2.1229248046875,-1.7535815238952637,1.06065034866333
1789620130592231000,1.77523095703125,-2.202927827835083,-1.6773158311843872,2.5811033248901367
1789620130602202600,1.78520263671875,-2.24690318107605,-1.4661858081817627,3.854644775390625
1789620130612175600,1.795175537109375,-2.0657382011413574,-1.428727388381958,4.640939235687256
1789620130622147800,1.80514794921875,-1.2215001583099365,-1.5999451875686646,3.8157026767730713
1789620130632119600,1.81511962890625,-0.09420698881149292,-1.972162127494812,0.736581027507782
1789620130642092800,1.8250927734375,0.15225833654403687,-0.6894899010658264,-0.3580887019634247
1789620130652064800,1.835064697265625,-0.24697454273700714,-0.9068616628646851,-0.3799031972885132
1789620130662036700,1.84503662109375,-0.6719488501548767,-1.111067771911621,0.1393248587846756
1789620130672009700,1.855009765625,-0.6767646074295044,-1.522074818611145,0.740073025226593
1789620130681981700,1.864981689453125,-0.4905833899974823,-1.8942244052886963,1.1601520776748657
1789620130691953700,1.87495361328125,-0.23103196918964386,-2.1451334953308105,1.43644380569458
1789620130701926700,1.8849267578125,0.09205011278390884,-2.0720551013946533,1.6173720359802246
1789620130711899000,1.89489892578125,0.45304903388023376,-1.909150242805481,1.6800141334533691
1789620130721870600,1.90487060546875,0.9398174285888672,-1.8611088991165161,1.6531604528427124
1789620130731842800,1.9148427734375,1.3324768543243408,-1.9161295890808105,1.4508347511291504
1789620130741815800,1.92481591796875,1.458592176437378,-1.700955867767334,1.1909629106521606
1789620130751787800,1.934787841796875,1.42610502243042,-1.4147273302078247,1.0267643928527832
1789620130761759700,1.944759765625,1.3462072610855103,-0.7484268546104431,0.6150710582733154
1789620130771732700,1.954732666015625,1.2888199090957642,-0.14271537959575653,0.09083366394042969
1789620130781704700,1.96470458984375,1.387743353843689,0.059252988547086716,-0.04261872172355652
1789620130791676700,1.9746767578125,1.392014980316162,-0.05805845931172371,0.3232556879520416
1789620130801650000,1.98464990234375,1.3507235050201416,-0.1325477659702301,0.5108165144920349
1789620130811621600,1.99462158203125,1.219137191772461,0.16955110430717468,0.2458365559577942
1789620130821593900,2.00459375,1.0317555665969849,0.6342163681983948,-0.2616488039493561
1789620130831566800,2.01456689453125,0.8270636796951294,0.9350057244300842,-0.5537509918212891
1789620130841538600,2.02453857421875,0.6012835502624512,1.0241824388504028,-0.5711349248886108
1789620130851510800,2.0345107421875,0.4451581537723541,0.9593296051025391,-0.487445592880249
1789620130861483800,2.04448388671875,0.37244468927383423,0.7999472618103027,-0.40617379546165466
1789620130871455700,2.054455810546875,0.3828760087490082,0.5741850137710571,-0.3817291855812073
1789620130881427700,2.064427734375,0.3329605758190155,0.18268698453903198,-0.3256818652153015
1789620130891400700,2.074400634765625,0.16170893609523773,-0.6020749807357788,-0.08829353004693985
1789620130901372700,2.08437255859375,0.0186404287815094,-1.0848227739334106,0.37378522753715515
1789620130911344600,2.0943447265625,-0.15648823976516724,-0.385002464056015,0.12510375678539276
1789620130921318000,2.10431787109375,-0.5794004797935486,-0.049340639263391495,0.04865868017077446
1789620130931289600,2.11428955078125,-1.0323426723480225,-0.14455823600292206,0.2935944199562073
1789620130941261800,2.12426171875,-1.4297128915786743,-0.7094763517379761,0.30612725019454956
1789620130951233800,2.13423388671875,-1.6684257984161377,-0.8078181147575378,0.10259890556335449
1789620130961206800,2.144206787109375,-1.742618203163147,-0.5563768148422241,-0.38824281096458435
1789620130971178800,2.1541787109375,-1.6958515644073486,-1.0237854719161987,-0.29794007539749146
1789620130981151000,2.16415087890625,-1.5438802242279053,-1.900908350944519,-0.015276288613677025
1789620130991123700,2.174123779296875,-1.306303858757019,-0.9489893913269043,0.02253846824169159
1789620131001095700,2.184095703125,-1.6180487871170044,-0.6855942606925964,-0.16226236522197723
1789620131011068000,2.19406787109375,-1.9906660318374634,-0.7243222594261169,-0.0878581777215004
1789620131021040600,2.20404052734375,-2.339050531387329,-0.8865566253662109,-0.03689255937933922
1789620131031012900,2.214012939453125,-2.633467435836792,-1.1091498136520386,0.020150750875473022
1789620131040984800,2.22398486328125,-2.882674217224121,-1.3226882219314575,0.07439421117305756
1789620131050957600,2.23395751953125,-3.0840368270874023,-1.6066895723342896,0.15999166667461395
1789620131060929800,2.2439296875,-3.1913037300109863,-1.9046263694763184,0.3149956166744232
1789620131070901800,2.25390185546875,-3.1734485626220703,-2.023685932159424,0.4509350657463074
1789620131080874800,2.263874755859375,-3.2595324516296387,-1.9377789497375488,0.5896300077438354
1789620131090846700,2.2738466796875,-3.4066247940063477,-1.642871379852295,0.847068727016449
1789620131100819000,2.28381884765625,-3.380549430847168,-1.4788559675216675,0.8029985427856445
1789620131110791700,2.293791748046875,-3.444920539855957,-1.50191068649292,0.8059288263320923
1789620131120764000,2.303763916015625,-3.1589269638061523,-1.8062748908996582,0.7078227996826172
1789620131130735900,2.31373583984375,-2.804769515991211,-1.7086726427078247,0.6290358304977417
1789620131140708600,2.32370849609375,-2.256880044937134,-1.340825080871582,0.5587591528892517
1789620131150680800,2.333680908203125,-1.8885362148284912,-1.0870522260665894,0.39879369735717773
1789620131160652800,2.34365283203125,-1.7021363973617554,-0.9257387518882751,0.26277944445610046
1789620131170625800,2.353625732421875,-1.586491584777832,-1.0877153873443604,0.30696049332618713
1789620131180597800,2.36359765625,-1.3066534996032715,-0.9995587468147278,0.47620025277137756
1789620131190570000,2.373570068359375,-0.7380683422088623,-0.778581440448761,0.4919174313545227
1789620131200542700,2.383542724609375,-0.04083819314837456,-0.43775373697280884,0.3964541256427765
1789620131210514700,2.3935146484375,0.47591888904571533,0.050955768674612045,0.11075232923030853
1789620131220487000,2.40348681640625,0.7608392238616943,0.6782458424568176,-0.3825596570968628
1789620131230458600,2.413458740234375,0.9732958078384399,1.4276918172836304,-0.9169663190841675
1789620131240431900,2.423431884765625,0.9994139671325684,1.9038572311401367,-1.2430142164230347
1789620131250403800,2.43340380859375,0.891040563583374,2.0673928260803223,-1.3716201782226562
1789620131260375800,2.443375732421875,0.8167900443077087,2.5007121562957764,-1.4606128931045532
1789620131270348800,2.453348876953125,0.7781963348388672,3.0532238483428955,-1.5164998769760132
1789620131280320800,2.46332080078125,0.7040782570838928,3.0835049152374268,-1.4326329231262207
1789620131290292700,2.473292724609375,0.6995285153388977,2.870039701461792,-1.2051705121994019
1789620131300265700,2.483265625,0.8318475484848022,2.5317983627319336,-1.0093148946762085
1789620131310237700,2.49323779296875,1.0714695453643799,2.7908196449279785,-0.8318554162979126
1789620131320209700,2.503209716796875,1.3009892702102661,3.567462205886841,-1.0285168886184692
1789620131330183000,2.513182861328125,1.7451224327087402,1.2568029165267944,-1.0070079565048218
1789620131340154600,2.523154541015625,2.17716908454895,1.0815602540969849,-0.5958661437034607
1789620131350126800,2.533126953125,2.0987141132354736,1.426669955253601,-0.45840394496917725
1789620131360099800,2.543099853515625,2.012852191925049,0.9881200790405273,-0.33163923025131226
1789620131370071600,2.553071533203125,2.072493314743042,0.966241717338562,-0.3808422088623047
1789620131380043800,2.563043701171875,2.5477335453033447,1.2689523696899414,-0.755996584892273
1789620131390016800,2.573016845703125,3.2867002487182617,1.163181185722351,-0.8384541869163513
1789620131399988700,2.58298876953125,3.7362022399902344,0.7094436287879944,-1.0426198244094849
1789620131409960700,2.592960693359375,4.087418079376221,0.11995454132556915,-0.8153344988822937
1789620131419933700,2.60293359375,4.335879802703857,-0.04284598305821419,-0.5252582430839539
1789620131429905700,2.61290576171875,4.563076019287109,1.2494555711746216,-0.6661360263824463
1789620131439877600,2.622877685546875,5.330059051513672,3.693275213241577,-1.2037904262542725
1789620131449851000,2.632850830078125,5.8261518478393555,4.824462413787842,-1.745067834854126
1789620131459822600,2.642822509765625,5.792956352233887,5.043911457061768,-1.8981608152389526
1789620131469794800,2.652794921875,5.27003288269043,4.205435276031494,-1.5483503341674805
1789620131479768000,2.66276806640625,4.582899570465088,2.905996561050415,-1.586746096611023
1789620131489739800,2.67273974609375,3.7925992012023926,2.034191370010376,-1.7571468353271484
1789620131499712000,2.6827119140625,3.1977767944335938,1.5595999956130981,-1.7235406637191772
1789620131509685000,2.69268505859375,2.6343984603881836,0.882693886756897,-1.744850993156433
1789620131519657000,2.702656982421875,1.830670714378357,0.11280949413776398,-1.6297523975372314
1789620131529629000,2.71262890625,1.081392526626587,-0.42302462458610535,-1.15488862991333
1789620131539601200,2.72260107421875,0.6326413750648499,-0.6156666278839111,-0.3762338161468506
1789620131549574000,2.732573974609375,0.36540117859840393,-0.3790930211544037,0.30194520950317383
1789620131559546000,2.742546142578125,0.09723564982414246,-0.1289730966091156,0.7490167021751404
1789620131569518000,2.75251806640625,-0.13291285932064056,-0.08114726096391678,1.0384538173675537
1789620131579490800,2.76249072265625,-0.23067179322242737,0.2873214781284332,1.0625330209732056
1789620131589463000,2.772463134765625,-0.46722710132598877,1.0702937841415405,0.84232497215271
1789620131599435000,2.78243505859375,-0.5058205127716064,0.9954162240028381,0.7204993963241577
1789620131609408000,2.792407958984375,-0.5050674080848694,0.18479156494140625,0.7221934199333191
1789620131619380000,2.8023798828125,-0.5311373472213745,-0.3286111354827881,0.48713573813438416
1789620131629352200,2.812352294921875,-0.6629893779754639,-0.39654839038848877,0.16763924062252045
1789620131639325000,2.822324951171875,-0.8420175313949585,-0.49562111496925354,0.09850796312093735
1789620131649297000,2.832296875,-1.0182782411575317,-0.6526837348937988,0.04865092784166336
1789620131659269000,2.84226904296875,-1.3977556228637695,-0.853365421295166,0.07623394578695297
1789620131669241900,2.852241943359375,-2.3353569507598877,-0.6443123817443848,0.03174636885523796
1789620131679214000,2.862214111328125,-3.216552972793579,-0.22976979613304138,0.02481016516685486
1789620131689186000,2.87218603515625,-3.8761327266693115,-0.5474563837051392,-0.16596351563930511
1789620131699158800,2.88215869140625,-4.475852012634277,-0.457052081823349,-0.2998812198638916
1789620131709131000,2.892131103515625,-4.912118434906006,-0.5747656226158142,-0.4744916558265686
1789620131719103000,2.90210302734375,-4.896566390991211,-1.0427470207214355,-0.5910437107086182
1789620131729076000,2.912075927734375,-3.347095489501953,-2.082581043243408,-0.774269700050354
1789620131739048000,2.9220478515625,-0.10835343599319458,-1.403710961341858,-1.5972809791564941
1789620131749020200,2.932020263671875,1.4886630773544312,-1.8779560327529907,-1.7572517395019531
1789620131758993000,2.941992919921875,1.3137859106063843,-1.2368628978729248,-1.8601347208023071
1789620131768965000,2.951965087890625,0.5075071454048157,-0.5690432786941528,-1.2673225402832031
1789620131778937000,2.96193701171875,-0.03664539381861687,-0.16055037081241608,-0.245268315076828
1789620131788909800,2.971909912109375,-0.20901769399642944,0.0051882583647966385,0.6668156385421753
1789620131798882000,2.981882080078125,-0.3638637363910675,0.18236619234085083,1.015868067741394
1789620131808854000,2.99185400390625,-0.6331878900527954,0.10053231567144394,0.9180186986923218
1789620131818827000,3.001826904296875,-1.0234543085098267,-0.5500324368476868,0.3373121917247772
1789620131828799000,3.011799072265625,-1.1964426040649414,-1.065201997756958,-0.41286274790763855
1789620131838771200,3.021771240234375,-1.1711840629577637,-0.910458505153656,-0.7892377972602844
1789620131848744000,3.031743896484375,-1.1146204471588135,-0.6889188885688782,-0.8437362313270569
1789620131858716000,3.0417158203125,-0.9665572643280029,-0.5403963923454285,-0.7830610275268555
1789620131868688100,3.051688232421875,-0.7454614043235779,-0.44247832894325256,-0.7014465928077698
1789620131878659800,3.061659912109375,-0.5016266107559204,-0.4135572016239166,-0.682438850402832
1789620131888633000,3.071633056640625,-0.47859159111976624,0.4439377784729004,-1.3998454809188843
1789620131898605000,3.08160498046875,-0.828426718711853,1.2223637104034424,-1.6228864192962646
1789620131908577000,3.091576904296875,-1.0048614740371704,1.0309040546417236,-1.065332055091858
1789620131918550000,3.101550048828125,-1.31512451171875,0.7684261798858643,-0.7061631679534912
1789620131928522000,3.11152197265625,-1.6911734342575073,0.48063594102859497,-0.3277474343776703
1789620131938494000,3.121493896484375,-2.013780117034912,0.3539009988307953,0.08945266157388687
1789620131948467000,3.131467041015625,-2.2310667037963867,0.1444641351699829,0.4210590720176697
1789620131958439200,3.141439208984375,-2.130584239959717,-0.37851837277412415,0.6144668459892273
1789620131968411000,3.151410888671875,-1.7126705646514893,-0.7953624725341797,0.7584304213523865
1789620131978384100,3.161384033203125,-1.4067587852478027,-0.8165093660354614,0.9524039626121521
1789620131988356000,3.171356201171875,-0.9584746956825256,-0.9885197877883911,0.9349027872085571
1789620131998328000,3.181328125,-0.3693719804286957,-1.0310370922088623,0.7928125858306885
1789620132008301000,3.191301025390625,0.08886804431676865,-0.7963171601295471,0.6403954029083252
1789620132018273000,3.20127294921875,0.2907392382621765,-0.43866166472435,0.33647841215133667
1789620132028245000,3.211244873046875,0.3429606258869171,-0.473884642124176,0.11830879002809525
1789620132038218000,3.221218017578125,0.21896611154079437,-0.4425674080848694,0.1588910073041916
1789620132048190200,3.231190185546875,-0.005949282553046942,-0.4437969923019409,0.20920930802822113
1789620132058162000,3.241161865234375,-0.35173603892326355,-0.3876037895679474,0.24364694952964783
1789620132068135000,3.251135009765625,-0.5497586131095886,-0.10403785109519958,0.37272077798843384
1789620132078107100,3.261107177734375,-0.5341359972953796,0.3059854805469513,0.4757373034954071
1789620132088078800,3.271078857421875,-0.31072530150413513,0.5763759613037109,0.46584683656692505
1789620132098052000,3.281052001953125,-0.08775686472654343,0.5295230746269226,0.35450270771980286
1789620132108024000,3.291024169921875,0.1246587261557579,0.5327582955360413,0.39667999744415283
1789620132117996000,3.30099609375,0.3688904941082001,0.6609087586402893,0.5433115363121033
1789620132127969000,3.310968994140625,0.5228986740112305,0.6943591237068176,0.6197711229324341
1789620132137941200,3.320941162109375,0.5993382930755615,0.6767786741256714,0.614963710308075
1789620132147913000,3.330912841796875,0.6560817360877991,0.7789012789726257,0.5680937170982361
1789620132157886000,3.340885986328125,0.7031295299530029,0.8807016611099243,0.554707407951355
1789620132167858200,3.350858154296875,0.6467189788818359,0.8634286522865295,0.5581226944923401
1789620132177830000,3.360829833984375,0.6108089089393616,0.7603837251663208,0.532077431678772
1789620132187803100,3.37080322265625,0.7004141807556152,0.7857761383056641,0.39697232842445374
1789620132197775000,3.380775146484375,0.8504652380943298,1.1331182718276978,0.24316932260990143
1789620132207747000,3.3907470703125,0.4498158097267151,1.9805947542190552,-0.0743178203701973
1789620132217720000,3.400719970703125,0.12012504786252975,3.087742328643799,-0.20371581614017487
1789620132227692000,3.410692138671875,0.6986991763114929,3.8724286556243896,-0.10031592100858688
1789620132237664000,3.4206640625,2.5625252723693848,3.5938034057617188,-0.08120045065879822
1789620132247637000,3.430636962890625,3.1482951641082764,3.522155284881592,-0.229679137468338
1789620132257609200,3.440609130859375,3.3806331157684326,3.9580419063568115,-0.2580709159374237
1789620132267581000,3.450580810546875,3.570910930633545,3.5863747596740723,-0.20662502944469452
1789620132277554000,3.460553955078125,3.382807493209839,2.550179958343506,-0.26577818393707275
1789620132287526100,3.470526123046875,2.8816111087799072,1.8369184732437134,-0.3191351592540741
1789620132297498000,3.480498046875,2.448268413543701,1.7070657014846802,-0.3443848788738251
1789620132307471000,3.49047119140625,2.073101043701172,1.6029558181762695,-0.3406418263912201
1789620132317443000,3.500443115234375,1.840928077697754,1.2560356855392456,-0.34349381923675537
1789620132327415000,3.5104150390625,1.8098487854003906,0.8856227397918701,-0.4231415092945099
1789620132337388000,3.520387939453125,1.9989315271377563,0.8435845971107483,-0.4897950291633606
1789620132347360000,3.530360107421875,2.104504346847534,0.4265783131122589,-0.6274253726005554
1789620132357332000,3.54033203125,2.0854334831237793,0.11385705322027206,-0.7713940739631653
1789620132367305000,3.550304931640625,1.9818317890167236,-0.11822731792926788,-0.865861177444458
1789620132377277000,3.56027685546875,2.0441837310791016,0.07607943564653397,-1.0000176429748535
1789620132387249000,3.570248779296875,1.9928697347640991,-0.04361660033464432,-1.0283282995224
1789620132397222100,3.58022216796875,1.8547954559326172,-0.39227551221847534,-1.0077588558197021
1789620132407193900,3.59019384765625,1.756179690361023,-0.5104407668113708,-1.0154825448989868
1789620132417166000,3.600166015625,1.6699227094650269,-0.5045892000198364,-0.9531196355819702
1789620132427139000,3.61013916015625,1.6232845783233643,-0.5742718577384949,-0.8240111470222473
1789620132437110800,3.62011083984375,1.553930401802063,-0.5601291060447693,-0.7429447770118713
1789620132447083000,3.6300830078125,1.466299295425415,-0.5169896483421326,-0.6640846133232117
1789620132457056000,3.640055908203125,1.3648964166641235,-0.4922483265399933,-0.550853431224823
1789620132467028000,3.650028076171875,1.2527741193771362,-0.5125386714935303,-0.4741158187389374
1789620132476999700,3.659999755859375,1.1287747621536255,-0.4731031060218811,-0.4248380661010742
1789620132486973000,3.669972900390625,0.9902560710906982,-0.3314703404903412,-0.3453770577907562
1789620132496944600,3.679944580078125,0.8155515193939209,-0.13621774315834045,-0.2208564579486847
1789620132506916900,3.689916748046875,0.601696789264679,0.04209979623556137,-0.14280159771442413
1789620132516889900,3.699889892578125,0.315472811460495,0.26558852195739746,-0.12099269032478333
1789620132526861600,3.709861572265625,0.07116907835006714,0.36450713872909546,-0.08746002614498138
1789620132536833800,3.719833740234375,-0.08678648620843887,0.3338240683078766,-0.013659640215337276
1789620132546806800,3.729806884765625,-0.20134848356246948,0.29925891757011414,0.11145087331533432
1789620132556778800,3.73977880859375,-0.3330819308757782,0.21354646980762482,0.3064534068107605
1789620132566750700,3.749750732421875,-0.4078376591205597,0.2242441177368164,0.5644806623458862
1789620132576723700,3.7597236328125,-0.48154571652412415,0.1904536932706833,0.7544040083885193
1789620132586695700,3.76969580078125,-0.5063221454620361,0.09161499887704849,0.7826867699623108
1789620132596667600,3.779667724609375,-0.5413417220115662,0.017138278111815453,0.6890224814414978
1789620132606641000,3.789640869140625,-0.5549664497375488,-0.07347976416349411,0.6103875637054443
1789620132616612600,3.799612548828125,-0.571093738079071,-0.11458923667669296,0.5541911125183105
1789620132626584800,3.809584716796875,-0.6180039644241333,-0.10678324103355408,0.5047425627708435
1789620132636557800,3.819557861328125,-0.7309967279434204,-0.11144108325242996,0.4928916096687317
1789620132646529800,3.82952978515625,-0.8605400919914246,-0.18244336545467377,0.4879724979400635
1789620132656501800,3.839501708984375,-1.0007317066192627,-0.28966662287712097,0.43091684579849243
1789620132666474800,3.849474853515625,-1.1734012365341187,-0.4045226275920868,0.3246612548828125
1789620132676446700,3.85944677734375,-1.4449273347854614,-0.7334929704666138,0.17028973996639252
1789620132686418700,3.869418701171875,-1.636911153793335,-0.735943078994751,-0.003117992077022791
1789620132696392000,3.879391845703125,-1.7062509059906006,-0.5171610116958618,-0.2008250504732132
1789620132706363600,3.88936376953125,-1.7500617504119873,-0.4040968120098114,-0.30973875522613525
1789620132716335900,3.8993359375,-1.7443336248397827,-0.4416423738002777,-0.33489635586738586
1789620132726308900,3.909308837890625,-1.7124933004379272,-0.5916180610656738,-0.2977212965488434
1789620132736280600,3.919280517578125,-1.6775317192077637,-0.8508565425872803,-0.2577662467956543
1789620132746252800,3.929252685546875,-1.631996512413025,-1.270619511604309,-0.2814023196697235
1789620132756225800,3.939225830078125,-1.633151888847351,-1.6237701177597046,-0.3487548828125
1789620132766197800,3.94919775390625,-1.5853990316390991,-1.8323746919631958,-0.4752507507801056
1789620132776169700,3.959169677734375,-1.2507981061935425,-1.9186731576919556,-0.6730948686599731
1789620132786142700,3.969142822265625,-1.1061387062072754,-1.5532339811325073,-0.6996971964836121
1789620132796114700,3.97911474609375,-1.2693947553634644,-1.209238052368164,-0.6303287148475647
1789620132806086700,3.989086669921875,-1.413758397102356,-0.9225239753723145,-0.5113946199417114
1789620132816060000,3.999059814453125,-1.5865012407302856,-0.5395562052726746,-0.42478346824645996
1789620132826031600,4.009031494140625,-1.6988792419433594,-0.2189904749393463,-0.3574225604534149
1789620132836003800,4.01900390625,-1.6492067575454712,-0.06950841099023819,-0.2725846469402313
1789620132845976800,4.028976806640625,-1.5977367162704468,-0.10907898843288422,-0.22793488204479218
1789620132855948800,4.03894873046875,-1.610063076019287,-0.2645454406738281,-0.23160791397094727
1789620132865920800,4.048920654296875,-1.6058422327041626,-0.4206138551235199,-0.1769116371870041
1789620132875893800,4.058893798828125,-1.6623784303665161,-0.6137431859970093,-0.1978720873594284
1789620132885865700,4.06886572265625,-1.6975361108779907,-0.7806589603424072,-0.2616334855556488
1789620132895837700,4.078837646484375,-1.6232291460037231,-0.9240816831588745,-0.22689570486545563
1789620132905811000,4.08881103515625,-1.5809952020645142,-0.9574944972991943,-0.15541432797908783
1789620132915782700,4.09878271484375,-1.5953164100646973,-1.0375807285308838,-0.1296059638261795
1789620132925755000,4.1087548828125,-1.7032548189163208,-1.07852041721344,-0.13055086135864258
1789620132935727900,4.118727783203125,-1.6861640214920044,-1.1183316707611084,-0.15429137647151947
1789620132945699600,4.128699462890625,-1.6168467998504639,-1.1326446533203125,-0.1794007122516632
1789620132955671800,4.138671875,-1.5589168071746826,-1.0796387195587158,-0.1535099595785141
1789620132965644800,4.148644775390625,-1.4750131368637085,-1.0941343307495117,-0.1468012034893036
1789620132975616800,4.15861669921875,-1.361546277999878,-1.1275084018707275,-0.1392865926027298
1789620132985588700,4.168588623046875,-1.263010859489441,-1.0765496492385864,-0.08157375454902649
1789620132995561700,4.178561767578125,-1.159338116645813,-1.028320074081421,-0.01767876371741295
1789620133005533700,4.18853369140625,-1.0429269075393677,-0.9747689962387085,0.01871519722044468
1789620133015505700,4.198505615234375,-0.8881191611289978,-0.8324701189994812,0.028258714824914932
1789620133025479000,4.20847900390625,-0.704669713973999,-0.6089198589324951,0.05368657782673836
1789620133035450600,4.21845068359375,-0.5632844567298889,-0.4067303538322449,0.08668718487024307
1789620133045422800,4.2284228515625,-0.4502936899662018,-0.2955883741378784,0.11621258407831192
1789620133055395800,4.238395751953125,-0.3213200569152832,-0.2215290069580078,0.13923226296901703
1789620133065367800,4.248367919921875,-0.17238302528858185,-0.13026753067970276,0.12505333125591278
1789620133075339800,4.25833984375,-0.05726046487689018,-0.0785958394408226,0.10431140661239624
1789620133085312800,4.268312744140625,0.0320502370595932,-0.019541040062904358,0.13050226867198944
1789620133095284700,4.27828466796875,0.13037791848182678,0.042941831052303314,0.1896776705980301
1789620133105256700,4.288256591796875,0.2446371167898178,0.14283700287342072,0.22621144354343414
1789620133115230000,4.29822998046875,0.39602214097976685,0.24358956515789032,0.20555755496025085
1789620133125201700,4.30820166015625,0.5533265471458435,0.3540066182613373,0.1737426519393921
1789620133135174000,4.318173828125,0.716939389705658,0.43065768480300903,0.1385946422815323
1789620133145147000,4.32814697265625,0.8808268904685974,0.47091373801231384,0.1202225536108017
1789620133155118600,4.33811865234375,1.0418802499771118,0.5438820123672485,0.11490337550640106
1789620133165090800,4.3480908203125,1.2078965902328491,0.6961410641670227,0.14402051270008087
1789620133175063800,4.358063720703125,1.35359787940979,0.9179542064666748,0.1913086324930191
1789620133185035800,4.368035888671875,1.43118155002594,1.1162457466125488,0.2314281016588211
1789620133195007700,4.3780078125,1.4780579805374146,1.2210952043533325,0.2367221713066101
1789620133204980700,4.387980712890625,1.5550811290740967,1.2222853899002075,0.1979377567768097
1789620133214952700,4.39795263671875,1.6724789142608643,1.1713624000549316,0.1445571631193161
1789620133224925000,4.407925048828125,1.8270984888076782,1.1292839050292969,0.10404781997203827
1789620133234898000,4.41789794921875,1.9670419692993164,1.0936044454574585,0.08370503783226013
1789620133244869600,4.42786962890625,2.0700693130493164,1.0295416116714478,0.06333664804697037
1789620133254841900,4.437841796875,2.119138240814209,0.9299418330192566,0.049090053886175156
1789620133264814800,4.44781494140625,2.1357107162475586,0.8584442138671875,0.014475886709988117
1789620133274786800,4.457786865234375,2.1634697914123535,0.8334133625030518,-0.041954927146434784
1789620133284758800,4.4677587890625,2.2065248489379883,0.8176538348197937,-0.08447176218032837
1789620133294731800,4.477731689453125,2.2673211097717285,0.7665062546730042,-0.11621187627315521
1789620133304703700,4.487703857421875,2.3237879276275635,0.6812318563461304,-0.13140015304088593
1789620133314675700,4.49767578125,2.38692045211792,0.629010021686554,-0.10343313962221146
1789620133324649000,4.50764892578125,2.4138073921203613,0.6254070401191711,-0.07374422252178192
1789620133334620700,4.51762060546875,2.398757219314575,0.589503824710846,-0.0513547919690609
1789620133344593000,4.527593017578125,2.3504159450531006,0.528602659702301,-0.06362424045801163
1789620133354566000,4.53756591796875,2.2470767498016357,0.3796658217906952,-0.11106039583683014
1789620133364537600,4.54753759765625,2.13799786567688,0.2698511779308319,-0.14767806231975555
1789620133374509800,4.557509765625,2.057048797607422,0.24863407015800476,-0.16567634046077728
1789620133384482800,4.56748291015625,1.9777437448501587,0.20035123825073242,-0.18716351687908173
1789620133394454800,4.577454833984375,1.867746353149414,0.07859455794095993,-0.20333299040794373
1789620133404426800,4.5874267578125,1.7533106803894043,-0.06717436015605927,-0.22017481923103333
1789620133414399700,4.597399658203125,1.6186609268188477,-0.18280822038650513,-0.2602664530277252
1789620133424371700,4.607371826171875,1.516869068145752,-0.21031467616558075,-0.31984350085258484
1789620133434344000,4.617343994140625,1.4167840480804443,-0.22356076538562775,-0.35359200835227966
1789620133444317000,4.62731689453125,1.264024257659912,-0.2978602945804596,-0.335599422454834
1789620133454288600,4.63728857421875,1.1605277061462402,-0.36039620637893677,-0.26614975929260254
1789620133464260900,4.6472607421875,1.0472815036773682,-0.34227314591407776,-0.17679885029792786
1789620133474233900,4.65723388671875,0.9093025326728821,-0.2629035711288452,-0.11291518062353134
1789620133484206300,4.667206298828125,0.7781109809875488,-0.15136535465717316,-0.07993406057357788
1789620133494178300,4.67717822265625,0.6514637470245361,0.03167658671736717,-0.07521657645702362
1789620133504151300,4.6871513671875,0.5384349226951599,0.27847519516944885,-0.11233650892972946
1789620133514123500,4.69712353515625,0.4255765676498413,0.4313479959964752,-0.19147732853889465
1789620133524096500,4.707096435546875,0.28063085675239563,0.39715486764907837,-0.25569868087768555
1789620133534068200,4.717068115234375,0.13144135475158691,0.23889684677124023,-0.2582020163536072
1789620133544040400,4.72704052734375,-0.0011350689455866814,0.07825470715761185,-0.2202349454164505
1789620133554012400,4.737012451171875,-0.12676484882831573,-0.012583263218402863,-0.17508436739444733
1789620133563985400,4.7469853515625,-0.2750656008720398,0.010902621783316135,-0.13085006177425385
1789620133573957400,4.756957275390625,-0.4339004158973694,0.052334364503622055,-0.09129562973976135
1789620133583930400,4.766930419921875,-0.5752722024917603,0.05705961212515831,-0.06672317534685135
1789620133593902300,4.77690234375,-0.7063421010971069,0.01787726767361164,-0.03789352998137474
1789620133603874600,4.78687451171875,-0.8085669875144958,-0.033417876809835434,0.014387249946594238
1789620133613847600,4.79684765625,-0.8754076957702637,-0.05892015993595123,0.08621226251125336
1789620133623819300,4.8068193359375,-0.9073400497436523,-0.0773865208029747,0.14552299678325653
1789620133633791500,4.81679150390625,-0.9276366233825684,-0.11030613631010056,0.18388082087039948
1789620133643764500,4.826764404296875,-0.9411636590957642,-0.12065757811069489,0.21353937685489655
1789620133653736400,4.836736328125,-0.9492326974868774,-0.08882163465023041,0.24954411387443542
1789620133663708400,4.84670849609375,-0.9522993564605713,-0.09965484589338303,0.28000110387802124
1789620133673681400,4.856681396484375,-0.9550274014472961,-0.1795782595872879,0.27679726481437683
1789620133683653400,4.8666533203125,-0.9996819496154785,-0.18234236538410187,0.2686264216899872
1789620133693625300,4.876625244140625,-1.0862984657287598,-0.14982309937477112,0.21808934211730957
1789620133703598600,4.8865986328125,-1.190159559249878,-0.06948430836200714,0.14422710239887238
1789620133713570300,4.8965703125,-1.2649986743927002,0.018407920375466347,0.10360164195299149
1789620133723542500,4.90654248046875,-1.35017991065979,0.12204909324645996,0.07886353880167007
1789620133733515500,4.916515625,-1.4400020837783813,0.09588419646024704,0.042885977774858475
1789620133743487200,4.9264873046875,-1.5383480787277222,-0.024255527183413506,-0.020049843937158585
1789620133753459500,4.93645947265625,-1.5940624475479126,-0.12335165590047836,-0.11386053264141083
1789620133763432400,4.946432373046875,-1.6123096942901611,-0.17911984026432037,-0.20269159972667694
1789620133773404400,4.956404296875,-1.5840215682983398,-0.27264878153800964,-0.28925052285194397
1789620133783376400,4.96637646484375,-1.5691028833389282,-0.44572174549102783,-0.35047152638435364
1789620133793349600,4.976349609375,-1.5626370906829834,-0.6057246327400208,-0.37531736493110657
1789620133803321300,4.9863212890625,-1.5875706672668457,-0.6869524121284485,-0.36968159675598145
1789620133813293600,4.99629345703125,-1.6584047079086304,-0.6564515829086304,-0.3707921504974365
1789620133823266600,5.0062666015625,-1.6990575790405273,-0.5614760518074036,-0.3971955478191376
1789620133833238300,5.01623828125,-1.708783507347107,-0.5399698615074158,-0.4469713270664215
1789620133843210500,5.02621044921875,-1.7023022174835205,-0.6228644847869873,-0.4755249619483948
1789620133853183500,5.03618359375,-1.6960465908050537,-0.7790733575820923,-0.477122962474823
1789620133863155500,5.046155517578125,-1.6950668096542358,-0.9085307121276855,-0.4657094478607178
1789620133873127400,5.05612744140625,-1.695684790611267,-1.0439587831497192,-0.47342753410339355
1789620133883100200,5.06610009765625,-1.7269972562789917,-1.0856950283050537,-0.45560166239738464
1789620133893072400,5.076072265625,-1.7431522607803345,-1.0324705839157104,-0.4150192439556122
1789620133903044400,5.08604443359375,-1.7639564275741577,-0.9866377711296082,-0.3839401602745056
1789620133913017300,5.096017333984375,-1.76798415184021,-0.9100516438484192,-0.36376166343688965
1789620133922989300,5.1059892578125,-1.7491004467010498,-0.8735136389732361,-0.37253278493881226
1789620133932961500,5.11596142578125,-1.7291433811187744,-0.8507309556007385,-0.3665066063404083
1789620133942934300,5.125934326171875,-1.6676348447799683,-0.8490850925445557,-0.3580412268638611
1789620133952906500,5.135906494140625,-1.6349126100540161,-0.8430963754653931,-0.3270357549190521
1789620133962878500,5.14587841796875,-1.5599288940429688,-0.89630526304245,-0.2980198264122009
1789620133972851200,5.155851318359375,-1.4912735223770142,-0.9557163119316101,-0.23545271158218384
1789620133982823400,5.165823486328125,-1.4215093851089478,-0.9341367483139038,-0.13855598866939545
1789620133992795400,5.17579541015625,-1.3777872323989868,-0.8392310738563538,-0.05403439328074455
1789620134002768400,5.185768310546875,-1.2763772010803223,-0.7190234065055847,0.0005082101561129093
1789620134012740400,5.195740234375,-1.1299872398376465,-0.6078699231147766,0.03081519901752472
1789620134022712600,5.205712646484375,-0.9741582274436951,-0.4202532172203064,0.08939329534769058
1789620134032685300,5.215685302734375,-0.8317854404449463,-0.2539001405239105,0.15385854244232178
1789620134042657300,5.2256572265625,-0.7160135507583618,-0.12383909523487091,0.20312383770942688
1789620134052629500,5.23562939453125,-0.58637934923172,-0.008453517220914364,0.24653737246990204
1789620134062602200,5.245602294921875,-0.42305198311805725,0.14436665177345276,0.29420849680900574
1789620134072574500,5.255574462890625,-0.2712313234806061,0.3256776034832001,0.3066564202308655
1789620134082546400,5.26554638671875,-0.13437145948410034,0.4372595250606537,0.27652329206466675
1789620134092519200,5.275519287109375,0.007323817349970341,0.46169453859329224,0.2671612501144409
1789620186830053600,58.0130537109375,0.2420908510684967,-0.9505776762962341,-0.3092923164367676
1789620186840025600,58.023025634765624,0.16544130444526672,-0.7919750809669495,-0.2815099060535431
1789620186849997600,58.03299755859375,0.0733497366309166,-0.5096115469932556,-0.1748279333114624
1789620186859969500,58.042969482421874,0.03622414544224739,-0.1634632647037506,-0.004720469005405903
1789620186869941800,58.05294165039062,0.02984560653567314,0.14271529018878937,0.20075279474258423
1789620186879913500,58.06291357421875,-0.009624367579817772,0.31964272260665894,0.42540159821510315
1789620186889885700,58.0728857421875,-0.11282851547002792,0.3887712061405182,0.6663007736206055
1789620186899856600,58.08285668945312,-0.10032743960618973,0.3618893325328827,0.8890550136566162
1789620186909828600,58.09282861328125,-0.03959990665316582,0.2279866635799408,1.052849531173706
1789620186919800600,58.102800537109374,0.022697007283568382,-0.026089945808053017,1.10788094997406
1789620186929772500,58.1127724609375,0.054060786962509155,-0.3277038633823395,1.0546815395355225
1789620186939744800,58.12274487304688,0.04605311527848244,-0.5239337086677551,0.9598076939582825
1789620186949716500,58.13271655273437,0.016515197232365608,-0.5728937983512878,0.8713921308517456
1789620186959688700,58.14268872070313,-0.024552632123231888,-0.5294773578643799,0.7893438935279846
1789620186969660400,58.15266040039062,-0.06628569960594177,-0.429502010345459,0.695320188999176
1789620186979632600,58.16263256835938,-0.08398182690143585,-0.3054705560207367,0.577571451663971
1789620186989603800,58.17260375976562,-0.07981797307729721,-0.17476846277713776,0.431423544883728
1789620186999575600,58.182575439453124,-0.07150726765394211,-0.06089291721582413,0.2690567374229431
1789620187009547800,58.1925478515625,-0.07145959138870239,0.0259770005941391,0.1096164733171463
1789620187019519500,58.20251953125,-0.08612366020679474,0.08237945288419724,-0.019809404388070107
1789620187029491700,58.21249169921875,-0.0971270427107811,0.1281576007604599,-0.10806283354759216
1789620187039463400,58.22246337890625,-0.08792371302843094,0.15511520206928253,-0.1645881086587906
1789620187049435600,58.232435546875,-0.051130011677742004,0.14509719610214233,-0.19711889326572418
1789620187059407600,58.24240771484375,-0.011054771952331066,0.08648235350847244,-0.20982621610164642
1789620187069379600,58.252379638671876,0.01046303752809763,-0.007799672894179821,-0.2211150974035263
1789620187079351600,58.2623515625,0.023335443809628487,-0.08358246833086014,-0.24642831087112427
1789620187089322500,58.27232250976562,0.04669110104441643,-0.08804912120103836,-0.2814965546131134
1789620187099294700,58.28229467773438,0.07809147238731384,-0.03486604243516922,-0.30931422114372253
1789620187109266700,58.2922666015625,0.0975320115685463,0.03229914605617523,-0.308566153049469
1789620187119238700,58.30223876953125,0.11303552985191345,0.07349789887666702,-0.27543237805366516
1789620187129210600,58.312210693359376,0.1285010427236557,0.08670397847890854,-0.20307961106300354
1789620187139182600,58.3221826171875,0.14153631031513214,0.05696071684360504,-0.07324900478124619
1789620187149154600,58.332154541015626,0.14750419557094574,-0.011019663885235786,0.09463772922754288
1789620187159126500,58.34212646484375,0.14678959548473358,-0.09511849284172058,0.2698420286178589
1789620187169098500,58.35209838867188,0.13611803948879242,-0.16652876138687134,0.41120874881744385
1789620187179070700,58.36207080078125,0.11513716727495193,-0.19870062172412872,0.49337226152420044
1789620187189042700,58.37204272460937,0.09433228522539139,-0.18270860612392426,0.5064153671264648
1789620187199014700,58.3820146484375,0.07421296089887619,-0.15547609329223633,0.46468350291252136
1789620187208985600,58.391985595703126,0.05114732310175896,-0.13378331065177917,0.3845074474811554
1789620187218957600,58.40195751953125,0.02695544995367527,-0.12338575720787048,0.2738589644432068
1789620187228929800,58.4119296875,0.0043614571914076805,-0.13153663277626038,0.14022156596183777
1789620187238901500,58.421901611328124,-0.02263336442410946,-0.1450795978307724,-0.017073187977075577
1789620187248873700,58.43187377929687,-0.0322207435965538,-0.14440368115901947,-0.1882214993238449
1789620187258845400,58.441845458984375,-0.022659864276647568,-0.1071777418255806,-0.34513160586357117
1789620187268817700,58.45181762695312,-0.0024307584390044212,-0.047934390604496,-0.46889427304267883
1789620187278789600,58.46178955078125,0.008212069980800152,0.0028379084542393684,-0.541811466217041
1789620187288761600,58.47176171875,0.00802138727158308,0.018679456785321236,-0.5726085305213928
1789620187298733800,58.48173388671875,0.006928231567144394,-0.0004719721619039774,-0.5673242807388306
1789620187308705500,58.49170556640625,0.00931495614349842,-0.04292036220431328,-0.5270642042160034
1789620187318677800,58.501677734375,0.03532436117529869,-0.07008674740791321,-0.4644128978252411
1789620187328649500,58.5116494140625,0.07160886377096176,-0.05157192051410675,-0.3788492679595947
1789620187338621700,58.52162158203125,0.10373447835445404,0.007757163606584072,-0.26960310339927673
1789620187348592600,58.53159252929687,0.11162302643060684,0.0668409913778305,-0.13877663016319275
1789620187358564600,58.54156469726563,0.10016985237598419,0.09523413330316544,-0.004141179844737053
1789620187368536800,58.551536865234375,0.09569307416677475,0.08822442591190338,0.10909110307693481
1789620187378508500,58.56150854492188,0.07603657245635986,0.04819342866539955,0.19957418739795685
1789620187388480800,58.571480712890626,0.033678460866212845,-0.017550429329276085,0.2659289836883545
1789620187398452500,58.58145239257812,-0.01360286958515644,-0.04220808297395706,0.2981795072555542
1789620187408424700,58.5914248046875,-0.04511791840195656,0.006580493412911892,0.27764227986335754
1789620187418396700,58.601396728515624,-0.06966841965913773,0.08355621248483658,0.2131110578775406
1789620187428368600,58.61136865234375,-0.09140140563249588,0.13006485998630524,0.12028924375772476
1789620187438340600,58.621340576171875,-0.09834492206573486,0.13861076533794403,0.010880163870751858
1789620187448312600,58.6313125,-0.09883095324039459,0.11388544738292694,-0.09057429432868958
1789620187458284500,58.641284423828125,-0.10278350859880447,0.0932028591632843,-0.16769155859947205
1789620187468256800,58.6512568359375,-0.0906464159488678,0.10006848722696304,-0.20918066799640656
1789620187478228500,58.661228515625,-0.07058171927928925,0.13344089686870575,-0.21118338406085968
1789620187488200700,58.67120068359375,-0.0518660843372345,0.16509228944778442,-0.1643085479736328
1789620187498172400,58.68117236328125,-0.04373031482100487,0.1624160259962082,-0.08758127689361572
1789620187508144600,58.69114453125,-0.03743859380483627,0.12903010845184326,-0.012561622075736523
1789620187518116600,58.70111669921875,-0.024372249841690063,0.06423968076705933,0.033602844923734665
1789620187528088600,58.71108862304688,-0.00777409877628088,-0.00981990061700344,0.040537185966968536
1789620187538060300,58.72106030273437,0.02194942533969879,-0.0509563684463501,0.007774964440613985
1789620187548032000,58.731031982421875,0.06215303763747215,-0.037035491317510605,-0.03874833136796951
1789620187558003200,58.741003173828126,0.10574432462453842,0.010347642935812473,-0.07324741780757904
1789620187567975200,58.75097509765625,0.12108120322227478,0.04274366423487663,-0.0798129141330719
1789620187577947100,58.76094702148438,0.12840768694877625,0.021877190098166466,-0.06498565524816513
1789620187587919400,58.77091943359375,0.13667891919612885,-0.03213118389248848,-0.03969654068350792
1789620187597891000,58.78089111328125,0.15313832461833954,-0.06744053214788437,-0.006043911911547184
1789620187607863300,58.79086328125,0.18517376482486725,-0.03734894469380379,0.039101194590330124
1789620187617835000,58.8008349609375,0.2211160957813263,0.024759264662861824,0.10256321728229523
1789620187627807200,58.81080712890625,0.23753555119037628,0.053817279636859894,0.18068091571331024
1789620187637779200,58.820779296875,0.24009060859680176,0.029143180698156357,0.2583068013191223
1789620187647751200,58.83075122070313,0.21571896970272064,-0.0391240231692791,0.3156678378582001
1789620187657723100,58.84072314453125,0.16508261859416962,-0.10622934997081757,0.33620259165763855
1789620187667695000,58.85069506835937,0.10971363633871078,-0.1531236171722412,0.3086434006690979
1789620187677667000,58.8606669921875,0.06722375750541687,-0.18124739825725555,0.22235199809074402
1789620187687639300,58.870639404296874,0.033789899200201035,-0.18328072130680084,0.09818052500486374
1789620187697611000,58.88061108398438,0.013341953046619892,-0.14769840240478516,-0.02246851474046707
1789620187707583200,58.890583251953124,-0.007200606167316437,-0.08662226796150208,-0.11075576394796371
1789620187717555000,58.90055493164063,-0.031998198479413986,-0.0007363605545833707,-0.15376697480678558
1789620187727527200,58.910527099609375,-0.0410151332616806,0.09404873847961426,-0.15772922337055206
1789620187737499100,58.9204990234375,-0.04392878711223602,0.15286676585674286,-0.12348666787147522
1789620187747471000,58.93047119140625,-0.04649261385202408,0.14836496114730835,-0.057146526873111725
1789620187757443000,58.94044311523437,-0.045568738132715225,0.11091998219490051,0.029114194214344025
1789620187767415000,58.9504150390625,-0.040209658443927765,0.0680454820394516,0.12795235216617584
1789620187777387300,58.96038720703125,-0.03494391217827797,0.03536633402109146,0.2237517535686493
1789620187787359200,58.97035913085937,-0.02755284495651722,0.01664377748966217,0.295610249042511
1789620187797331200,58.980331298828126,-0.021071918308734894,-0.010694576427340508,0.32419705390930176
1789620187807303200,58.99030322265625,-0.029196424409747124,-0.052372246980667114,0.30248430371284485
1789620187817275100,59.00027514648438,-0.04735121876001358,-0.06672120839357376,0.23933447897434235
1789620187827247000,59.0102470703125,-0.05974157527089119,-0.007292772643268108,0.1590558886528015
1789620187837219300,59.02021923828125,-0.06919919699430466,0.08870632946491241,0.08786240965127945
1789620187847191000,59.03019091796875,-0.08007101714611053,0.14919443428516388,0.04208453744649887
1789620187857163300,59.04016333007812,-0.09251449257135391,0.12916381657123566,0.027289653196930885
1789620187867135000,59.050135009765626,-0.1105283796787262,0.048764586448669434,0.022312205284833908
1789620187877107200,59.06010717773437,-0.1161869540810585,-0.04283715412020683,0.02257635071873665
1789620187887079200,59.0700791015625,-0.10845260322093964,-0.09601675719022751,0.01999574899673462
1789620187897051100,59.080051025390624,-0.09776391088962555,-0.10606532543897629,0.012144838459789753
1789620187907023000,59.09002319335937,-0.09194942563772202,-0.08986371755599976,0.007486969232559204
1789620187916995000,59.0999951171875,-0.08739917725324631,-0.05713677778840065,0.0018068403005599976
1789620187926967000,59.10996704101562,-0.08839679509401321,-0.030255362391471863,-0.00033141160383820534
1789620187936939300,59.11993920898438,-0.08518482744693756,-0.02096407860517502,-0.008893423713743687
1789620187946911000,59.12991088867187,-0.08171233534812927,-0.019786696881055832,-0.021849170327186584
1789620187956883200,59.13988330078125,-0.07543491572141647,-0.022075315937399864,-0.04660056531429291
1789620187966855200,59.149855224609375,-0.06979460269212723,-0.022612210363149643,-0.0840802937746048
1789620187976827100,59.1598271484375,-0.07095308601856232,-0.024094924330711365,-0.1365150809288025
1789620187986799400,59.16979931640625,-0.053310442715883255,-0.01961096003651619,-0.187211275100708
1789620187996771000,59.17977099609375,-0.010798401199281216,0.007964741438627243,-0.22092635929584503
1789620188006743300,59.18974340820313,0.032871048897504807,0.02925884537398815,-0.21219119429588318
1789620188016715000,59.199715087890624,0.07497355341911316,0.044613540172576904,-0.1584019809961319
1789620188026687200,59.20968725585937,0.10984498262405396,0.06240824982523918,-0.07664133608341217
1789620188036659200,59.2196591796875,0.12545517086982727,0.07359269261360168,0.024145277217030525
1789620188046631200,59.22963110351562,0.12269800156354904,0.0640106350183487,0.130941241979599
1789620188056603100,59.23960302734375,0.10942552983760834,0.05430411919951439,0.223243847489357
1789620188066575000,59.2495751953125,0.08216700702905655,0.05136212334036827,0.2870981991291046
1789620188076547000,59.25954711914063,0.04793612286448479,0.053005650639534,0.31114310026168823
1789620188086519300,59.269519287109375,0.015068188309669495,0.0432044193148613,0.28416046500205994
1789620188096491000,59.27949096679688,-0.011080817319452763,0.029655691236257553,0.2073282152414322
1789620188106463200,59.289463134765626,-0.021704966202378273,0.04337230324745178,0.0885070264339447
1789620188116435000,59.29943505859375,-0.02531852386891842,0.07099192589521408,-0.040350399911403656
1789620188126407200,59.3094072265625,-0.031318891793489456,0.0895211324095726,-0.16465610265731812
1789620188136379100,59.319379150390624,-0.04411614313721657,0.10867694020271301,-0.2726609408855438
1789620188146351000,59.32935107421875,-0.037357572466135025,0.1389986127614975,-0.35226333141326904
1789620188156323000,59.339322998046875,-0.012276888824999332,0.1717291921377182,-0.38002702593803406
1789620188166295000,59.349294921875,0.008989783935248852,0.20960307121276855,-0.34489166736602783
1789620188176267300,59.35926733398438,0.020390585064888,0.2636965215206146,-0.25923243165016174
1789620188186239200,59.3692392578125,0.019641172140836716,0.30968213081359863,-0.14207571744918823
1789620188196211200,59.37921118164063,0.00645865686237812,0.3125361204147339,-0.017718367278575897
1789620188206183200,59.38918310546875,-0.02020144835114479,0.29390519857406616,0.13266581296920776
1789620188216155100,59.39915502929688,-0.03252217918634415,0.2014886438846588,0.28767839074134827
1789620188226128100,59.40912817382812,0.011013046838343143,0.018393123522400856,0.3170735538005829
1789620188236100000,59.41910009765625,0.08204460889101028,-0.16970117390155792,0.2534336745738983
1789620188246072000,59.42907202148437,0.12216593325138092,-0.28815990686416626,0.16951745748519897
1789620188256044000,59.4390439453125,0.1323227882385254,-0.2741241753101349,0.06846190243959427
1789620188266016300,59.449016357421876,0.08609669655561447,-0.1899552345275879,-0.01606043428182602
1789620188275988200,59.45898828125,0.024267392233014107,-0.03185223042964935,-0.04778028652071953
