time,seconds_elapsed,z,y,x
1789620128859542300,0.042542236328125,-0.35322943329811096,-0.3489915430545807,-0.3328469395637512
1789620128869515500,0.052515625,-0.4648960530757904,-0.3642573058605194,-0.581083357334137
1789620128879487200,0.0624873046875,-0.5744670033454895,-0.24623534083366394,-0.8615344762802124
1789620128889459500,0.07245947265625,-0.6700183153152466,-0.048227716237306595,-1.1424065828323364
1789620128899432400,0.082432373046875,-0.7322190999984741,0.15430621802806854,-1.3753535747528076
1789620128909404200,0.092404052734375,-0.7512681484222412,0.3383687138557434,-1.518639326095581
1789620128919376400,0.10237646484375,-0.7095974087715149,0.45210781693458557,-1.5470994710922241
1789620128929349400,0.112349365234375,-0.5985619425773621,0.49407416582107544,-1.4412063360214233
1789620128939321300,0.1223212890625,-0.4401286542415619,0.5109242796897888,-1.2038921117782593
1789620128949293300,0.132293212890625,-0.2659240961074829,0.5285024642944336,-0.8568118810653687
1789620128959265300,0.142265380859375,-0.11742836236953735,0.529231071472168,-0.46089252829551697
1789620128969238300,0.15223828125,-0.004094077739864588,0.48631611466407776,-0.09042204171419144
1789620128979210500,0.16221044921875,0.0936971977353096,0.38806918263435364,0.2063252031803131
1789620128989182200,0.17218212890625,0.17501363158226013,0.23720136284828186,0.38602226972579956
1789620128999155200,0.1821552734375,0.2548607885837555,0.05589229241013527,0.4322124123573303
1789620129009127400,0.19212744140625,0.33439210057258606,-0.13798849284648895,0.37420421838760376
1789620129019099100,0.20209912109375,0.4496830105781555,-0.2895473837852478,0.2627698481082916
1789620129029072400,0.212072265625,0.5887469053268433,-0.3169337511062622,0.17061302065849304
1789620129039044400,0.22204443359375,0.6966832280158997,-0.2392650544643402,0.12882056832313538
1789620129049016300,0.232016357421875,0.7246594429016113,-0.13461241126060486,0.14267432689666748
1789620129058988300,0.24198828125,0.6866156458854675,-0.13688062131404877,0.21848785877227783
1789620129068961300,0.251961181640625,0.5956684350967407,-0.2721897065639496,0.3462679386138916
1789620129078933200,0.261933349609375,0.4655303955078125,-0.4809993803501129,0.5060210824012756
1789620129088905200,0.2719052734375,0.3046349883079529,-0.6644861102104187,0.6381605267524719
1789620129098878500,0.28187841796875,0.1490696370601654,-0.7417910099029541,0.7115175127983093
1789620129108850200,0.29185009765625,0.02840660698711872,-0.6764980554580688,0.7295370101928711
1789620129118822400,0.301822509765625,-0.021709289401769638,-0.48540663719177246,0.664688229560852
1789620129128795400,0.31179541015625,0.19011534750461578,0.24183952808380127,0.0822991356253624
1789620129138767400,0.321767333984375,0.4613838791847229,1.2476286888122559,-0.6588910818099976
1789620129148739300,0.3317392578125,0.759945809841156,1.848745584487915,-1.1898287534713745
1789620129158712300,0.34171240234375,0.8366190195083618,2.3528435230255127,-1.627259373664856
1789620129168684300,0.351684326171875,0.7960137724876404,2.677217721939087,-1.9688323736190796
1789620129178656300,0.36165625,0.7347501516342163,2.6388278007507324,-2.2295727729797363
1789620129188628200,0.371628173828125,0.6695501208305359,2.3705286979675293,-2.3490071296691895
1789620129198601200,0.381601318359375,0.5208189487457275,1.8913460969924927,-2.4331464767456055
1789620129208573400,0.391573486328125,0.32756802439689636,1.6193656921386719,-2.4513864517211914
1789620129218545200,0.401545166015625,0.17982248961925507,1.6314127445220947,-2.411403179168701
1789620129228518100,0.41151806640625,0.14503149688243866,1.9558014869689941,-2.268702745437622
1789620129238490400,0.421490478515625,0.18162572383880615,2.3386731147766113,-2.0543477535247803
1789620129248462000,0.431462158203125,0.22111427783966064,2.6822280883789062,-1.796871304512024
1789620129258435300,0.441435302734375,0.21747426688671112,2.8865623474121094,-1.498162031173706
1789620129268407300,0.4514072265625,0.13391625881195068,2.9098305702209473,-1.1656568050384521
1789620129278379300,0.461379150390625,-0.022913837805390358,2.742654323577881,-0.7907735109329224
1789620129288352300,0.471352294921875,-0.19893093407154083,2.3058230876922607,-0.34828153252601624
1789620129298324200,0.48132421875,-0.05422035977244377,1.351989984512329,0.2008313685655594
1789620129308296200,0.491296142578125,-0.083861343562603,0.6726886630058289,0.7921591401100159
1789620129318268400,0.501268310546875,-0.33063676953315735,0.3855905830860138,1.3758186101913452
1789620129328241400,0.511241455078125,-0.3101269602775574,-0.7189030051231384,1.9724804162979126
1789620129338213000,0.521213134765625,-0.5705111622810364,-2.5245587825775146,2.189470052719116
1789620129348185300,0.531185302734375,-1.1801601648330688,-4.595213413238525,1.8735543489456177
1789620129358158300,0.541158447265625,-1.2539077997207642,-5.434558868408203,1.8936430215835571
1789620129368130300,0.55113037109375,-1.1458431482315063,-6.450735569000244,1.743312120437622
1789620129378102300,0.561102294921875,-0.95997554063797,-7.825726509094238,1.217219352722168
1789620129388075300,0.5710751953125,-0.8953848481178284,-8.052173614501953,0.09802243858575821
1789620129398047200,0.581047119140625,-0.9795617461204529,-6.629945755004883,-0.7099577188491821
1789620129408019200,0.591019287109375,-0.8356109857559204,-4.714667320251465,-1.4632842540740967
1789620129417992400,0.600992431640625,-0.33988887071609497,-3.0949525833129883,-2.047294855117798
1789620129427964200,0.610964111328125,0.44694793224334717,-2.0468316078186035,-2.306544303894043
1789620129437936400,0.620936279296875,1.704450011253357,-1.8929996490478516,-2.2324533462524414
1789620129447908400,0.630908447265625,3.00014591217041,-2.218864679336548,-1.9293826818466187
1789620129457881000,0.640881103515625,3.534308671951294,-2.0805823802948,-1.5183017253875732
1789620129467853300,0.650853271484375,3.3421812057495117,-2.1700990200042725,-0.9812608957290649
1789620129477825500,0.660825439453125,2.78117036819458,-2.5714621543884277,-0.37118154764175415
1789620129487798800,0.670798828125,2.003336191177368,-2.6556005477905273,0.26937127113342285
1789620129497770800,0.680770751953125,1.3045753240585327,-2.7753396034240723,0.7626523375511169
1789620129507742700,0.69074267578125,1.0325133800506592,-3.0312693119049072,0.9618117809295654
1789620129517715700,0.7007158203125,1.1048967838287354,-3.2094051837921143,0.9453343152999878
1789620129527687700,0.710687744140625,1.2482528686523438,-3.086649179458618,0.770928144454956
1789620129537659600,0.72065966796875,1.3047499656677246,-2.857802391052246,0.4355914294719696
1789620129547632600,0.730632568359375,1.312339425086975,-2.766709327697754,0.05020458251237869
1789620129557604900,0.74060498046875,1.3537652492523193,-2.7574241161346436,-0.18910308182239532
1789620129567576600,0.75057666015625,1.4078580141067505,-2.8224003314971924,-0.2426384687423706
1789620129577548800,0.760548828125,1.31600821018219,-3.01159930229187,-0.27492210268974304
1789620129587521800,0.770521728515625,1.148866891860962,-3.3368239402770996,-0.33457452058792114
1789620129597493800,0.78049365234375,1.139819622039795,-3.9095218181610107,-0.24053670465946198
1789620129607465700,0.7904658203125,1.1996424198150635,-4.357791900634766,0.015325427055358887
1789620129617438700,0.800438720703125,1.1759006977081299,-4.74364709854126,0.1693781167268753
1789620129627410700,0.81041064453125,1.1211705207824707,-5.090126991271973,0.1797998547554016
1789620129637382700,0.820382568359375,1.1674760580062866,-5.268495559692383,0.15945038199424744
1789620129647356000,0.83035595703125,1.3163493871688843,-5.463817119598389,0.14520539343357086
1789620129657327600,0.84032763671875,1.5648460388183594,-5.67710542678833,0.22908830642700195
1789620129667299800,0.8502998046875,1.9085969924926758,-5.734583854675293,0.5014774799346924
1789620129677272800,0.86027294921875,2.2488412857055664,-5.739475250244141,0.9189833998680115
1789620129687244500,0.87024462890625,2.44799542427063,-5.86338472366333,1.3798210620880127
1789620129697216800,0.880216796875,2.4835565090179443,-6.083996772766113,1.7353674173355103
1789620129707188500,0.8901884765625,2.44840669631958,-6.162578105926514,1.8856695890426636
1789620129717161700,0.90016162109375,2.4224393367767334,-5.937122344970703,1.8058152198791504
1789620129727133700,0.9101337890625,2.4183554649353027,-5.410504341125488,1.5144946575164795
1789620129737105700,0.920105712890625,2.4446771144866943,-4.72690486907959,1.0991533994674683
1789620129747078700,0.93007861328125,2.51051664352417,-4.123948574066162,0.6740111708641052
1789620129757051000,0.94005078125,2.6340279579162598,-3.7128376960754395,0.30775463581085205
1789620129767022600,0.950022705078125,2.817683219909668,-3.6483778953552246,0.17520484328269958
1789620129776995600,0.95999560546875,2.980992317199707,-3.746842384338379,0.19427333772182465
1789620129786967800,0.9699677734375,3.0874392986297607,-3.7713286876678467,0.27401211857795715
1789620129796939500,0.979939453125,3.199187755584717,-3.554706335067749,0.350197970867157
1789620129806912800,0.989912841796875,3.2694547176361084,-2.9842982292175293,0.32265928387641907
1789620129816884700,0.999884765625,3.260485887527466,-2.3016645908355713,0.16431277990341187
1789620129826856700,1.009856689453125,3.242017984390259,-1.6920737028121948,-0.06413397938013077
1789620129836828700,1.01982861328125,3.228696823120117,-1.1922295093536377,-0.3177502751350403
1789620129846801700,1.0298017578125,3.1506927013397217,-0.8188168406486511,-0.5410746932029724
1789620129856773600,1.039773681640625,3.007503032684326,-0.5387684106826782,-0.6587475538253784
1789620129866745600,1.04974560546875,2.8260092735290527,-0.31870633363723755,-0.6843873858451843
1789620129876718800,1.05971875,2.6280925273895264,-0.14618943631649017,-0.6900506019592285
1789620129886690600,1.069690673828125,2.456834077835083,0.07279884070158005,-0.6541141867637634
1789620129896662800,1.079662841796875,2.3824024200439453,0.4207168519496918,-0.4924914538860321
1789620129906635800,1.0896357421875,2.297534704208374,0.805001974105835,-0.35960131883621216
1789620129916607700,1.099607666015625,2.1284255981445312,0.8908768892288208,-0.41435644030570984
1789620129926579700,1.109579833984375,1.9958845376968384,0.8353633284568787,-0.5117924213409424
1789620129936552700,1.119552734375,1.9026802778244019,0.3946913778781891,-0.21465344727039337
1789620129946524700,1.129524658203125,1.7644145488739014,-0.015275891870260239,0.338317334651947
1789620129956496600,1.13949658203125,1.569665789604187,-0.6651892066001892,0.9414839148521423
1789620129966468600,1.149468505859375,1.3318969011306763,-1.2989325523376465,1.628553032875061
1789620129976441600,1.159441650390625,1.061503529548645,-1.608136773109436,2.1637377738952637
1789620129986413800,1.169413818359375,0.7088391780853271,-1.4903051853179932,2.259455442428589
1789620129996385500,1.179385498046875,0.2541811466217041,-0.6220278739929199,1.7656906843185425
1789620130006358500,1.189358642578125,-0.18672673404216766,0.8909304141998291,0.4767649471759796
1789620130016330800,1.199330810546875,-0.5347049236297607,1.8617857694625854,-0.6607518196105957
1789620130026302500,1.209302490234375,-0.8328490257263184,2.466160297393799,-1.36636221408844
1789620130036275700,1.219275634765625,-1.1175718307495117,2.38545298576355,-1.68651282787323
1789620130046247700,1.22924755859375,-1.4101914167404175,1.8845003843307495,-1.605610966682434
1789620130056219600,1.2392197265625,-1.6765363216400146,1.296856164932251,-1.319738745689392
1789620130066192600,1.249192626953125,-1.8064199686050415,0.8745304346084595,-1.029105305671692
1789620130076164600,1.25916455078125,-1.8005850315093994,0.8810301423072815,-0.7778968214988708
1789620130086136600,1.269136474609375,-1.7432780265808105,0.9466802477836609,-0.667965829372406
1789620130096108800,1.27910888671875,-1.6791560649871826,0.764428436756134,-0.4824689030647278
1789620130106081800,1.289081787109375,-1.6432909965515137,0.4507810175418854,-0.30609413981437683
1789620130116053500,1.299053466796875,-1.5285398960113525,0.21764470636844635,-0.24055534601211548
1789620130126025700,1.309025634765625,-1.3886529207229614,0.14870904386043549,-0.2571535110473633
1789620130135998700,1.318998779296875,-1.3418797254562378,0.3200549781322479,-0.34606340527534485
1789620130145970700,1.328970703125,-1.4297353029251099,0.6223711371421814,-0.6200949549674988
1789620130155942700,1.338942626953125,-1.6143195629119873,0.5237468481063843,-0.6075458526611328
1789620130165915600,1.34891552734375,-1.7470632791519165,0.582423210144043,-0.28340721130371094
1789620130175887600,1.3588876953125,-1.6902226209640503,0.7668646574020386,-0.6115899085998535
1789620130185859600,1.368859619140625,-1.6234371662139893,0.6816800236701965,-0.7185932993888855
1789620130195832800,1.378832763671875,-1.8820148706436157,0.44369301199913025,-0.6464967131614685
1789620130205804500,1.388804443359375,-2.017655849456787,0.24348002672195435,-0.5320410132408142
1789620130215776800,1.39877685546875,-1.966256022453308,0.14487303793430328,-0.36302080750465393
1789620130225749800,1.408749755859375,-1.7577571868896484,0.12878194451332092,-0.16847796738147736
1789620130235721500,1.418721435546875,-1.3960613012313843,0.10888227820396423,0.08715780824422836
1789620130245693700,1.428693603515625,-0.8945267796516418,-0.11807470768690109,0.5698251128196716
1789620130255666700,1.438666748046875,-0.41654929518699646,-0.7622877955436707,1.217666745185852
1789620130265638700,1.448638671875,0.02647501602768898,-1.3362770080566406,1.8657972812652588
1789620130275610600,1.458610595703125,0.3736862540245056,-1.289028525352478,1.8201878070831299
1789620130285582800,1.468582763671875,0.43905991315841675,-0.9178608655929565,1.404380440711975
1789620130295555600,1.4785556640625,0.32151252031326294,-0.6048235893249512,1.0305026769638062
1789620130305527800,1.48852783203125,0.2133072167634964,-0.40521833300590515,0.7629892826080322
1789620130315499800,1.498499755859375,0.16081178188323975,-0.28259867429733276,0.5714017152786255
1789620130325472500,1.508472412109375,0.16768993437290192,-0.13509443402290344,0.4310656487941742
1789620130335444700,1.51844482421875,0.18296661972999573,0.04644126817584038,0.3424021005630493
1789620130345416700,1.528416748046875,0.23039725422859192,0.2801320552825928,0.32172584533691406
1789620130355389700,1.5383896484375,0.28167110681533813,0.4600200653076172,0.33342963457107544
1789620130365361700,1.548361572265625,0.36380085349082947,0.7467847466468811,0.3192128837108612
1789620130375334000,1.558333984375,0.49006372690200806,1.0512537956237793,0.24708035588264465
1789620130385306600,1.568306640625,0.6871184706687927,1.2963745594024658,0.16678845882415771
1789620130395278600,1.578278564453125,0.9713448286056519,1.3460664749145508,0.041007619351148605
1789620130405250800,1.588250732421875,1.2794113159179688,1.4202805757522583,-0.14043620228767395
1789620130415223600,1.5982236328125,1.5099196434020996,1.5962274074554443,-0.25695908069610596
1789620130425195800,1.60819580078125,1.6443029642105103,1.5972771644592285,-0.27900633215904236
1789620130435167700,1.618167724609375,1.7530933618545532,1.3320993185043335,-0.31789007782936096
1789620130445139700,1.6281396484375,1.925930142402649,1.0922476053237915,-0.3491809070110321
1789620130455112700,1.63811279296875,2.186894178390503,1.1484413146972656,-0.37074530124664307
1789620130465084700,1.648084716796875,2.2964768409729004,1.3121402263641357,-0.36786511540412903
1789620130475055600,1.6580556640625,2.236333131790161,1.4693416357040405,-0.355020135641098
1789620130485028900,1.66802880859375,2.2846920490264893,1.601407527923584,-0.30829286575317383
1789620130495000800,1.678000732421875,2.6743645668029785,2.027324914932251,-0.468587726354599
1789620130504972800,1.687972900390625,3.1531074047088623,2.4176197052001953,-0.5545950531959534
1789620130514945800,1.69794580078125,5.420879364013672,5.1427412033081055,-2.6132638454437256
1789620130524917800,1.707917724609375,6.367408275604248,5.717348098754883,-4.62583065032959
1789620130534889700,1.7178896484375,5.411672592163086,4.283062934875488,-5.5664591789245605
1789620130544862700,1.72786279296875,3.1601898670196533,2.2207350730895996,-5.215811729431152
1789620130554835000,1.7378349609375,0.5285218954086304,0.05494900420308113,-3.8224170207977295
1789620130564806700,1.747806640625,-1.2986769676208496,-1.3233470916748047,-1.9621390104293823
1789620130574779600,1.757779541015625,-2.0130035877227783,-1.696824550628662,-0.17355181276798248
1789620130584751900,1.767751953125,-2.1421871185302734,-1.7622123956680298,1.447414755821228
1789620130594723600,1.7777236328125,-2.2181873321533203,-1.6232722997665405,2.9279654026031494
1789620130604696800,1.78769677734375,-2.2378478050231934,-1.4322535991668701,4.1021599769592285
1789620130614668800,1.797668701171875,-1.923309326171875,-1.3764241933822632,4.6889801025390625
1789620130624640800,1.807640869140625,-0.9093419313430786,-1.8784552812576294,3.1043386459350586
1789620130634612700,1.81761279296875,0.053461626172065735,-1.5755740404129028,0.25561365485191345
1789620130644585700,1.827585693359375,0.10453146696090698,-0.6947891712188721,-0.43621379137039185
1789620130654557700,1.8375576171875,-0.38147199153900146,-0.9639135599136353,-0.2885258197784424
1789620130664530000,1.847530029296875,-0.7097595930099487,-1.1979337930679321,0.29191574454307556
1789620130674503000,1.8575029296875,-0.6325492262840271,-1.6276206970214844,0.8605773448944092
1789620130684474600,1.867474609375,-0.43454691767692566,-1.976049542427063,1.2329481840133667
1789620130694446800,1.87744677734375,-0.14631113409996033,-2.1708874702453613,1.4860191345214844
1789620130704419800,1.887419921875,0.1684744954109192,-2.0083227157592773,1.64041268825531
1789620130714391800,1.897391845703125,0.5730345249176025,-1.8969464302062988,1.6816322803497314
1789620130724363800,1.90736376953125,1.0525217056274414,-1.8629275560379028,1.612929344177246
1789620130734336800,1.917336669921875,1.4017274379730225,-1.8966313600540161,1.3794164657592773
1789620130744308700,1.927308837890625,1.4470120668411255,-1.6461312770843506,1.1290857791900635
1789620130754280700,1.93728076171875,1.4072600603103638,-1.3018112182617188,0.9317694902420044
1789620130764254000,1.94725390625,1.3233665227890015,-0.5567277073860168,0.50978684425354
1789620130774225700,1.9572255859375,1.316909670829773,-0.05449386686086655,-0.015155516564846039
1789620130784198000,1.967197998046875,1.3977843523025513,0.044740039855241776,0.035109784454107285
1789620130794171000,1.9771708984375,1.3879386186599731,-0.08894132077693939,0.3884555995464325
1789620130804142600,1.987142578125,1.3283860683441162,-0.11498676985502243,0.49260571599006653
1789620130814114800,1.99711474609375,1.1787619590759277,0.2911823093891144,0.12139646708965302
1789620130824086800,2.007086669921875,0.979399561882019,0.7326755523681641,-0.36805471777915955
1789620130834059800,2.017059814453125,0.774304211139679,0.962367057800293,-0.5831388235092163
1789620130844031700,2.02703173828125,0.5556144714355469,1.0232229232788086,-0.5608976483345032
1789620130854003700,2.037003662109375,0.42102259397506714,0.9303351044654846,-0.4695832133293152
1789620130863976700,2.046976806640625,0.3669852018356323,0.7414570450782776,-0.3990989327430725
1789620130873949000,2.056948974609375,0.38888248801231384,0.5109109282493591,-0.3900817334651947
1789620130883920600,2.066920654296875,0.2924313247203827,0.007306382525712252,-0.2890413999557495
1789620130893893600,2.0768935546875,0.12911590933799744,-0.7844929695129395,0.022220883518457413
1789620130903865900,2.086865966796875,-0.010116017423570156,-1.0302050113677979,0.40081560611724854
1789620130913837600,2.096837646484375,-0.24362358450889587,-0.18215355277061462,-0.023137010633945465
1789620130923810800,2.106810791015625,-0.6948853135108948,-0.0880528911948204,0.14539608359336853
1789620130933782800,2.11678271484375,-1.1292729377746582,-0.24943965673446655,0.28307831287384033
1789620130943754800,2.126754638671875,-1.5146336555480957,-0.8531902432441711,0.30876263976097107
1789620130953727700,2.136727783203125,-1.6945561170578003,-0.7067922949790955,-0.04158792272210121
1789620130963699700,2.14669970703125,-1.740701675415039,-0.6092348694801331,-0.4302789568901062
1789620130973671700,2.156671630859375,-1.663820505142212,-1.3285213708877563,-0.21762099862098694
1789620130983644700,2.166644775390625,-1.4616596698760986,-1.6961129903793335,0.04713369160890579
1789620130993617000,2.176616943359375,-1.3489512205123901,-0.8075186610221863,-0.037882134318351746
1789620131003588600,2.186588623046875,-1.7085258960723877,-0.688815712928772,-0.16872882843017578
1789620131013561600,2.1965615234375,-2.085420608520508,-0.758683979511261,-0.06556303054094315
1789620131023533800,2.206533935546875,-2.408956527709961,-0.93516606092453,-0.03319550305604935
1789620131033505800,2.216505859375,-2.6948554515838623,-1.1693657636642456,0.027993284165859222
1789620131043478800,2.226478759765625,-2.9440956115722656,-1.3830370903015137,0.08560731261968613
1789620131053450800,2.23645068359375,-3.1214849948883057,-1.6891884803771973,0.19614127278327942
1789620131063422700,2.246422607421875,-3.1836647987365723,-1.9646658897399902,0.34728527069091797
1789620131073395700,2.256395751953125,-3.1644749641418457,-2.0226075649261475,0.472433865070343
1789620131083368000,2.266367919921875,-3.3203189373016357,-1.877286434173584,0.642042875289917
1789620131093339600,2.276339599609375,-3.3834421634674072,-1.5773210525512695,0.8647385239601135
1789620131103312000,2.286311767578125,-3.406139850616455,-1.4584429264068604,0.7878610491752625
1789620131113284900,2.296284912109375,-3.4082701206207275,-1.5758954286575317,0.7947050929069519
1789620131123256600,2.306256591796875,-3.098310708999634,-1.8401881456375122,0.6694917678833008
1789620131133228800,2.316228759765625,-2.6629698276519775,-1.6049492359161377,0.6178112626075745
1789620131143201800,2.326201904296875,-2.139101505279541,-1.291282057762146,0.511750340461731
1789620131153173800,2.336173828125,-1.8359358310699463,-1.0091620683670044,0.3598298132419586
1789620131163145700,2.346145751953125,-1.665619969367981,-0.970808207988739,0.23754064738750458
1789620131173118700,2.35611865234375,-1.540909767150879,-1.0905647277832031,0.3501604199409485
1789620131183090700,2.366090576171875,-1.1842392683029175,-0.9541570544242859,0.4931705594062805
1789620131193062700,2.376062744140625,-0.5626053214073181,-0.7118113040924072,0.47134941816329956
1789620131203036000,2.386035888671875,0.11291269958019257,-0.32304835319519043,0.34230542182922363
1789620131213007600,2.396007568359375,0.5637134313583374,0.1933225840330124,-0.0029228192288428545
1789620131222979800,2.405979736328125,0.8201206922531128,0.8610833287239075,-0.5240938663482666
1789620131232952800,2.415952880859375,1.0048292875289917,1.5920743942260742,-1.0337048768997192
1789620131242924800,2.4259248046875,0.9822371602058411,1.9480814933776855,-1.2904903888702393
1789620131252896800,2.435896728515625,0.8662509322166443,2.141019821166992,-1.4031668901443481
1789620131262869800,2.445869873046875,0.8054110407829285,2.653393030166626,-1.48940908908844
1789620131272841700,2.455841796875,0.7632601261138916,3.1305134296417236,-1.515057921409607
1789620131282813700,2.465813720703125,0.6910980343818665,3.033571720123291,-1.385565161705017
1789620131292787000,2.475786865234375,0.7210412621498108,2.78782320022583,-1.1510424613952637
1789620131302758700,2.485758544921875,0.8907371163368225,2.502885103225708,-0.9712380766868591
1789620131312731000,2.49573095703125,1.1350927352905273,2.9108641147613525,-0.8158178329467773
1789620131322704000,2.505703857421875,1.385197639465332,3.136425733566284,-1.1326555013656616
1789620131332675600,2.515675537109375,1.9070284366607666,0.9817237257957458,-0.8985185623168945
1789620131342647800,2.525647705078125,2.1815783977508545,1.2616243362426758,-0.536765456199646
1789620131352620800,2.535620849609375,2.0676887035369873,1.3086174726486206,-0.43179428577423096
1789620131362592800,2.5455927734375,2.0160088539123535,0.9418908357620239,-0.3268910348415375
1789620131372564700,2.555564697265625,2.1796212196350098,1.0755962133407593,-0.4415696859359741
1789620131382536700,2.56553662109375,2.7069151401519775,1.257784366607666,-0.8295941352844238
1789620131392509700,2.575509765625,3.448967218399048,1.105141043663025,-0.8653401136398315
1789620131402482000,2.58548193359375,3.8218789100646973,0.5696373581886292,-1.059625506401062
1789620131412453600,2.59545361328125,4.18133020401001,0.0049276468344032764,-0.6985479593276978
1789620131422426600,2.605426513671875,4.371760368347168,0.10795070230960846,-0.5171515345573425
1789620131432398800,2.61539892578125,4.717833518981934,1.8361477851867676,-0.7666689157485962
1789620131442370600,2.62537060546875,5.5180816650390625,4.1334710121154785,-1.3613346815109253
1789620131452343800,2.63534375,5.886723518371582,5.0131754875183105,-1.8481844663619995
1789620131462315800,2.645315673828125,5.68422794342041,4.886855602264404,-1.807026982307434
1789620131472288300,2.655288330078125,5.121555805206299,3.8879737854003906,-1.521547555923462
1789620131482261000,2.665260986328125,4.398535251617432,2.6617038249969482,-1.6493598222732544
1789620131492233000,2.67523291015625,3.620135545730591,1.9037449359893799,-1.7478879690170288
1789620131502205000,2.685204833984375,3.0671439170837402,1.4112786054611206,-1.7337660789489746
1789620131512178000,2.695177978515625,2.454908609390259,0.6696329712867737,-1.733811378479004
1789620131522150100,2.705150146484375,1.6169723272323608,-0.03682991862297058,-1.5693073272705078
1789620131532121900,2.715121826171875,0.9453548192977905,-0.5332412719726562,-0.9737680554389954
1789620131542094800,2.7250947265625,0.5533401370048523,-0.5711106061935425,-0.18254823982715607
1789620131552067000,2.735067138671875,0.2978191673755646,-0.305258184671402,0.4225078523159027
1789620131562038800,2.745038818359375,0.045586924999952316,-0.10612190514802933,0.841247022151947
1789620131572012000,2.755011962890625,-0.1753217577934265,-0.054009705781936646,1.0663565397262573
1789620131581984000,2.76498388671875,-0.3037569522857666,0.5005033016204834,1.010108232498169
1789620131591956000,2.7749560546875,-0.4751074016094208,1.1264066696166992,0.8042658567428589
1789620131601929000,2.784928955078125,-0.49629658460617065,0.8562683463096619,0.6986917853355408
1789620131611901000,2.79490087890625,-0.5056456327438354,0.0005419532535597682,0.6999008059501648
1789620131621873000,2.804872802734375,-0.548048734664917,-0.36195501685142517,0.3892265856266022
1789620131631846000,2.814845947265625,-0.7142259478569031,-0.4046928882598877,0.14008040726184845
1789620131641818000,2.824818115234375,-0.879787266254425,-0.5329544544219971,0.07458102703094482
1789620131651789800,2.834789794921875,-1.0816268920898438,-0.7087097764015198,0.04659147188067436
1789620131661763000,2.84476318359375,-1.575102686882019,-0.8971121907234192,0.046015962958335876
1789620131671735000,2.854735107421875,-2.595028877258301,-0.4466307461261749,0.05072655901312828
1789620131681707000,2.86470703125,-3.380831241607666,-0.32851555943489075,-0.026851320639252663
1789620131691680000,2.874679931640625,-4.037867069244385,-0.531019389629364,-0.196636363863945
1789620131701652000,2.88465185546875,-4.596690654754639,-0.4747265577316284,-0.35356950759887695
1789620131711624000,2.8946240234375,-4.98034143447876,-0.6583158373832703,-0.5110198855400085
1789620131721596000,2.904595947265625,-4.63671350479126,-1.3271636962890625,-0.6406676173210144
1789620131731569200,2.914569091796875,-2.8301022052764893,-2.183227062225342,-0.8185902237892151
1789620131741540900,2.924540771484375,0.6299760937690735,-1.4215141534805298,-1.7484389543533325
1789620131751513000,2.93451318359375,1.4787976741790771,-1.9732377529144287,-1.6977659463882446
1789620131761486000,2.944486083984375,1.1002482175827026,-1.1799111366271973,-1.6941736936569214
1789620131771457800,2.954457763671875,0.35031139850616455,-0.34530067443847656,-1.1197303533554077
1789620131781430000,2.964429931640625,-0.10288883000612259,-0.12300288677215576,0.03183063492178917
1789620131791403000,2.974403076171875,-0.23265375196933746,0.05576259642839432,0.8005360960960388
1789620131801375000,2.984375,-0.42517605423927307,0.19393165409564972,1.0235153436660767
1789620131811347000,2.994346923828125,-0.7198646664619446,-0.008649148046970367,0.8133925199508667
1789620131821320000,3.00431982421875,-1.1034376621246338,-0.747913658618927,0.13332369923591614
1789620131831292000,3.0142919921875,-1.1929491758346558,-1.067181944847107,-0.5515121817588806
1789620131841264000,3.02426416015625,-1.1576135158538818,-0.8492109775543213,-0.8271927237510681
1789620131851237000,3.034237060546875,-1.0885084867477417,-0.6484916806221008,-0.8368091583251953
1789620131861208800,3.044208740234375,-0.9116019010543823,-0.5098358392715454,-0.7658188343048096
1789620131871181000,3.05418115234375,-0.6879821419715881,-0.44076007604599,-0.6866723895072937
1789620131881154000,3.064154052734375,-0.43816375732421875,-0.32660529017448425,-0.7724440097808838
1789620131891126000,3.0741259765625,-0.5653270483016968,0.7412354946136475,-1.5780489444732666
1789620131901098000,3.084097900390625,-0.8801891207695007,1.2207640409469604,-1.509148359298706
1789620131911071000,3.094071044921875,-1.0601232051849365,0.9648216962814331,-0.958096444606781
1789620131921043000,3.10404296875,-1.4116071462631226,0.6941180229187012,-0.6258878707885742
1789620131931015000,3.114014892578125,-1.7716073989868164,0.4308784306049347,-0.22820493578910828
1789620131940988200,3.12398828125,-2.0798637866973877,0.33229005336761475,0.18573097884655
1789620131950959900,3.1339599609375,-2.2564563751220703,0.023577231913805008,0.4732716977596283
1789620131960932000,3.14393212890625,-2.02908992767334,-0.5457285642623901,0.6303971409797668
1789620131970905000,3.153905029296875,-1.6234978437423706,-0.8236190676689148,0.8176500797271729
1789620131980876800,3.163876708984375,-1.3185968399047852,-0.8231945633888245,0.9797865152359009
1789620131990849000,3.17384912109375,-0.8238992094993591,-1.0318742990493774,0.9118306636810303
1789620132000822000,3.183822021484375,-0.2200002670288086,-1.013903260231018,0.7569571733474731
1789620132010794000,3.1937939453125,0.15133386850357056,-0.654440701007843,0.5449501276016235
1789620132020766000,3.203765869140625,0.3159180283546448,-0.42447298765182495,0.2647072970867157
1789620132030739000,3.213739013671875,0.33162668347358704,-0.4706506133079529,0.10967669636011124
1789620132040711000,3.2237109375,0.17859184741973877,-0.45881444215774536,0.197628915309906
1789620132050683100,3.23368310546875,-0.09353367984294891,-0.3993995785713196,0.17078691720962524
1789620132060656000,3.24365625,-0.40892571210861206,-0.37150245904922485,0.2753836512565613
1789620132070627800,3.2536279296875,-0.5839033722877502,0.009557019919157028,0.3848848342895508
1789620132080600000,3.26360009765625,-0.4833730459213257,0.4198492169380188,0.5218772888183594
1789620132090573000,3.273572998046875,-0.24529364705085754,0.581077516078949,0.42186230421066284
1789620132100545000,3.283544921875,-0.03647864982485771,0.521145761013031,0.34965094923973083
1789620132110517000,3.29351708984375,0.182480588555336,0.5604444146156311,0.42492517828941345
1789620132120490000,3.303489990234375,0.4156281054019928,0.6773617267608643,0.5673744678497314
1789620132130462000,3.3134619140625,0.5459522604942322,0.6812400817871094,0.618962287902832
1789620132140434000,3.323433837890625,0.6271102428436279,0.687171459197998,0.5995566248893738
1789620132150406100,3.33340625,0.672236979007721,0.8063769340515137,0.5596787333488464
1789620132160379000,3.34337890625,0.6973087787628174,0.8900603652000427,0.5497861504554749
1789620132170351000,3.35335107421875,0.629043698310852,0.8392624258995056,0.5530266761779785
1789620132180323000,3.363322998046875,0.6239597201347351,0.737764298915863,0.5065041780471802
1789620132190295800,3.3732958984375,0.7468150854110718,0.8357404470443726,0.34896305203437805
1789620132200268000,3.38326806640625,0.808219313621521,1.2949018478393555,0.17470869421958923
1789620132210240000,3.393239990234375,0.33819589018821716,2.241830825805664,-0.13086800277233124
1789620132220213000,3.403212890625,0.13544224202632904,3.335833787918091,-0.18690809607505798
1789620132230185000,3.41318505859375,1.1796125173568726,3.8729121685028076,-0.10458926111459732
1789620132240157200,3.4231572265625,2.8385140895843506,3.4925389289855957,-0.08896848559379578
1789620132250130000,3.4331298828125,3.179447889328003,3.638951301574707,-0.27954164147377014
1789620132260102100,3.44310205078125,3.455162763595581,3.9563276767730713,-0.23261326551437378
1789620132270074000,3.45307421875,3.567934989929199,3.3426778316497803,-0.2224612981081009
1789620132280046800,3.463046875,3.2703375816345215,2.312300205230713,-0.2825150489807129
1789620132290019000,3.47301904296875,2.7702603340148926,1.7451300621032715,-0.33353960514068604
1789620132299991000,3.482990966796875,2.3456032276153564,1.717149257659912,-0.3509729504585266
1789620132309964000,3.492964111328125,2.011788845062256,1.5520684719085693,-0.33722808957099915
1789620132319936000,3.50293603515625,1.8117040395736694,1.117033839225769,-0.37248462438583374
1789620132329908200,3.512908203125,1.8539263010025024,0.8645358681678772,-0.4470214247703552
1789620132339881000,3.522880859375,2.0350520610809326,0.7792909741401672,-0.5284169912338257
1789620132349853000,3.53285302734375,2.1222240924835205,0.35165897011756897,-0.6598826050758362
1789620132359825000,3.542824951171875,2.0232136249542236,-0.0041060615330934525,-0.7990284562110901
1789620132369798000,3.5527978515625,2.0043599605560303,-0.07044380903244019,-0.9013127684593201
1789620132379770000,3.56277001953125,2.045318841934204,0.08640120178461075,-1.0231531858444214
1789620132389741800,3.572741943359375,1.9676706790924072,-0.11879509687423706,-1.0334033966064453
1789620132399715000,3.582715087890625,1.8331754207611084,-0.4123167097568512,-1.006957769393921
1789620132409687000,3.59268701171875,1.734270453453064,-0.5348764657974243,-1.0218173265457153
1789620132419659000,3.602658935546875,1.6556148529052734,-0.5012516379356384,-0.917150616645813
1789620132429632000,3.612632080078125,1.6105597019195557,-0.587205171585083,-0.8072105050086975
1789620132439604000,3.62260400390625,1.5328702926635742,-0.5558919906616211,-0.7347437739372253
1789620132449576000,3.632575927734375,1.4407954216003418,-0.5059654712677002,-0.6331210136413574
1789620132459549000,3.642548828125,1.3371102809906006,-0.4941559135913849,-0.5384669303894043
1789620132469521200,3.652521240234375,1.220218539237976,-0.5200048089027405,-0.4591617286205292
1789620132479492600,3.66249267578125,1.0946369171142578,-0.4460349977016449,-0.4182957708835602
1789620132489465600,3.672465576171875,0.9540106058120728,-0.28261783719062805,-0.31878066062927246
1789620132499437800,3.682437744140625,0.7669858336448669,-0.09483197331428528,-0.19733011722564697
1789620132509409800,3.692409912109375,0.5296105742454529,0.09415686130523682,-0.13882286846637726
1789620132519382800,3.7023828125,0.25391989946365356,0.3113062083721161,-0.12158794701099396
1789620132529354800,3.712354736328125,0.021831795573234558,0.3522893488407135,-0.08084877580404282
1789620132539326700,3.72232666015625,-0.11020959168672562,0.3372747004032135,0.008711200207471848
1789620132549299700,3.7322998046875,-0.23776915669441223,0.27240729331970215,0.14904408156871796
1789620132559272000,3.74227197265625,-0.35790541768074036,0.19544540345668793,0.36198243498802185
1789620132569243600,3.75224365234375,-0.41723504662513733,0.23607484996318817,0.6187958717346191
1789620132579216600,3.762216552734375,-0.4926219582557678,0.17143885791301727,0.7714184522628784
1789620132589188900,3.77218896484375,-0.5098233222961426,0.070298932492733,0.7608073353767395
1789620132599160600,3.78216064453125,-0.5456188321113586,-0.006898652296513319,0.6602572798728943
1789620132609133800,3.7921337890625,-0.5578851103782654,-0.0874270498752594,0.592658281326294
1789620132619105800,3.802105712890625,-0.5750465393066406,-0.11984730511903763,0.5376245975494385
1789620132629077800,3.812077880859375,-0.6445614099502563,-0.10018865019083023,0.4941261112689972
1789620132639050800,3.82205078125,-0.7599931955337524,-0.1267414391040802,0.4877776503562927
1789620132649022700,3.832022705078125,-0.8924806714057922,-0.2134092152118683,0.4752325713634491
1789620132658994700,3.84199462890625,-1.0391199588775635,-0.3142423629760742,0.4063373804092407
1789620132668967700,3.8519677734375,-1.2171567678451538,-0.43507689237594604,0.2889367341995239
1789620132678940000,3.86193994140625,-1.5115729570388794,-0.7906014323234558,0.132695734500885
1789620132688911600,3.87191162109375,-1.6601996421813965,-0.6831165552139282,-0.06127294525504112
1789620132698884600,3.881884521484375,-1.7154128551483154,-0.47592872381210327,-0.24187201261520386
1789620132708856800,3.89185693359375,-1.7538892030715942,-0.40476053953170776,-0.32627689838409424
1789620132718828800,3.901828857421875,-1.736369252204895,-0.47240588068962097,-0.3368382155895233
1789620132728801800,3.9118017578125,-1.7030057907104492,-0.6420599222183228,-0.2853121757507324
1789620132738773800,3.921773681640625,-1.6651214361190796,-0.9518275856971741,-0.26201990246772766
1789620132748745700,3.931745849609375,-1.6262073516845703,-1.377258539199829,-0.30167490243911743
1789620132758718700,3.94171875,-1.6341496706008911,-1.6772620677947998,-0.3644051253795624
1789620132768691000,3.95169091796875,-1.5267490148544312,-1.8833398818969727,-0.5349249243736267
1789620132778662700,3.96166259765625,-1.194417119026184,-1.8323278427124023,-0.6909507513046265
1789620132788635600,3.9716357421875,-1.1265043020248413,-1.4595962762832642,-0.6942391991615295
1789620132798608000,3.98160791015625,-1.3231929540634155,-1.1330679655075073,-0.6071155071258545
1789620132808579600,3.99157958984375,-1.4424090385437012,-0.8462502956390381,-0.48605912923812866
1789620132818552800,4.001552734375,-1.6291605234146118,-0.4437335133552551,-0.41270262002944946
1789620132828524800,4.01152490234375,-1.6918127536773682,-0.16895999014377594,-0.33907392621040344
1789620132838496800,4.021496826171875,-1.6332870721817017,-0.05859620124101639,-0.2610393166542053
1789620132848469800,4.0314697265625,-1.5895566940307617,-0.14805790781974792,-0.22892852127552032
1789620132858441700,4.041441650390625,-1.6066131591796875,-0.310939759016037,-0.22977541387081146
1789620132868413700,4.05141357421875,-1.6185520887374878,-0.4663376212120056,-0.1858726590871811
1789620132878386700,4.06138671875,-1.6809781789779663,-0.6522390246391296,-0.2221427857875824
1789620132888359000,4.07135888671875,-1.6818346977233887,-0.8270606398582458,-0.26167768239974976
1789620132898330600,4.08133056640625,-1.6033436059951782,-0.9469164609909058,-0.21587583422660828
1789620132908303600,4.0913037109375,-1.5700221061706543,-0.9721163511276245,-0.14109879732131958
1789620132918275800,4.10127587890625,-1.6220227479934692,-1.0525939464569092,-0.13336098194122314
1789620132928247800,4.111247802734375,-1.716695785522461,-1.0833419561386108,-0.13555915653705597
1789620132938220800,4.121220703125,-1.668813943862915,-1.1297718286514282,-0.1685948669910431
1789620132948192800,4.13119287109375,-1.5990891456604004,-1.128307819366455,-0.1822771281003952
1789620132958164700,4.141164794921875,-1.5397439002990723,-1.0691566467285156,-0.14912369847297668
1789620132968137700,4.1511376953125,-1.4455987215042114,-1.1117000579833984,-0.15174265205860138
1789620132978110000,4.16110986328125,-1.3294254541397095,-1.1200536489486694,-0.13072924315929413
1789620132988081700,4.17108154296875,-1.2393862009048462,-1.0650614500045776,-0.06754442304372787
1789620132998054700,4.1810546875,-1.1315721273422241,-1.0229382514953613,-0.009863017126917839
1789620133008027000,4.19102685546875,-1.0066839456558228,-0.9499082565307617,0.017480989918112755
1789620133017998600,4.20099853515625,-0.8395923972129822,-0.7858692407608032,0.032098814845085144
1789620133027971800,4.210971923828125,-0.6655937433242798,-0.5543401837348938,0.057377271354198456
1789620133037943800,4.22094384765625,-0.5308489799499512,-0.3677622973918915,0.0905485451221466
1789620133047915800,4.230915771484375,-0.4152262210845947,-0.28302183747291565,0.12116770446300507
1789620133057888800,4.240888671875,-0.28381574153900146,-0.19574713706970215,0.13432052731513977
1789620133067860700,4.25086083984375,-0.14112836122512817,-0.11133185029029846,0.11434521526098251
1789620133077832700,4.260832763671875,-0.03233210742473602,-0.06881927698850632,0.10184141248464584
1789620133087805700,4.2708056640625,0.0569988377392292,-0.0036581179592758417,0.13931287825107574
1789620133097778000,4.28077783203125,0.15970124304294586,0.06920170783996582,0.1989668905735016
1789620133107750700,4.290750732421875,0.2819933295249939,0.16102537512779236,0.21920718252658844
1789620133117722600,4.30072265625,0.4363597333431244,0.27428722381591797,0.19546696543693542
1789620133127694800,4.31069482421875,0.5955951809883118,0.3755669593811035,0.1594378650188446
1789620133137666800,4.320666748046875,0.7595188617706299,0.44158992171287537,0.1280927211046219
1789620133147639800,4.330639892578125,0.925147294998169,0.4805852472782135,0.11044368892908096
1789620133157611800,4.34061181640625,1.085942029953003,0.5717402100563049,0.11480541527271271
1789620133167583700,4.350583740234375,1.2491381168365479,0.748365581035614,0.1506049484014511
1789620133177556700,4.360556640625,1.3832045793533325,0.9725118279457092,0.19715434312820435
1789620133187529000,4.370529052734375,1.4442458152770996,1.150415301322937,0.2335861176252365
1789620133197501700,4.380501708984375,1.4962188005447388,1.2302477359771729,0.22559185326099396
1789620133207473700,4.3904736328125,1.5825179815292358,1.208838939666748,0.18131625652313232
1789620133217446000,4.40044580078125,1.7083417177200317,1.1571182012557983,0.12864293158054352
1789620133227418600,4.410418701171875,1.8688721656799316,1.1219402551651,0.09356936812400818
1789620133237390800,4.420390869140625,2.000878095626831,1.0778555870056152,0.07601860165596008
1789620133247362800,4.43036279296875,2.089564800262451,1.0070093870162964,0.05596073716878891
1789620133257335600,4.44033544921875,2.122047185897827,0.9058470726013184,0.038775891065597534
1789620133267307800,4.450307861328125,2.1438488960266113,0.8490186929702759,-0.0029385320376604795
1789620133277279700,4.46027978515625,2.1735498905181885,0.8261919021606445,-0.05977411940693855
1789620133287252700,4.470252685546875,2.2214694023132324,0.8086680769920349,-0.09800592809915543
1789620133297224700,4.480224609375,2.2854137420654297,0.7464331984519958,-0.12849219143390656
1789620133307197000,4.490197021484375,2.341768980026245,0.6645936965942383,-0.1322733461856842
1789620133317169700,4.500169677734375,2.403831720352173,0.6301404237747192,-0.09906026721000671
1789620133327142000,4.510141845703125,2.4144675731658936,0.617381751537323,-0.07070852071046829
1789620133337113900,4.52011376953125,2.392336130142212,0.5772343277931213,-0.056836649775505066
1789620133347086600,4.530086669921875,2.332223415374756,0.4987671971321106,-0.07747241854667664
1789620133357058800,4.540058837890625,2.220395803451538,0.33860254287719727,-0.12798114120960236
1789620133367030800,4.55003076171875,2.115159034729004,0.2605130672454834,-0.1559581756591797
1789620133377003800,4.560003662109375,2.0419256687164307,0.244195356965065,-0.17428657412528992
1789620133386975700,4.569975830078125,1.9526315927505493,0.17314621806144714,-0.196636363863945
1789620133396948000,4.579947998046875,1.8426917791366577,0.037693582475185394,-0.21063314378261566
1789620133406920700,4.589920654296875,1.7256686687469482,-0.09758701175451279,-0.2302188277244568
1789620133416892700,4.599892578125,1.5905215740203857,-0.19442035257816315,-0.27819114923477173
1789620133426865000,4.609864990234375,1.4956179857254028,-0.21475625038146973,-0.3378898799419403
1789620133436837600,4.619837646484375,1.3797073364257812,-0.23634648323059082,-0.3578556180000305
1789620133446809900,4.629809814453125,1.237829327583313,-0.3146900236606598,-0.326477974653244
1789620133456781800,4.63978173828125,1.1337497234344482,-0.369438499212265,-0.24996936321258545
1789620133466754600,4.649754638671875,1.0186947584152222,-0.33003783226013184,-0.16115187108516693
1789620133476727600,4.6597275390625,0.8773019909858704,-0.23827701807022095,-0.10591790825128555
1789620133486699300,4.66969921875,0.7476257681846619,-0.11835593730211258,-0.0794125348329544
1789620133496672500,4.679672607421875,0.6226534247398376,0.09017543494701385,-0.08487467467784882
1789620133506644500,4.68964453125,0.5121541023254395,0.33109351992607117,-0.1345420926809311
1789620133516616400,4.699616455078125,0.39306873083114624,0.438929945230484,-0.2174558937549591
1789620133526589400,4.70958935546875,0.245294451713562,0.36466318368911743,-0.26497307419776917
1789620133536561400,4.7195615234375,0.09796144813299179,0.19592183828353882,-0.2551923394203186
1789620133546533400,4.729533447265625,-0.030251380056142807,0.04286517575383186,-0.21397247910499573
1789620133556506400,4.73950634765625,-0.1604653149843216,-0.01569693721830845,-0.1684715747833252
1789620133566478600,4.749478515625,-0.3141299784183502,0.0199848935008049,-0.12371262162923813
1789620133576450300,4.7594501953125,-0.46960851550102234,0.05776902288198471,-0.08786753565073013
1789620133586423300,4.76942333984375,-0.6063967347145081,0.04999419301748276,-0.06436460465192795
1789620133596395500,4.7793955078125,-0.7322779297828674,0.002406965009868145,-0.03184501454234123
1789620133606367200,4.7893671875,-0.826823353767395,-0.0448356494307518,0.025920281186699867
1789620133616340500,4.799340576171875,-0.8845266103744507,-0.061878547072410583,0.09890900552272797
1789620133626312400,4.8093125,-0.9120639562606812,-0.08779855817556381,0.15224093198776245
1789620133636284400,4.819284423828125,-0.9318280816078186,-0.11822278052568436,0.184029221534729
1789620133646257400,4.82925732421875,-0.9448378682136536,-0.11338088661432266,0.21915791928768158
1789620133656229400,4.8392294921875,-0.9484520554542542,-0.08417346328496933,0.2550610601902008
1789620133666201300,4.849201416015625,-0.9526694416999817,-0.11448982357978821,0.27765053510665894
1789620133676174300,4.85917431640625,-0.9594343900680542,-0.19100138545036316,0.2703225612640381
1789620133686146600,4.869146484375,-1.0134235620498657,-0.17900224030017853,0.257660835981369
1789620133696118300,4.8791181640625,-1.1127283573150635,-0.1311095505952835,0.19398172199726105
1789620133706091500,4.889091552734375,-1.208479881286621,-0.048221323639154434,0.12747406959533691
1789620133716063500,4.8990634765625,-1.284037470817566,0.0476391576230526,0.09407110512256622
1789620133726035500,4.909035400390625,-1.3683561086654663,0.12945306301116943,0.06797292828559875
1789620133736008400,4.919008544921875,-1.4634501934051514,0.069451242685318,0.025911757722496986
1789620133745980400,4.92898046875,-1.558229684829712,-0.05589069426059723,-0.046426620334386826
1789620133755952400,4.938952392578125,-1.6020489931106567,-0.14276833832263947,-0.14067083597183228
1789620133765925400,4.94892529296875,-1.608351707458496,-0.1955929398536682,-0.22970616817474365
1789620133775897600,4.958897705078125,-1.5777336359024048,-0.31189239025115967,-0.3125872015953064
1789620133785869300,4.968869384765625,-1.5600323677062988,-0.489920437335968,-0.3631126880645752
1789620133795842300,4.97884228515625,-1.5639581680297852,-0.6373591423034668,-0.37889617681503296
1789620133805814500,4.988814453125,-1.5988985300064087,-0.6902897357940674,-0.373066246509552
1789620133815786200,4.9987861328125,-1.672326683998108,-0.6344307661056519,-0.3762095868587494
1789620133825759500,5.008759521484375,-1.700501561164856,-0.5453080534934998,-0.4144406020641327
1789620133835731500,5.0187314453125,-1.706970453262329,-0.5512064099311829,-0.46179133653640747
1789620133845703400,5.028703369140625,-1.6969361305236816,-0.6582793593406677,-0.4809895157814026
1789620133855676400,5.038676513671875,-1.701985239982605,-0.8117967247962952,-0.4762600064277649
1789620133865648400,5.0486484375,-1.6922460794448853,-0.9475226402282715,-0.47437769174575806
1789620133875620400,5.058620361328125,-1.6979202032089233,-1.0686277151107788,-0.47498196363449097
1789620133885593300,5.06859326171875,-1.7293022871017456,-1.0692194700241089,-0.4462917447090149
1789620133895565300,5.0785654296875,-1.7460250854492188,-1.0257495641708374,-0.4119345545768738
1789620133905537300,5.088537353515625,-1.7648807764053345,-0.9679304361343384,-0.3822360634803772
1789620133915510500,5.098510498046875,-1.7602543830871582,-0.8977620005607605,-0.3701828420162201
1789620133925482200,5.108482177734375,-1.7450631856918335,-0.8701441884040833,-0.37621358036994934
1789620133935455200,5.118455322265625,-1.7132320404052734,-0.8488804697990417,-0.36809200048446655
1789620133945427500,5.128427490234375,-1.6554523706436157,-0.8531234264373779,-0.3590947687625885
1789620133955399200,5.138399169921875,-1.6196764707565308,-0.8409343957901001,-0.3202541768550873
1789620133965372400,5.148372314453125,-1.5402610301971436,-0.9190403819084167,-0.29290005564689636
1789620133975344400,5.158344482421875,-1.473039984703064,-0.9579185247421265,-0.21486197412014008
1789620133985316400,5.16831640625,-1.4053053855895996,-0.9190323948860168,-0.1206691563129425
1789620133995289300,5.178289306640625,-1.3767086267471313,-0.7696111798286438,-0.023428093641996384
1789620134005261300,5.18826123046875,-1.238592505455017,-0.7069646120071411,0.0008522115531377494
1789620134015233300,5.1982333984375,-1.0860453844070435,-0.5671635866165161,0.039569780230522156
1789620134025206300,5.208206298828125,-0.9361450672149658,-0.3761131763458252,0.09989038109779358
1789620134035178500,5.218178466796875,-0.7983720302581787,-0.22377397119998932,0.16354338824748993
1789620134045150200,5.228150146484375,-0.6864870190620422,-0.09572040289640427,0.20864588022232056
1789620134055123500,5.23812353515625,-0.5447285771369934,0.021435517817735672,0.25478115677833557
1789620134065095400,5.248095458984375,-0.38381505012512207,0.18794886767864227,0.297380268573761
1789620134075067400,5.2580673828125,-0.23507696390151978,0.3655449450016022,0.29522231221199036
1789620134085040400,5.268040283203125,-0.09789300709962845,0.4456818699836731,0.2674596607685089
1789620134095012400,5.278012451171875,0.04508225619792938,0.46502920985221863,0.263717383146286
1789620186822574600,58.00557470703125,0.2699774205684662,-0.8930559158325195,-0.28297391533851624
1789620186832546800,58.015546875,0.23029924929141998,-0.9330651164054871,-0.31259626150131226
1789620186842518500,58.0255185546875,0.13680312037467957,-0.71938157081604,-0.26701492071151733
1789620186852490800,58.03549072265625,0.061161890625953674,-0.42844510078430176,-0.1419195830821991
1789620186862462500,58.04546240234375,0.034816037863492966,-0.08083786070346832,0.038539670407772064
1789620186872434700,58.0554345703125,0.027708593755960464,0.19841508567333221,0.252766489982605
1789620186882406700,58.06540673828125,-0.04302895814180374,0.35284432768821716,0.4785521924495697
1789620186892377600,58.075377685546876,-0.11703740805387497,0.38819193840026855,0.7196953296661377
1789620186902349800,58.08534985351562,-0.08488666266202927,0.33946409821510315,0.93330317735672
1789620186912321500,58.095321533203126,-0.02214338444173336,0.1728103905916214,1.073470950126648
1789620186922293800,58.105293701171874,0.034206438809633255,-0.10526490211486816,1.0989012718200684
1789620186932265500,58.11526538085938,0.05584808439016342,-0.39338672161102295,1.0279107093811035
1789620186942237700,58.12523779296875,0.04121321812272072,-0.549024760723114,0.9317833185195923
1789620186952209700,58.13520971679687,0.007801730185747147,-0.5698996782302856,0.8468383550643921
1789620186962181600,58.145181640625,-0.034860510379076004,-0.5100294351577759,0.7626616954803467
1789620186972153600,58.15515356445312,-0.07007096707820892,-0.4000706970691681,0.6623476147651672
1789620186982125600,58.16512548828125,-0.08451887965202332,-0.27208930253982544,0.5376767516136169
1789620186992096800,58.1750966796875,-0.07604842633008957,-0.14475612342357635,0.3877975344657898
1789620187002068700,58.18506884765625,-0.06818225234746933,-0.0373002327978611,0.22370180487632751
1789620187012040700,58.19504077148437,-0.07372003048658371,0.04071493819355965,0.06992235779762268
1789620187022012700,58.2050126953125,-0.08686459064483643,0.09294351935386658,-0.050088733434677124
1789620187031984600,58.21498461914062,-0.09661868214607239,0.13693521916866302,-0.12972018122673035
1789620187041956600,58.22495654296875,-0.07948204129934311,0.15574751794338226,-0.17884698510169983
1789620187051928600,58.23492846679687,-0.03990267589688301,0.13521268963813782,-0.20562772452831268
1789620187061900500,58.24490063476563,-0.0022506373934447765,0.0646522268652916,-0.2174721360206604
1789620187071872800,58.254872802734376,0.015190936625003815,-0.031973645091056824,-0.23112110793590546
1789620187081844500,58.26484448242188,0.030064424499869347,-0.09330810606479645,-0.2613288164138794
1789620187091815700,58.27481567382812,0.05640788376331329,-0.07948204129934311,-0.29527851939201355
1789620187101787600,58.28478759765625,0.08485709875822067,-0.018075406551361084,-0.3154311776161194
1789620187111759600,58.29475952148437,0.10260200500488281,0.04451819881796837,-0.30674928426742554
1789620187121731800,58.30473193359375,0.11919616162776947,0.07891452312469482,-0.2674045264720917
1789620187131703600,58.31470361328125,0.13503265380859375,0.08234333992004395,-0.17962808907032013
1789620187141675800,58.32467578125,0.1449020653963089,0.0414624884724617,-0.036913011223077774
1789620187151647500,58.3346474609375,0.14861904084682465,-0.03469912335276604,0.13512027263641357
1789620187161619700,58.34461962890625,0.14619342982769012,-0.11652128398418427,0.30474337935447693
1789620187171591400,58.35459130859375,0.13320225477218628,-0.18123529851436615,0.4352846145629883
1789620187181563600,58.364563720703124,0.11216222494840622,-0.20010779798030853,0.49898025393486023
1789620187191535600,58.37453564453125,0.08910590410232544,-0.17667676508426666,0.49669018387794495
1789620187201507600,58.384507568359375,0.07076631486415863,-0.15032239258289337,0.4431942105293274
1789620187211478800,58.394478759765626,0.04586495831608772,-0.13032498955726624,0.35530245304107666
1789620187221450500,58.40445043945312,0.023490678519010544,-0.12614542245864868,0.23809485137462616
1789620187231422700,58.414422607421876,-0.0013643373968079686,-0.13614878058433533,0.09773001819849014
1789620187241394700,58.424394775390624,-0.026131203398108482,-0.14644509553909302,-0.06452999264001846
1789620187251366700,58.43436669921875,-0.029578665271401405,-0.138639897108078,-0.23474246263504028
1789620187261338600,58.444338623046875,-0.015931295230984688,-0.09703653305768967,-0.3863500952720642
1789620187271310600,58.454310546875,0.002837598090991378,-0.035525768995285034,-0.4948810935020447
1789620187281282600,58.464282470703125,0.01011042483150959,0.009701895527541637,-0.5561566948890686
1789620187291254500,58.47425463867187,0.009497631341218948,0.016383234411478043,-0.5790615081787109
1789620187301226500,58.4842265625,0.008638495579361916,-0.01065104641020298,-0.5646125078201294
1789620187311198700,58.49419873046875,0.01420663297176361,-0.053708769381046295,-0.5177416801452637
1789620187321170700,58.50417065429688,0.04572700709104538,-0.07280922681093216,-0.4488355815410614
1789620187331142700,58.514142578125,0.082170769572258,-0.040770065039396286,-0.3602071702480316
1789620187341114600,58.52411450195312,0.10985779017210007,0.0231093131005764,-0.24355299770832062
1789620187351085600,58.53408544921875,0.11206687986850739,0.07632219791412354,-0.10923141241073608
1789620187361057500,58.5440576171875,0.10156098008155823,0.09606954455375671,0.021894380450248718
1789620187371029500,58.55402954101562,0.09437444061040878,0.08122721314430237,0.13003017008304596
1789620187381001700,58.56400170898438,0.06789089739322662,0.03110438957810402,0.21495065093040466
1789620187390973400,58.573973388671874,0.024084031581878662,-0.03148788586258888,0.2736414074897766
1789620187400945700,58.58394555664062,-0.020954549312591553,-0.03804592043161392,0.29467877745628357
1789620187410917600,58.593917724609376,-0.04915449768304825,0.025531193241477013,0.26134610176086426
1789620187420889600,58.6038896484375,-0.07393094897270203,0.09896758943796158,0.1873837411403656
1789620187430861800,58.61386181640625,-0.09256162494421005,0.13578340411186218,0.08788511157035828
1789620187440833500,58.62383349609375,-0.09642613679170609,0.1323641687631607,-0.02177267335355282
1789620187450805800,58.6338056640625,-0.09780991822481155,0.10494612157344818,-0.11642035096883774
1789620187460777500,58.643777587890625,-0.10082301497459412,0.08992243558168411,-0.1853991597890854
1789620187470749700,58.65374975585937,-0.08510477095842361,0.10303104668855667,-0.217504620552063
1789620187480721700,58.6637216796875,-0.06489777565002441,0.1410985291004181,-0.2084280401468277
1789620187490693600,58.67369360351562,-0.047682035714387894,0.16724172234535217,-0.15146994590759277
1789620187500665600,58.68366552734375,-0.04050135239958763,0.15591104328632355,-0.07245849072933197
1789620187510637600,58.693637451171874,-0.03283810615539551,0.1139976754784584,-0.001996039180085063
1789620187520609500,58.70360961914062,-0.017896974459290504,0.04470089077949524,0.033667948096990585
1789620187530581800,58.713581787109376,0.0018722022650763392,-0.025621207430958748,0.031080154702067375
1789620187540552200,58.72355224609375,0.03369298204779625,-0.05354205518960953,-0.00809148233383894
1789620187550524200,58.73352416992188,0.07687614113092422,-0.027636421844363213,-0.055075503885746
1789620187560496000,58.74349609375,0.11256755888462067,0.02081260457634926,-0.08169672638177872
1789620187570468000,58.75346801757812,0.1232747957110405,0.04127660021185875,-0.08273749053478241
1789620187580440000,58.76344018554688,0.13183899223804474,0.00888004433363676,-0.06236324459314346
1789620187590412000,58.773412109375,0.14208203554153442,-0.04725752770900726,-0.03741102293133736
1789620187600384300,58.78338427734375,0.16150394082069397,-0.06615611910820007,-0.0006905576447024941
1789620187610356000,58.79335595703125,0.19698522984981537,-0.023127157241106033,0.047868721187114716
1789620187620328200,58.803328125,0.22841480374336243,0.03513108938932419,0.11571408063173294
1789620187630300200,58.813300048828125,0.24225471913814545,0.0516354963183403,0.19615405797958374
1789620187640272100,58.82327221679687,0.23733319342136383,0.012595952488481998,0.2702096402645111
1789620187650244400,58.83324438476563,0.20624583959579468,-0.057674482464790344,0.32100093364715576
1789620187660216000,58.843216064453124,0.15303535759449005,-0.12172669917345047,0.3299883008003235
1789620187670188300,58.85318823242188,0.0998658761382103,-0.16220834851264954,0.2861417531967163
1789620187680160000,58.863159912109374,0.0596952885389328,-0.18668119609355927,0.1880846917629242
1789620187690132200,58.87313232421875,0.02863164432346821,-0.1782834529876709,0.061586931347846985
1789620187700104200,58.88310424804688,0.011872904375195503,-0.13479696214199066,-0.05258411541581154
1789620187710076200,58.893076171875,-0.013116600923240185,-0.06799343228340149,-0.12765783071517944
1789620187720048000,58.90304809570313,-0.034571293741464615,0.023487482219934464,-0.16439692676067352
1789620187730020000,58.91302001953125,-0.03936737775802612,0.11162000149488449,-0.15699493885040283
1789620187739992000,58.92299194335938,-0.04176821932196617,0.15452858805656433,-0.11257661134004593
1789620187749964300,58.93296435546875,-0.044554952532052994,0.1393512338399887,-0.04089896380901337
1789620187759936000,58.94293603515625,-0.04284440353512764,0.09918863326311111,0.048219192773103714
1789620187769908200,58.952908203125,-0.03629728779196739,0.05548696219921112,0.14724165201187134
1789620187779880000,58.9628798828125,-0.03237924352288246,0.028984779492020607,0.2388959378004074
1789620187789852200,58.97285205078125,-0.024952488020062447,0.010907242074608803,0.3025659918785095
1789620187799824100,58.98282421875,-0.021747905761003494,-0.020895959809422493,0.3193739950656891
1789620187809796000,58.99279614257812,-0.03308152034878731,-0.06300266832113266,0.28384503722190857
1789620187819768000,59.00276806640625,-0.049796584993600845,-0.05879300832748413,0.21619382500648499
1789620187829740000,59.01273999023437,-0.06107773631811142,0.013982128351926804,0.13413330912590027
1789620187839712300,59.02271215820313,-0.06969146430492401,0.10848440229892731,0.06951143592596054
1789620187849684200,59.032684326171875,-0.08093053847551346,0.14916445314884186,0.03359497711062431
1789620187859656200,59.04265625,-0.09541627019643784,0.11120960861444473,0.021083181723952293
1789620187869628200,59.052628173828126,-0.11274226009845734,0.023333018645644188,0.01914253458380699
1789620187879600000,59.06260009765625,-0.1124943196773529,-0.06117973476648331,0.016814399510622025
1789620187889572000,59.072572021484376,-0.1040148138999939,-0.10485797375440598,0.015321698039770126
1789620187899544300,59.08254443359375,-0.09430146962404251,-0.1052614375948906,0.006274407263845205
1789620187909516000,59.09251611328125,-0.08921562880277634,-0.084813691675663,0.0025989788118749857
1789620187919488300,59.10248828125,-0.08517667651176453,-0.04996756091713905,-0.0019361181184649467
1789620187929460000,59.1124599609375,-0.08676418662071228,-0.028779717162251472,-0.005398493725806475
1789620187939432200,59.12243212890625,-0.08347439020872116,-0.02082804962992668,-0.014928082935512066
1789620187949404200,59.13240405273437,-0.07856671512126923,-0.02207334339618683,-0.03211106359958649
1789620187959376100,59.14237622070313,-0.07077883183956146,-0.023143667727708817,-0.059313125908374786
1789620187969348000,59.15234814453125,-0.06986244022846222,-0.02291836589574814,-0.10078546404838562
1789620187979320000,59.16232006835938,-0.06778650730848312,-0.02532799355685711,-0.15214025974273682
1789620187989292000,59.1722919921875,-0.04201935604214668,-0.015147794038057327,-0.20331424474716187
1789620187999264300,59.18226416015625,0.0010183927370235324,0.013644172810018063,-0.22736577689647675
1789620188009236200,59.192236328125,0.04478584602475166,0.031491879373788834,-0.20687994360923767
1789620188019208200,59.202208251953124,0.0848831981420517,0.04820800945162773,-0.14586718380451202
1789620188029180200,59.21218017578125,0.11629598587751389,0.06617715209722519,-0.05675569176673889
1789620188039152000,59.222152099609374,0.12806342542171478,0.06986883282661438,0.04565270617604256
1789620188049124400,59.23212426757812,0.12259303033351898,0.06009582802653313,0.15003983676433563
1789620188059096000,59.242095947265625,0.10550911724567413,0.050875965505838394,0.23623943328857422
1789620188069068300,59.252068359375,0.0771230161190033,0.05118329077959061,0.2917032241821289
1789620188079040000,59.2620400390625,0.03979002311825752,0.0510711744427681,0.3046208918094635
1789620188089012200,59.27201220703125,0.00782756321132183,0.03663337975740433,0.2659810781478882
1789620188098984200,59.28198413085938,-0.01381115335971117,0.028430042788386345,0.1762799620628357
1789620188108956200,59.2919560546875,-0.020066652446985245,0.048531051725149155,0.05383872985839844
1789620188118928100,59.30192822265625,-0.025553030893206596,0.07629343867301941,-0.07606706768274307
1789620188128900000,59.311900146484376,-0.03368712216615677,0.09178823977708817,-0.19836688041687012
1789620188138872000,59.3218720703125,-0.04477306455373764,0.11407224088907242,-0.30100297927856445
1789620188148844300,59.33184423828125,-0.03148788586258888,0.14533136785030365,-0.368582546710968
1789620188158816000,59.34181591796875,-0.004939098376780748,0.17778438329696655,-0.38132497668266296
1789620188168788200,59.35178833007812,0.015046593733131886,0.2190553843975067,-0.3325481116771698
1789620188178760000,59.361760009765625,0.024049410596489906,0.27558469772338867,-0.2364729940891266
1789620188188732200,59.37173217773437,0.019869312644004822,0.31529590487480164,-0.115784652531147
1789620188198704000,59.3817041015625,0.004538558889180422,0.3008842170238495,0.006572148762643337
1789620188208676000,59.39167602539062,-0.026216423138976097,0.28596997261047363,0.17561151087284088
1789620188218648300,59.4016484375,-0.02725745365023613,0.15835794806480408,0.30329781770706177
1789620188228621300,59.41162133789062,0.032348085194826126,-0.032162729650735855,0.30019205808639526
1789620188238593000,59.421593017578125,0.09475766867399216,-0.20819874107837677,0.22911867499351501
1789620188248565200,59.43156518554687,0.12947170436382294,-0.2987070679664612,0.14169694483280182
1789620188258537000,59.441536865234376,0.12634728848934174,-0.2569116950035095,0.03700835257768631
1789620188268509200,59.45150927734375,0.07199003547430038,-0.16283871233463287,-0.03171877935528755
1789620188278481200,59.46148120117188,0.01127822045236826,0.01882881484925747,-0.05625927820801735
