time,seconds_elapsed,z,y,x
1789620074430102800,0.060102783203125,-0.6318769305795431,0.7583709746390581,1.3877385527461767
1789620074440075800,0.07007568359375,-0.5836912840813399,0.6700146457940339,1.3258325700618325
1789620074450048300,0.08004833984375,-0.5964800385057926,0.5908996080249548,1.1945599134236573
1789620074460021200,0.090021240234375,-0.5869891565829515,0.5107277546793222,0.9906991365671157
1789620074469993200,0.0999931640625,-0.5980804594397544,0.4117494940549135,0.7734803540308028
1789620074479966200,0.10996630859375,-0.6638859337806702,0.3436532784283161,0.6209601805720478
1789620074489938000,0.11993798828125,-0.7165484334319829,0.3850274913460016,0.5609937511155382
1789620074499911200,0.1299111328125,-0.6678712040245532,0.4696329432249069,0.5338813243169337
1789620074509883100,0.139883056640625,-0.56438803319633,0.39431262156367297,0.46118930533267555
1789620074519856000,0.149856201171875,-0.46898938462436196,0.2793663919568062,0.3451573993809521
1789620074529828000,0.159828125,-0.22467034065127373,0.11490297498703002,0.25148780309129504
1789620074539801000,0.169801025390625,0.12074936292767524,-0.0767401253312826,0.2858457623050548
1789620074549773300,0.179773193359375,0.30637130326032636,-0.30809388926923276,0.2767650503519922
1789620074559746000,0.18974609375,-0.2770908482402563,-0.48034839850664135,0.15296384383933617
1789620074569718000,0.199718017578125,-1.4560522105157374,-0.6611971330881118,-0.24337177145192398
1789620074579691300,0.209691162109375,-1.2063105569720267,-0.6050964756816625,0.06845620804540813
1789620074589663000,0.2196630859375,-1.5612199734300374,-0.5689449658483267,0.31573399222623555
1789620074599636000,0.229635986328125,-1.5344740053236483,0.1308300274372101,0.5983673500897363
1789620074609608200,0.239608154296875,-1.4258394430816173,0.4597212055414915,1.0154093610621988
1789620074619581200,0.249581298828125,-1.2137836693316697,0.26013971343934533,1.0955843562129883
1789620074629553200,0.25955322265625,-0.7182423778682947,0.0011129296779632568,0.848781021143496
1789620074639526100,0.269526123046875,-0.10738017826676369,-0.3107037795066833,0.6323918943643569
1789620074649498000,0.279498046875,0.2830471262961626,-0.6869184343218803,0.5123102015651763
1789620074659471000,0.28947119140625,0.09234627526402472,-1.1409931584089994,0.6089642570257187
1789620074669443000,0.299443115234375,0.5204968690216542,-1.1552487705156207,0.21961532228402791
1789620074679416000,0.309416015625,0.8451052552402019,-1.224424598072469,0.1705180408336222
1789620074689388000,0.319387939453125,0.8849059352308511,-1.3874854547679423,0.5196428094755858
1789620074699361000,0.329361083984375,1.3119225565224886,-1.0398799315825105,0.532061926870048
1789620074709333200,0.339333251953125,1.7584183697879314,-0.5638073106989264,0.6045372343637049
1789620074719306200,0.34930615234375,2.108891265103221,-0.20801263583898544,0.9433500870235264
1789620074729278200,0.3592783203125,2.270749468010664,0.11821049209982155,1.6516370341971516
1789620074739251200,0.369251220703125,2.239855148053169,0.6597896043777466,2.604092949348688
1789620074749223200,0.37922314453125,1.967480222418904,1.0051388730689883,3.2533401169240475
1789620074759196200,0.389196044921875,1.1622089649170637,-1.0560299791336059,2.1851533976592123
1789620074769168100,0.399168212890625,0.9901859263479709,-0.8160112627029419,1.4790205597795545
1789620074779141000,0.40914111328125,-0.23883798221349714,1.234481004923582,1.4808089045010506
1789620074789113000,0.419113037109375,-5.07555846644938,3.7312089735746383,1.8043677816666661
1789620074799086000,0.429086181640625,-5.351395515236258,3.6291438528507944,1.5262489055529236
1789620074809058300,0.439058349609375,-3.0263258434951306,0.8493190735429524,2.804301048916578
1789620074819031300,0.44903125,-2.9064199456542728,0.40123979047834873,1.3574663102097808
1789620074829003000,0.4590029296875,-4.694581127277016,-0.6360334657371044,0.8900921056970953
1789620074838975200,0.468975341796875,-4.225508156022429,-1.3413696002811193,0.29170908311419186
1789620074848948200,0.4789482421875,-3.3775504339605567,-2.695515680027008,0.10601225091442465
1789620074858920200,0.488920166015625,-2.195076679649949,-2.2221745299339295,-0.5224450804799795
1789620074868893200,0.49889306640625,0.7778612725287676,-1.5266870047092438,-0.7787785335041583
1789620074878865200,0.508865234375,2.2395167098790405,-2.954242019537091,-1.674534510181844
1789620074888838100,0.518838134765625,1.9294108962655065,-2.9782229068443176,-3.517168163487315
1789620074898810000,0.52881005859375,1.5154682760804892,-1.6000731434375046,-6.603833032611012
1789620074908783000,0.538783203125,1.4143752152591942,-0.2543938632637262,-7.79057788836956
1789620074918755000,0.548755126953125,1.2825748814851046,0.08630085761994123,-5.359689296329021
1789620074928728000,0.55872802734375,0.663757338964939,-0.5014055073216557,-1.4274372336670755
1789620074938700300,0.5687001953125,0.30762802532315253,-0.3738151924580335,0.7661040531091392
1789620074948673300,0.57867333984375,0.4350514591872692,0.6986147173345089,1.1953742985464633
1789620074958645000,0.58864501953125,1.9641782582640648,1.4682710560977459,1.3535741250768303
1789620074968618200,0.5986181640625,2.8558564641088244,1.1326315727770329,1.4145527637831865
1789620074978590200,0.608590087890625,1.8352204544395208,0.5297875521972775,1.2274372238919138
1789620074988563000,0.61856298828125,2.1402631394445897,0.8996955080837011,1.366777013260126
1789620074998535200,0.62853515625,1.2139444128513335,1.415379131604731,1.3887256640873848
1789620075008508200,0.638508056640625,-0.2052782424390316,1.6963284088388084,1.1475927028045056
1789620075018480000,0.648480224609375,-0.9873591784894465,1.641921403607726,0.8934574904769659
1789620075028453000,0.658453125,-0.8893588229864835,1.4240639578416943,0.9458613391920924
1789620075038425000,0.668425048828125,0.001064998883008957,1.3100076628118753,1.2656386519923806
1789620075048398300,0.6783984375,1.060862221595645,1.2469883120581506,1.7023939924880862
1789620075058370000,0.6883701171875,2.002432293334603,1.12384357842654,2.0241662784978747
1789620075068343000,0.698343017578125,2.6572517080843445,0.8840943265870213,2.156023603156209
1789620075078315000,0.70831494140625,2.710905556860566,0.5952025659158825,1.9195000353649256
1789620075088288000,0.7182880859375,2.3224708874195814,0.4844257309481501,1.36855074493438
1789620075098260200,0.72826025390625,1.819828239518404,0.49609278786629435,0.860068138833344
1789620075108233200,0.738233154296875,1.558531172737479,0.4566135949149728,0.6263114054068922
1789620075118205200,0.748205078125,1.3422569045096635,0.3967003934830427,0.44729660825431344
1789620075128178200,0.75817822265625,0.9696177700936793,0.45124476135820146,0.37595395805239673
1789620075138150100,0.768150146484375,0.5131447526931763,0.5907099306717515,0.535346355368197
1789620075148123100,0.778123046875,0.5270329927921295,0.5679118234083056,0.8734548591509461
1789620075158095000,0.78809521484375,0.6620575493097305,0.4095265573084354,0.8357926524937153
1789620075168068000,0.798068115234375,0.6358183616816997,-0.09742898535579442,0.4241986412614584
1789620075178040000,0.8080400390625,0.6783622029006481,-0.5156292629852891,0.18510931463539598
1789620075188013000,0.818012939453125,0.5727642318755388,0.2790244466513395,0.7203355507552623
1789620075197985300,0.8279853515625,-0.04238835839629173,0.3789402803868055,1.139796642100811
1789620075207958300,0.837958251953125,-1.1069652166008948,0.49934419087767595,0.9935407897338271
1789620075217930000,0.847929931640625,-1.8061048345923423,0.6961077029496431,0.7608285969242453
1789620075227903200,0.8579033203125,-1.9315408940315246,0.5598267166301608,0.6588754121422767
1789620075237875200,0.867875244140625,-1.3394728267490863,0.033466800794005394,0.44302696811109776
1789620075247848000,0.877847900390625,-0.8825444667965173,-0.35500644709169865,0.14498831664919853
1789620075257820200,0.887820068359375,-0.7954460290580987,-0.6856850931346417,0.157039112187922
1789620075267793200,0.897793212890625,-0.6115116034209728,-0.9592372458547354,0.13358955527842045
1789620075277765000,0.90776513671875,-0.6526543456703424,-0.852730927813053,0.11465016926974057
1789620075287738000,0.917738037109375,-0.8658207110106945,-0.7052063706845044,0.38707799413502214
1789620075297710000,0.9277099609375,-0.7884042938530444,-0.5381693038344383,0.9421239062294363
1789620075307683300,0.937683349609375,-0.41155893991887565,-0.4354278912842273,1.224708675710857
1789620075317655000,0.947655029296875,-0.2521691729515791,-0.556758268970251,1.2924866191685198
1789620075327628000,0.9576279296875,-0.9294821590602398,-0.6749672997653484,0.9648132924214005
1789620075337600300,0.967600341796875,-1.5564824235141277,-0.7744967645317316,0.5638076029598713
1789620075347573000,0.977572998046875,-1.4141647873789072,-1.0868974110841751,0.23324644581675527
1789620075357545200,0.987545166015625,-1.2045762805253266,-0.8267039216309785,0.07255670216679573
1789620075367518200,0.997518310546875,-1.176952945062518,-0.49727673695385455,0.4890270872637629
1789620075377490000,1.007489990234375,-0.9667729020565747,-0.22797464289367197,0.8476336046740413
1789620075387463200,1.017463134765625,-0.7689566660612821,-0.22770225569307803,0.8629182675674557
1789620075397435100,1.02743505859375,-0.7891665103971958,-0.31976445331871506,0.8072326207026839
1789620075407407000,1.037406982421875,-1.0013941335827112,-0.2681143455803394,0.8814283222481608
1789620075417380000,1.047380126953125,-1.1302502305984496,0.0014496142864227294,1.021971057665348
1789620075427352000,1.05735205078125,-1.5505629703372716,0.20270926873385905,0.9725421331077814
1789620075437325300,1.0673251953125,-1.9583061513602733,0.27800445595383644,0.8562284145399928
1789620075447297000,1.077297119140625,-1.9346645790100097,0.3102466833889484,0.7952300482198595
1789620075457269800,1.087269775390625,-1.6809259647846222,0.4233920010536909,0.9000427140861749
1789620075467241500,1.097241455078125,-1.210944646513462,0.49970425636172294,1.035385835033655
1789620075477214500,1.10721435546875,-0.7128443182170391,0.4665875841796398,0.9520023261651396
1789620075487186700,1.117186767578125,-0.22383272078335284,0.35629239524900913,0.7883692225396632
1789620075497159700,1.12715966796875,0.018352233770489692,0.3052151189625263,0.5546650960832834
1789620075507131600,1.137131591796875,0.1363134272843599,0.3341290787577629,0.7239402972489595
1789620075517104600,1.147104736328125,0.34120179362297054,0.5839379523187875,0.8635510125130414
1789620075527076600,1.15707666015625,0.6570651478499173,0.601423340126872,0.8104147578701376
1789620075537049600,1.167049560546875,1.062588899257779,0.3590168517768383,0.5282242484033107
1789620075547021600,1.177021484375,1.3167343407183885,0.3190922531455755,0.3858390999898314
1789620075556994600,1.18699462890625,1.2203005038797854,0.5193143812388181,0.5169377152353525
1789620075566966500,1.196966552734375,0.8516600837111472,0.7704939586311579,0.699420188498497
1789620075576939500,1.206939453125,0.6692407388120889,0.8843529775232076,0.855355138836801
1789620075586911700,1.216911865234375,0.748126644000411,0.872233500662446,0.8150111457496881
1789620075596884700,1.226884765625,0.9262246185690164,0.6865957782387733,0.5281403695121407
1789620075606856700,1.236856689453125,0.8072165463507175,0.47466275408565994,0.18378332672864198
1789620075616829700,1.24682958984375,0.42392450049519537,0.36599487409591674,-0.028206688308715817
1789620075626801700,1.2568017578125,0.023038345760107038,0.36249066536724567,-0.061356385977566236
1789620075636774700,1.266774658203125,-0.19774141719341276,0.3773971425980329,0.11968816343694924
1789620075646746600,1.27674658203125,-0.23967443303763866,0.4324713795661926,0.2366071544215083
1789620075656719600,1.2867197265625,-0.41334231620430945,0.37389293386936184,0.20186200425475834
1789620075666691600,1.296691650390625,-0.7502578108102083,0.21516016950607297,0.032280221357941626
1789620075676664600,1.30666455078125,-1.1194073495447634,0.08410334757566451,-0.002728255920112133
1789620075686636800,1.31663671875,-1.3673638732373714,0.08993862960040569,0.10746434941887854
1789620075696609800,1.32660986328125,-1.449346575397253,0.059416065564751624,0.2881935492739081
1789620075706581500,1.33658154296875,-1.408122584605217,-0.021924831560254095,0.3575137537375092
1789620075716554800,1.3465546875,-1.1554109753400086,-0.23976561845242975,0.23692162719815968
1789620075726526700,1.356526611328125,-0.7756085251659155,-0.452409421223402,0.0739864427089691
1789620075736499500,1.36649951171875,-0.5267208581030368,-0.5055810394406318,0.0891582928776741
1789620075746471700,1.3764716796875,-0.3490945926994085,-0.5155903922796249,0.28495792835354805
1789620075756444700,1.386444580078125,-0.04981646257042884,-0.5213298127144574,0.38093262324780225
1789620075766416600,1.396416748046875,-0.03630933074355125,-0.5639893892675638,0.18743804984390736
1789620075776389600,1.4063896484375,-0.30758652426898475,-0.5844768815010786,0.030581893007457256
1789620075786361600,1.416361572265625,-0.4374216954499483,-0.5031500129014254,0.18069179045408962
1789620075796334800,1.4263349609375,-0.31708091332316396,-0.4001122477531433,0.4947442958667874
1789620075806306600,1.436306640625,-0.1799848112285137,-0.3707271633148193,0.6486600153371691
1789620075816279600,1.446279541015625,-0.25744214491844175,-0.4304886813163757,0.6455339922711253
1789620075826251800,1.456251708984375,-0.5481184509187936,-0.43749826781749723,0.6496613013342023
1789620075836224500,1.466224609375,-0.9036024523943662,-0.4380430422186851,0.6690425858914851
1789620075846196700,1.47619677734375,-1.176346795862913,-0.5190343952536582,0.6791518919736147
1789620075856169700,1.486169677734375,-1.2912655529409647,-0.5567518392294645,0.8007844674766064
1789620075866141400,1.496141357421875,-1.3740250846922397,-0.5933043310791254,0.8921496227487922
1789620075876114700,1.50611474609375,-1.5775211198896169,-0.7737018147617578,0.731565385299921
1789620075886086700,1.516086669921875,-1.9443278948903082,-1.029207438659668,0.4119803802013397
1789620075896059600,1.5260595703125,-2.3372060997366906,-1.1653683057308197,0.18571604835689068
1789620075906031600,1.536031494140625,-2.610646024253964,-1.2254033799767494,0.16067629964649677
1789620075916004600,1.546004638671875,-2.7009330289006233,-1.3735995527565479,0.25011136363893743
1789620075925976800,1.555976806640625,-2.6842501896470785,-1.5076730921596289,0.28581805231422186
1789620075935949600,1.565949462890625,-2.7012258743673563,-1.6507576210141182,0.2072638632982969
1789620075945921500,1.575921630859375,-2.855392938250303,-1.8346984763920307,0.035974107439815994
1789620075955893800,1.585893798828125,-2.9233903696775436,-2.0043892726212738,-0.161627024500072
1789620075965866500,1.595866455078125,-2.748378670686483,-2.252891739758849,-0.34625556988120076
1789620075975838700,1.605838623046875,-2.542439918512106,-2.3910019873321056,-0.5478831808581948
1789620075985811700,1.615811767578125,-2.5492735639244315,-2.704704364132881,-0.5811877768278122
1789620075995783700,1.62578369140625,-2.89525382399559,-3.1915894709318873,-0.8035571470603347
1789620076005756700,1.635756591796875,-3.0555554451107976,-2.540979198309779,-1.604679175928235
1789620076015728600,1.645728759765625,-2.325328614938259,-2.473042264898121,-1.6813649407237767
1789620076025701600,1.65570166015625,-1.7522341281950473,-3.401105204810202,-1.0231427317932247
1789620076035673600,1.665673583984375,-1.1098112536817788,-3.187647163046896,-0.1864493310675025
1789620076045646600,1.675646484375,0.031151509588956832,-2.4383754406645894,0.13949585671275852
1789620076055618600,1.68561865234375,0.4051788834929466,-2.407773089390993,0.6703507458806037
1789620076065591600,1.695591552734375,0.2719499782204628,-2.118053645724058,1.025309262177348
1789620076075563800,1.705563720703125,0.5086684840619564,-1.4077274478077888,1.0382043995857237
1789620076085536800,1.715536865234375,0.5986205576658249,-1.3072025422632694,1.2671791594326496
1789620076095508500,1.725508544921875,0.47828854336738585,-1.4070955796450375,1.1668138283640146
1789620076105481700,1.735481689453125,0.061712067547440526,-1.3304317344203591,0.6961684932261705
1789620076115453700,1.74545361328125,-0.4576712872743606,-1.0611015833094715,0.410659360730648
1789620076125426400,1.755426513671875,-0.9988526324063539,-0.8802315136790275,0.2653039643347263
1789620076135398700,1.765398681640625,-1.6093050821632147,-0.7899024234563112,0.5245464366734027
1789620076145371600,1.77537158203125,-2.000979171916842,-0.6489277263626456,0.7863409315824508
1789620076155343600,1.785343505859375,-2.119254253685474,-0.5514081401139498,0.7600210799336433
1789620076165316600,1.795316650390625,-2.272156996721029,-0.7993944744229317,0.37917408914268014
1789620076175288600,1.80528857421875,-2.3620704918801785,-1.398648361556232,-0.05195581268668174
1789620076185261800,1.81526171875,-2.1826175955712794,-2.121568960368633,-0.3921592429220676
1789620076195233500,1.825233642578125,-1.8352356520086526,-2.6457614690378306,-0.81853230561316
1789620076205206500,1.83520654296875,-1.3678259377911686,-3.1059122981682417,-0.8193138113796711
1789620076215178800,1.8451787109375,-1.1972338088080285,-3.256098767982423,-0.7549205419242382
1789620076225151500,1.8551513671875,-1.6256424689799547,-3.189555334755778,-0.595649432900548
1789620076235123700,1.865123779296875,-2.2021236755520106,-3.203860338962078,-0.45482466567158697
1789620076245096700,1.8750966796875,-2.6464626030445095,-3.3577462478160855,-0.75254855209589
1789620076255068400,1.885068359375,-2.970432983620465,-3.64767202771008,-1.356653678652644
1789620076265041700,1.895041748046875,-3.0561510729163883,-3.8874695026054975,-1.8377882591009138
1789620076275013600,1.905013671875,-2.844267148602009,-3.913315599262714,-1.451929577627778
1789620076284986600,1.914986572265625,-2.465511577132344,-3.545360238748789,-0.21882979792952537
1789620076294958600,1.92495849609375,-1.9354810099594293,-2.895841268494725,1.3529419646531342
1789620076304931600,1.934931640625,-1.2419810052901505,-2.422463878044486,2.799767497140169
1789620076314903800,1.94490380859375,-0.7008826622664928,-2.6034905995413657,3.5702065107136964
1789620076324876500,1.95487646484375,-0.11051021992079912,-3.2887025222063064,3.1910902892380952
1789620076334848800,1.964848876953125,0.6057640727449208,-3.5552336902484294,2.0773539710670708
1789620076344821800,1.97482177734375,1.4492138889282942,-3.508615439197421,1.1017203016847372
1789620076354793500,1.98479345703125,1.813229571905732,-3.693556996050477,0.9138146343290805
1789620076364766700,1.9947666015625,1.6778829438269138,-3.7185020522147414,1.3056985674411057
1789620076374738700,2.00473876953125,1.5940122359633444,-3.693376086525619,1.822750848966837
1789620076384711700,2.014711669921875,1.5583213293790816,-3.033756285756826,2.7760364929407833
1789620076394683600,2.02468359375,1.0148796380996703,-1.6109233310148119,4.1414007167935365
1789620076404656600,2.03465673828125,-0.3457050233263522,-0.9560347234863787,5.673457724103331
1789620076414628900,2.04462890625,0.00843348182439804,-3.047348757779598,5.177095763906836
1789620076424601600,2.0546015625,-0.21838198109678922,-1.2857003200292587,3.429188851261139
1789620076434573600,2.064573486328125,0.9255869051873683,-0.6229040811814367,3.8391976391285656
1789620076444546800,2.074546875,1.1227975034397095,-1.3870026396870612,5.31595770663023
1789620076454519800,2.084519775390625,1.0138333439171314,0.32366467562764883,5.639979817393422
1789620076464491500,2.094491455078125,1.007556820930913,1.039368913320452,6.388644806054234
1789620076474464800,2.10446484375,0.27641813661046327,1.268051266092062,7.235313072827458
1789620076484436700,2.114436767578125,0.29918292612619696,2.2487392962545156,7.627261303347349
1789620076494409500,2.124409423828125,1.2444669768869876,1.7220494178116321,6.155618724989891
1789620076504381700,2.134381591796875,2.0379905134499072,2.4389848047345875,4.974917825570702
1789620076514354700,2.144354736328125,2.2946002991974352,2.253653079520166,4.368250739571452
1789620076524326700,2.15432666015625,2.086763019925356,2.6084406231641766,4.448790841707587
1789620076534299600,2.164299560546875,1.0062252070009707,3.454501863954961,4.651559147152304
1789620076544271600,2.174271728515625,-0.5456207158189267,3.9273850411474704,5.243653517919778
1789620076554244900,2.184244873046875,-1.6054583436071872,4.334312229612469,5.129215822356939
1789620076564216600,2.194216552734375,-1.6669862867593763,4.89386860486865,4.939491707402468
1789620076574189600,2.204189453125,-0.07054368184395134,4.575080303105712,4.5905818236202
1789620076584161500,2.21416162109375,5.0562534619987005,4.031186191883683,3.870113586395979
1789620076594134500,2.224134521484375,4.093275860571861,4.227595191429555,4.061187362393737
1789620076604106800,2.234106689453125,2.482398999047279,4.49276208538115,4.056889372938871
1789620076614079700,2.244079833984375,0.3096410456459969,5.241177483195066,3.834872177144885
1789620076624051500,2.254051513671875,-0.5766099475182592,5.355282001280784,3.4043121841579675
1789620076634024700,2.264024658203125,-0.8732289414405823,5.1734097688704725,3.1624019548922777
1789620076643996700,2.27399658203125,-1.2125075849812477,5.055657249671221,2.978175852832198
1789620076653969400,2.283969482421875,-1.4051485372304915,5.193856929093599,3.0378818412542343
1789620076663941600,2.293941650390625,-3.5035844592928886,5.428004707664251,2.8645822068780658
1789620076673914600,2.30391455078125,-5.655140561646223,5.64645456636548,2.461650810050964
1789620076683886600,2.313886474609375,-4.854697454953193,5.776378584873676,2.2528701124489308
1789620076693859600,2.323859619140625,-1.731498652549833,5.230605820298194,2.021224087566137
1789620076703831600,2.33383154296875,-0.34775910631194706,4.663758411251008,1.0571592754244803
1789620076713804800,2.3438046875,-1.9718191284060478,4.338296623073518,-0.34704876608550544
1789620076723776500,2.353776611328125,-2.0820038426995278,3.8399510878443714,-0.42880408923029895
1789620076733749500,2.36374951171875,-0.9477275714553892,3.2569229438468814,-0.816652483215928
1789620076743721700,2.3737216796875,-1.2637456778526306,2.5901868813320994,-1.108749761930108
1789620076753694500,2.383694580078125,-1.992527569913864,2.5160408641472456,-0.4267033175587654
1789620076763666700,2.393666748046875,-1.454950971275568,1.3974176507174967,-0.9977841263920069
1789620076773639700,2.4036396484375,-1.6364204681038856,1.2309607218429446,-0.8268360235780478
1789620076783611600,2.413611572265625,-1.9437562324821949,1.9041899457693099,0.6112690268367529
1789620076793584600,2.423584716796875,-1.8554022417247293,1.952393566315621,2.7643443015813824
1789620076803556600,2.433556640625,-0.5077297419071197,1.2438884463466704,3.7277714003413913
1789620076813529900,2.44352978515625,0.40440965268611906,0.9583118015728891,2.515425070336461
1789620076823501600,2.45350146484375,-0.5091651815377175,0.6259710675366222,1.4822072269916533
1789620076833474600,2.463474609375,-1.1559962278820575,1.0843160162888468,1.392875915634632
1789620076843446800,2.47344677734375,1.3471642580345273,-0.882173879918456,-0.10621113448739052
1789620076853419500,2.48341943359375,1.3455167830884456,-1.9813051880232988,-0.6082961485058069
1789620076863391700,2.493391845703125,1.616620373612642,-2.5886478351965545,-1.4517314247071742
1789620076873364700,2.50336474609375,1.5294307504594324,-4.097364591190218,-2.910681110230088
1789620076883336400,2.51333642578125,1.3859388098478316,-3.4033301873832937,-2.2908979375481606
1789620076893309700,2.523309814453125,1.785330926632881,-4.500193696686625,-1.2253437587440013
1789620076903281700,2.53328173828125,1.6048923802874981,-5.418621962291002,-2.0823563093990085
1789620076913254700,2.543254638671875,0.4183412935353815,-3.6564565149292347,-1.380255503514409
1789620076923226600,2.5532265625,-0.10812822015509009,-3.2663609265387055,-0.9865338335812092
1789620076933199600,2.56319970703125,0.6067782912887633,-3.8515295896962285,-2.0751257736235855
1789620076943171800,2.573171875,0.5427846886754035,-2.661594997985661,-1.6828882047683
1789620076953144600,2.58314453125,0.31736966713666914,-1.7774300903804598,-0.98474168946743
1789620076963116500,2.593116455078125,0.5072447348691522,-1.101077692932263,-1.226282500898838
1789620076973089800,2.60308984375,0.5495312403261661,-0.3332747269507497,-1.8974638523846863
1789620076983061500,2.6130615234375,0.5086101780034601,0.5904285564471036,-1.6602034947514532
1789620076993034500,2.623034423828125,0.2227422951981425,1.7713018167585133,-0.5417763884156942
1789620077003006700,2.6330068359375,0.009662292966991663,2.509958621624112,0.5319868158072233
1789620077012979700,2.642979736328125,0.03671732702255249,1.9965362210333346,-0.039054830059409136
1789620077022951700,2.65295166015625,0.25166823769211766,1.892583679127693,-0.6585533405810594
1789620077032924700,2.662924560546875,0.13739303921461105,2.520326286381483,-0.20971184097230433
1789620077042896600,2.672896728515625,0.5084647781834006,2.0563900934934614,-0.080762220454216
1789620077052869600,2.68286962890625,1.2834160084843635,0.9263382350113243,-0.9939309580951928
1789620077062841600,2.692841552734375,2.173768080291897,-0.04956685345722362,-2.6673300345063207
1789620077072814600,2.702814697265625,1.0797662440299987,1.288922496946156,-1.555118149423599
1789620077082786600,2.71278662109375,-0.36576091920956966,-0.8608144271560013,-2.0565385620534418
1789620077092759600,2.722759521484375,-0.02872603600770235,-1.9714915038868783,-3.7102661387890574
1789620077102731800,2.732731689453125,0.43791225544586776,-3.051608753311634,-3.7602187949597834
1789620077112704800,2.742704833984375,0.32306612521260974,-3.335829891823232,-2.3492706315398215
1789620077122676700,2.7526767578125,-0.32783962322473525,-2.406493863235414,-0.28498423183858396
1789620077132648700,2.762648681640625,-0.7829729164540767,-1.8873177214235066,0.3413964394122362
1789620077142621700,2.77262158203125,-0.9519953119024633,-1.7198339337192474,0.04552081120312214
1789620077152593700,2.78259375,-0.889757905306667,-1.2296940629079938,-0.2967424741715193
1789620077162566700,2.792566650390625,-0.5407105127498507,-1.0587249173060058,-0.6414186659067869
1789620077172539000,2.802538818359375,-0.2904340216770768,-0.48815567472409455,-0.7032973221927881
1789620077182511600,2.81251171875,-0.23431641313582657,0.23733353246729819,0.25471593482494354
1789620077192483600,2.822483642578125,-0.21405293891653418,0.8397792379118502,1.6102882479816674
1789620077202456800,2.832456787109375,-0.25193857906609773,0.9517469631645827,2.063114433312416
1789620077212428500,2.842428466796875,-0.3213175279796123,0.7832233110185712,1.7609020032972096
1789620077222401500,2.852401611328125,-0.1736415796816349,0.723526309620589,1.677477870157361
1789620077232373800,2.862373779296875,0.1958513656631112,0.5202454880764708,1.378541685333848
1789620077242346500,2.872346435546875,0.788204825758189,0.14851806167792528,0.6437976699978113
1789620077252318700,2.882318603515625,0.6082908878087997,-0.07003076388575136,0.29689912603795526
1789620077262291700,2.892291748046875,0.09180003955811261,-0.22371099409982562,0.07239829673469066
1789620077272263400,2.902263427734375,0.0011944704815745352,-0.12897380511127413,0.5487222620308398
1789620077282236700,2.912236572265625,-0.0743245886221528,0.22441658508591353,1.5506582474052906
1789620077292208600,2.922208740234375,-0.09772972186803817,0.45445126578193157,2.9305525163918733
1789620077302181600,2.932181640625,0.09223653127923608,0.7815751784853637,3.4296868639111517
1789620077312153600,2.942153564453125,0.0169325762309134,0.3756840185372159,2.2665946864187716
1789620077322126600,2.952126708984375,-0.22933277950435876,-0.3080997344881296,0.47568859000205993
1789620077332098800,2.962098876953125,-0.30343729563504457,-0.8801802218832075,-0.95682258592844
1789620077342071600,2.972071533203125,-0.11148673680275678,-0.9384124844908713,-1.0988760181695223
1789620077352043500,2.98204345703125,-0.04718947506770491,-0.7398090436406433,-0.9079939653515815
1789620077362016800,2.992016845703125,-0.14966010785251854,-0.34139928895644844,-0.7461947991549969
1789620077371988500,3.001988525390625,-0.6019662148319185,-0.2253960245773196,-1.0906880355387925
1789620077381961500,3.01196142578125,-1.024961325522512,-0.32526889595389363,-1.6371218943715093
1789620077391933700,3.02193359375,-0.878753550080955,-0.3341569896779954,-1.609434846022725
1789620077401906700,3.03190673828125,-0.32807445489391684,0.05049786896333098,-1.1005652864307165
1789620077411878700,3.041878662109375,0.1865899085819721,0.35989765319935973,-1.0385217949718237
1789620077421851600,3.0518515625,0.5285631249688565,0.34896110251285134,-1.5991361548483372
1789620077431823600,3.06182373046875,0.6572704611636698,0.48905222170501944,-2.198497301748395
1789620077441796600,3.071796630859375,0.6189947987832128,0.4680212702445686,-2.702272168549895
1789620077451768000,3.08176806640625,0.5208335536301135,0.6888751944128424,-3.218934573975205
1789620077461741300,3.0917412109375,0.37285949916839595,0.9499045501682907,-3.8104467609405517
1789620077471713300,3.10171337890625,0.5332571280039846,1.0322918145410716,-3.4437720878869293
1789620077481686300,3.111686279296875,0.7208885084629059,0.22405768864564596,-2.84234348706305
1789620077491658200,3.121658203125,0.6206500186443329,-0.2663369606442749,-1.6068728865802286
1789620077501631200,3.13163134765625,0.43305692436918614,-0.11652590001374483,0.20406009882092474
1789620077511603500,3.141603515625,0.9764344643712043,0.13178922785818575,1.846589405193925
1789620077521576200,3.151576171875,1.525957521390915,0.7021494673319161,5.195428123933077
1789620077531548200,3.161548095703125,1.1568237647473811,1.4133938030064106,5.2936248787909745
1789620077541521400,3.171521484375,0.5473194825608283,0.6010270342856645,3.7199662795484065
1789620077551493000,3.1814931640625,0.40023273232765494,-0.1984254539348185,3.1535090388625857
1789620077561466000,3.191466064453125,0.40800570441670714,-0.4652287169165909,3.3147692758768796
1789620077571438300,3.201438232421875,0.33625323130488394,-0.7157515839658677,3.305139277744293
1789620077581411300,3.211411376953125,0.33764322435855865,-0.7743953499838709,2.6872347584158183
1789620077591383300,3.22138330078125,-0.08156886066198349,-0.9424947853684424,0.6681219639152288
1789620077601356300,3.231356201171875,-0.5335842775991186,-0.9432824286147952,0.06647592094838618
1789620077611328300,3.241328369140625,-0.11118187210466712,-0.7203884499862789,0.6745195559978485
1789620077621301200,3.25130126953125,0.4583341350972652,-0.3105880441725254,1.3877631026655435
1789620077631273200,3.261273193359375,0.5278256044745445,-0.14683832843005656,2.1933961792171
1789620077641246200,3.27124609375,0.5022223766624927,0.1298135438710451,2.3272189587295053
1789620077651218200,3.28121826171875,0.4770820901870727,-0.32489334063977,1.0607546695679426
1789620077661191200,3.291191162109375,0.5895324113249778,-0.8029159265473484,-0.27673662797510623
1789620077671163400,3.301163330078125,0.7593810284644364,-0.8806991311907768,-0.23095219739973544
1789620077681136400,3.311136474609375,0.48403088641166686,-0.46386605026125904,0.27628186994493004
1789620077691108400,3.3211083984375,-0.08039276608731598,0.3152995828643441,1.0463257467210292
1789620077701081300,3.331081298828125,-0.22599841091725975,0.698245299500227,1.492196706086397
1789620077711053300,3.34105322265625,0.2821832029432058,0.6769605194091797,2.3348908085316418
1789620077721026300,3.3510263671875,0.6647329790640621,0.7250222472667693,3.278056040507555
1789620077730998300,3.360998291015625,0.565561168628931,0.671473027908802,2.7353052541017533
1789620077740970500,3.370970458984375,0.24807920022420585,0.31428280703723427,1.7453700876444578
1789620077750943200,3.380943115234375,-0.08706343949027359,0.561657731449604,1.7088859848558902
1789620077760915200,3.390915283203125,-0.3645008361458778,0.9814432324439286,1.3254402097433804
1789620077770888400,3.400888427734375,-0.5380301876246929,1.3599375226289032,0.5127227278888226
1789620077780860200,3.410860107421875,-0.7116834577441216,2.0175942066311836,-0.2927139493077993
1789620077790833200,3.420833251953125,-0.8276414947420359,2.699945186907053,-1.4673703078657387
1789620077800805400,3.430805419921875,0.07816504356786608,3.327646293106675,-1.2119213825911284
1789620077810778400,3.4407783203125,1.4055271612845361,3.599862813308835,-0.08845569756627082
1789620077820750300,3.450750244140625,1.732025452902913,2.6084987830922004,-0.4812450550854206
1789620077830723300,3.460723388671875,1.8383517382025718,1.7686147696316241,0.39914720211327076
1789620077840695300,3.4706953125,1.8692314451128242,0.7336214410468935,2.187847312918305
1789620077850668300,3.480668212890625,1.9387766905039547,-0.24040976157486438,3.1865146518856284
1789620077860640300,3.49064013671875,1.9445143573731183,-1.158207912582159,3.0052134973615408
1789620077870613200,3.50061328125,1.2684130851417779,-2.20023128593415,1.6305284874558448
1789620077880585200,3.510585205078125,0.5166711001884192,-2.8768358315125107,0.7183961071252822
1789620077890558200,3.52055810546875,0.00994790497533977,-3.1865090989276763,0.49476972256898877
1789620077900530400,3.530530517578125,-0.3964987699637189,-3.0186732829153535,0.8271160095632076
1789620077910503200,3.540503173828125,-0.16797179041691124,-2.8704782791793346,1.3894903648495673
1789620077920475100,3.55047509765625,0.41361872199289496,-2.295489941513538,2.520440268149972
1789620077930448400,3.560448486328125,0.8724655558526515,-1.240365094526112,4.351204327702522
1789620077940420000,3.570420166015625,1.0176251374155283,-0.38940234542936086,5.026742705354094
1789620077950393000,3.58039306640625,1.7790829721540211,-0.7599332555197179,3.9378438913196323
1789620077960365300,3.590365234375,1.478794788199663,-2.414021336130798,1.306690501087904
1789620077970338300,3.60033837890625,0.8994675445467233,-3.575555470526218,-0.9433429266303777
1789620077980310300,3.610310302734375,0.3457295001804828,-4.147777266088128,-2.479896660837531
1789620077990283300,3.620283203125,-0.5211498165050521,-4.398977301746607,-3.0958944697618485
1789620078000255200,3.630255126953125,-1.0139186841130257,-4.216805794128775,-1.6517326035261153
1789620078010228200,3.640228271484375,-1.7239561282157896,-4.600714802838862,-2.1127800892353057
1789620078020200200,3.6502001953125,-2.3422283118128777,-4.796875380581617,-2.7521061667770144
1789620078030173200,3.660173095703125,-2.0446184071570634,-4.6776586340487,-3.9199621976703405
1789620078040145200,3.670145263671875,-1.5975889254063367,-4.570063059465586,-5.252593195700645
1789620078050118100,3.6801181640625,-2.016000799959898,-4.670687625992298,-7.402185304504632
1789620078060090400,3.69009033203125,-2.5651234594851733,-4.495137874601781,-8.957533755552769
1789620078070063400,3.7000634765625,-5.916442304602265,-4.417147456948459,-10.020167662996053
1789620078080035300,3.710035400390625,-9.279515884920954,-3.8793420179903504,-11.282517502576113
1789620078090008300,3.72000830078125,-9.157839470276237,-1.8591240387268364,-11.95317687601447
1789620078099980300,3.729980224609375,-9.582921908634901,-0.45921464425884184,-10.487819077014922
1789620078109953300,3.739953369140625,-5.192700744795799,1.3693224599592386,-6.4934320452183485
1789620078119925200,3.74992529296875,-1.960708536326885,3.75472312015295,-3.0870845558404922
1789620078129898200,3.759898193359375,1.913337713342905,5.1215597546458245,-1.0010533573210239
1789620078139870200,3.7698701171875,4.974289464539289,5.759888053321838,-0.5565554398745298
1789620078149843200,3.77984326171875,5.553325616291165,6.2867322455435986,-1.8728601570039987
1789620078159815400,3.7898154296875,4.9623371609389775,6.305066943657398,-3.559304008427262
1789620078169788400,3.799788330078125,4.571332933270931,5.704394714158773,-2.681509366506338
1789620078179760000,3.809760009765625,4.6880718915134665,5.8905965002059935,1.06232586440742
1789620078189733400,3.8197333984375,5.969744271200895,5.234603950023651,2.8856349317789074
1789620078199705300,3.829705322265625,7.745619387224316,3.5226050938442346,1.8544050473809242
1789620078209678000,3.839677978515625,8.050485546618699,2.003906457540393,1.1228712262630463
1789620078219650300,3.849650390625,6.5321326550126075,1.4265756484016776,0.27049510323703285
1789620078229623300,3.859623291015625,5.32806198592186,2.1363415820866822,-2.056129981252551
1789620078239595300,3.86959521484375,4.896170452070236,0.6446046024665236,-2.9328046792328357
1789620078249568300,3.879568359375,4.045456124776601,-2.7055434453055263,-2.045880389916897
1789620078259540200,3.889540283203125,3.0755449246942996,-4.395684689942002,-0.24469021537303923
1789620078269513500,3.899513427734375,2.274424941653013,-3.8360812606737014,2.360196514701843
1789620078279485200,3.909485107421875,1.7523942871928213,-3.1917391085356472,4.2105730372190475
1789620078289458200,3.919458251953125,1.634780299681425,-2.5978476252183316,5.925007303851842
1789620078299430400,3.929430419921875,1.572999843072891,-1.237190848404169,7.386105691841244
1789620078309403100,3.939403076171875,0.6957026292800903,-1.0643091471791266,6.309568346729875
1789620078319375400,3.949375244140625,0.2853296842753887,-2.8520617480009793,4.466348710229993
1789620078329348400,3.959348388671875,0.7088993799835444,-4.705385429885983,3.170983905276656
1789620078339320000,3.969320068359375,0.769031484863162,-4.798525485876202,2.6204478718221185
1789620078349293300,3.979293212890625,0.8963707475751638,-4.289735421261191,3.237033125245571
1789620078359265300,3.989265380859375,0.7335323014587164,-3.8527544553160666,4.380544988477229
1789620078369238300,3.99923828125,0.5833282959878444,-2.7822224880993365,5.769214684593678
1789620078379210200,4.009210205078125,0.3251958307176828,-2.3418495416283607,5.843470007371902
1789620078389183200,4.019183349609375,-0.15030278967022895,-1.9592068995922802,5.086096227076649
1789620078399155500,4.029155517578125,-0.6470452736169099,-1.897277974423766,4.296654991391301
1789620078409128200,4.039128173828125,-0.9461638292700052,-2.72971605579257,3.4548850180536506
1789620078419100200,4.04910009765625,-0.7565829221785068,-3.0412375814229247,2.6017881795376536
1789620078429073400,4.059073486328125,-0.4608780108937993,-2.5758932753026484,2.3919226093083616
1789620078439045000,4.069045166015625,-2.075315158715844,-2.089530146551132,1.9360610018044708
1789620078449018000,4.07901806640625,-6.036666182351112,-1.7020599382281303,1.0384779558300972
1789620078458990000,4.088989990234375,-7.3846806274741885,-0.7595359267652034,1.4174731812745331
1789620078468962800,4.098962890625,-5.059364872017502,0.18545652063786983,2.113657456591725
1789620078478935000,4.10893505859375,-3.4084862549722192,-0.11925474045574665,0.06660977646112441
1789620078488908000,4.118907958984375,-3.0906460477143525,-0.9798632697761058,-2.3549849175333977
1789620078498880000,4.1288798828125,-1.954143770983815,-1.2228823370665312,-4.127877218353748
1789620078508853000,4.13885302734375,-0.34966384395472705,-1.4199305112987757,-5.299188942658901
1789620078518825000,4.148824951171875,1.0623889927715062,-1.3823802405834198,-5.5166883687674995
1789620078528798200,4.158798095703125,1.282491879376769,-1.072682423248887,-4.704951130121946
1789620078538770000,4.16877001953125,1.2480419127643108,-0.8248708609849215,-3.6846354384481903
1789620078548743000,4.178742919921875,1.5810872879385947,-0.4312169955909252,-2.820023518705368
1789620078558715100,4.188715087890625,2.263257650950551,-0.07811784342527389,-1.774713671028614
1789620078568687900,4.19868798828125,2.6810399954289195,0.30390462088584896,-0.8756769191145897
1789620078578660000,4.20866015625,2.469271221926808,0.9029097939550876,0.3369797920137644
1789620078588633000,4.218633056640625,1.7776351114332676,1.0856038641422987,2.2295874365389348
1789620078598604800,4.228604736328125,0.14179273547828197,1.0781120470821857,4.755870000976324
1789620078608578000,4.238578125,0.7379471952915191,0.5737830535292625,5.781681367456913
1789620078618550000,4.248550048828125,2.551077982997894,0.20197803184986113,5.882678566688299
1789620078628523000,4.25852294921875,3.2078724972128865,-0.17271394344270227,5.705138810524344
1789620078638495000,4.268494873046875,1.9870733961611986,0.14975801526904106,5.186636330190301
1789620078648468000,4.278468017578125,1.403569743606448,-0.06758358992934227,4.713999528974294
1789620078658440200,4.288440185546875,2.8082535859346387,-0.3146235832989216,4.130841328856349
1789620078668413000,4.298412841796875,1.040099492617324,0.3875573020845651,3.9541771864831445
1789620078678385000,4.308385009765625,-3.1547195836961266,0.162190211340785,2.7725954125761985
1789620078688358100,4.318358154296875,-3.607982406878471,0.37184710725545883,1.7701695978581904
1789620078698329900,4.328329833984375,-3.0856869640022513,0.24519465776383875,0.8833505224823951
1789620078708302800,4.338302734375,-1.6904110014885663,0.4626981755256653,0.948282721120119
1789620078718275000,4.348275146484375,-0.3532990951845422,0.6988070250362157,1.7844073820471762
1789620078728248000,4.358248046875,0.834513718599081,0.36805823636651036,2.6677093892127273
1789620078738220000,4.368219970703125,2.7274533715575933,0.5022381587535143,4.39257386444509
1789620078748193000,4.378193115234375,4.905545598658919,1.5318898340493439,7.250972414252161
1789620078758165200,4.388165283203125,5.982562836241722,2.9307851561039686,8.397417992848158
1789620078768138000,4.398137939453125,3.717219611188769,3.4627252101600168,6.232428992947936
1789620078778110000,4.40810986328125,0.6082967330276966,3.0366397322386502,3.7883845667362213
1789620078788083200,4.418083251953125,-1.1837258001983164,3.5390193452894687,2.166303589630127
1789620078798055000,4.428054931640625,-4.93094482833147,3.4828041215926406,-0.7766022123783827
1789620078808028000,4.43802783203125,-4.611744438636302,4.460404999394714,0.7265215459138155
1789620078818000100,4.448000244140625,-3.873460558736324,3.667541972567141,-0.3702233054459095
1789620078827973000,4.45797314453125,-3.5593384952187535,0.9986799061879515,-6.22126813198626
1789620078837945000,4.467945068359375,-0.04788417933359742,-2.491448274682462,-13.250994334816932
1789620078847918000,4.47791796875,3.5813808156788345,-5.096019655197859,-18.40773996913433
1789620078857890000,4.48789013671875,3.685357907503843,-4.477390913248062,-15.240043999487161
1789620078867863000,4.497863037109375,2.325521361031383,-0.0792439248457551,-6.30474545661807
1789620078877835000,4.5078349609375,0.9238253023423254,3.0024849491804835,-0.7998550776720047
1789620078887808000,4.51780810546875,-1.8069322253271936,3.8715722607716914,0.6471499030351638
1789620078897780000,4.527780029296875,-3.2261738775789737,4.46392762056291,-0.3305336846143007
1789620078907753000,4.5377529296875,-2.602747964480519,3.183496765369177,-1.6591162840366362
1789620078917725200,4.54772509765625,-2.354017826066911,2.7364757591858506,-1.9471096345633268
1789620078927698000,4.557697998046875,-1.9855846189081667,1.6136550940662622,-2.5151813247084616
1789620078937670000,4.567669921875,0.4122647501006722,2.032133311854303,-2.3476070822417734
1789620078947643100,4.57764306640625,2.1257214038729666,-0.09749620537310838,-0.02696224120557308
1789620078957614800,4.58761474609375,3.844807295703888,-1.6295353847652674,3.0246529418468473
1789620078967587800,4.597587890625,3.414372390401363,-0.849492530413717,2.3649276348769663
1789620078977560000,4.60756005859375,1.189156008553505,-2.1002898793660103,3.505213521799445
1789620078987533000,4.617532958984375,0.6969087901994585,-4.255525108623504,5.343514406597614
1789620078997505000,4.627505126953125,2.0786805434957145,-4.196866875688731,2.6179496252655983
1789620079007478000,4.63747802734375,1.032859239165485,-5.978121054401994,2.7058739924341437
1789620079017450000,4.647449951171875,2.252837379223108,-6.626208530548214,1.3135773379921913
1789620079027423000,4.657423095703125,2.399330547477305,-6.551612431508302,2.666891643089056
1789620079037395000,4.66739501953125,1.1042983354791998,-5.211992889764905,2.9298452449053523
1789620079047368000,4.677367919921875,1.0032546667575835,-4.556684814715386,2.5286212365180254
1789620079057340000,4.68733984375,1.4405810851395129,-3.203295398555696,3.0543811406344172
1789620079067313000,4.69731298828125,2.1630255908727642,-1.978627639377117,3.411407110854983
1789620079077285000,4.70728515625,2.4418624059975147,-1.545220001874119,2.993024462395906
1789620079087258000,4.717258056640625,1.808046908570826,-1.256081719096005,1.0870768593043088
1789620079097230000,4.72722998046875,0.8797183034598827,-1.3878854138709604,-0.9857342076361179
1789620079107203000,4.737203125,0.4661892325118184,-0.7461996214605867,-2.0032342573672532
1789620079117175000,4.747175048828125,1.2251046892911195,0.32146687332242724,-1.718295618236065
1789620079127148000,4.75714794921875,1.3224901277661323,1.1268960978649556,-1.7323282352417706
1789620079137120000,4.7671201171875,0.4430418734192848,1.0253672759748995,-2.15094878410995
1789620079147093000,4.777093017578125,0.350380540856719,0.6809697550505399,-2.748658656671643
1789620079157065000,4.78706494140625,0.9659656773269176,0.31299335174858567,-3.6143975346177815
1789620079167038000,4.797037841796875,0.6548118159651756,0.1745787144012749,-3.054728931158781
1789620079177010200,4.80701025390625,0.639426615306735,-0.6032878188244998,-4.033750489413738
1789620079186983200,4.816983154296875,0.8736571037247777,0.39793227336555714,-3.2032956908166406
1789620079196955000,4.826954833984375,1.5996294913232325,0.7194403554812073,-2.0303391219139098
1789620079206928100,4.83692822265625,1.4959358926147222,1.2574968465909362,-2.0096505541503427
1789620079216900000,4.846900146484375,0.7476537657916545,1.318435153286904,-2.4715175395488735
1789620079226872800,4.856872802734375,0.7775742722809315,2.222146034491807,-2.967328880125284
1789620079236845000,4.866844970703125,1.0598907462149858,2.466196636787057,-3.032665567910671
1789620079246818000,4.876818115234375,1.1743319489091635,3.172240627339482,-3.753704298499226
1789620079256790000,4.8867900390625,1.67669636439085,3.1656352377250787,-4.4294940205633635
1789620079266763000,4.896762939453125,1.9258292383864521,1.690318354769051,-4.887216745764017
1789620079276735000,4.90673486328125,0.425102019841969,0.7190215455472468,-4.462636411708593
1789620079286708200,4.916708251953125,-0.6075938454553484,0.12386954077482223,-1.5553928747117518
1789620079296680000,4.926679931640625,-0.2592807585224509,-1.1719506067305803,-0.16552315515577792
1789620079306653000,4.93665283203125,-0.4050944200798869,-1.8086700089052319,0.11493570821285247
1789620079316625200,4.946625244140625,0.1259440089613199,-1.545879196435213,1.1727484791100025
1789620079326598000,4.956597900390625,0.9158303580656647,-1.032894310478866,2.2805583298414946
1789620079336570000,4.966570068359375,1.0174734539851547,-0.3374845266655087,2.780774627378583
1789620079346543000,4.976543212890625,1.3008911671593784,-0.459848923574388,2.436059857198596
1789620079356514800,4.986514892578125,0.99323683835119,-0.6250359786435962,1.1869862632989883
1789620079366488000,4.996488037109375,0.1524222660422325,0.36586481797546144,-0.6786603090643882
1789620079376460000,5.0064599609375,1.513597806033492,1.3144491523906587,-0.1690139198809862
1789620079386433000,5.01643310546875,1.8779370218768714,0.7352116328477859,-0.580723666447401
1789620079396405000,5.026405029296875,1.766708936010301,1.0943202545613049,-0.7778332154780626
1789620079406378000,5.0363779296875,1.1548624015465379,1.584051982963085,-1.4275170209050179
1789620079416350200,5.04635009765625,0.7370344643607735,2.2872481828689573,-1.2989286349147557
1789620079426323000,5.056322998046875,0.5999404080927372,2.2914579095184804,-0.7035550963461399
1789620079436295000,5.066294921875,0.44506665724515915,2.127719299691915,-0.5237146620243788
1789620079446268200,5.07626806640625,0.9478725328840315,2.3530080645024776,-0.45533670684695243
1789620079456240000,5.086240234375,1.2128721074447035,2.527500708055496,-0.7870096246242523
1789620079466213000,5.096213134765625,1.4420643094345926,2.7585522741764783,-0.7990659731209278
1789620079476185000,5.10618505859375,0.382671283608675,1.2203940273821354,-0.7085030741423368
1789620079486158000,5.116157958984375,-0.4838942544199526,0.04738485150933265,-0.9993488914906978
1789620079496130300,5.12613037109375,-0.051431934943050144,-1.0572545524924992,-1.3225859893560408
1789620079506103300,5.136103271484375,0.22812968732491135,-2.3182839571237563,-1.0617740757435559
1789620079516075000,5.146074951171875,0.04495791662335395,-3.898302739048004,-0.4152431813895702
1789620079526048300,5.15604833984375,-0.7116273436427116,-5.3212213262468575,0.28349370101988314
1789620079536020200,5.166020263671875,-1.0216367111444473,-6.46041824888885,0.9500783723652362
1789620079545993200,5.1759931640625,-0.7307597680054605,-6.875420607259869,1.8047621878117321
1789620079555965200,5.185965087890625,-0.364527578022331,-6.6547559951186175,2.81089913200736
1789620079565938200,5.195938232421875,-0.09946443670615553,-6.198448981934786,3.4464871920645237
1789620079575910100,5.20591015625,-0.11336078704632818,-5.869741928225755,3.660369012197852
1789620079585883100,5.215883056640625,-0.38253560146503146,-5.769381857854127,3.309731281709671
1789620079595855400,5.22585546875,-0.731241706303507,-4.939884506112337,2.485878073334694
1789620079605828400,5.235828369140625,-1.2505997805535793,-2.514958621868491,0.7376146023362875
1789620079615800000,5.245800048828125,-1.6559224564313888,-0.7413432674705982,1.2922323521465062
1789620079625773300,5.255773193359375,-1.5480489416897296,0.11686346140503882,2.1913357395559547
1789620079635745300,5.265745361328125,-0.7539280968207865,0.9452601584285497,2.0650550459861754
1789620079645718000,5.275718017578125,-0.8094260390937328,1.344721248796582,2.1368203055143353
1789620079655690200,5.285690185546875,-1.019270566534996,1.6635265016943215,2.487138887050748
1789620079665663200,5.295663330078125,-0.2537936323482543,2.9644407574683425,2.449961541301012
1789620079675635200,5.30563525390625,-0.5762602572977542,1.7296470333337783,2.4377555552005767
1789620079685608200,5.315608154296875,-0.585436008856818,0.5132511356770992,1.927731564876437
1789620079695580200,5.325580078125,-0.20352694179229436,0.050154316222667694,1.4181629171043633
1789620079705553400,5.335553466796875,-0.454668013805151,0.11089140125811099,0.8363695755988358
1789620079715525000,5.345525146484375,-0.34619485266990957,0.20427637192010878,0.6941355260938405
1789620121581255000,47.2112548828125,0.32386487437486644,0.7290799982249736,0.5938605767223983
1789620121591227000,47.22122680664062,0.2521931383490562,1.9865765525549648,-0.7483666633013636
1789620121601198800,47.23119873046875,-0.37245442549884317,1.9839923812806606,-0.5923823939286172
1789620121611171800,47.241171875,-0.41424715608954427,1.4317249939888714,-0.1269829235550016
1789620121621143800,47.251143798828124,0.050391632109880444,0.6413280650138855,0.158008468676731
1789620121631116000,47.26111596679687,0.5481535222321748,0.067673606300354,0.14661062062140554
1789620121641087700,47.271087646484375,0.7460860780835151,-0.059418988174200056,-0.049641800123266876
1789620121651060000,47.28106005859375,0.5858762269049883,0.24405191746950147,-0.2552939539086074
1789620121661033000,47.291032958984374,0.2709516148328781,0.4762906475484371,-0.35945619304217397
1789620121671004700,47.30100463867188,-0.04666296697556972,0.4500450301796198,-0.24948033572640269
1789620121680977000,47.310976806640625,-0.17173837640881537,0.32562779239416123,-0.05293894197251647
1789620121690948900,47.32094897460937,-0.06523147384524346,0.22676585162580012,0.04536346521694213
1789620121700920800,47.3309208984375,0.2704378200918436,0.0841126999258995,0.1957183869332075
1789620121710892800,47.34089282226562,0.6440577822387218,-0.08238894487321376,0.5052475697025657
1789620121720866000,47.350865966796874,0.9242249691843986,-0.16819968088865278,0.9049507251981646
1789620121730837800,47.36083764648438,1.0079197359591723,-0.1702466765463352,1.218525895422697
1789620121740810000,47.37081005859375,0.8756313264071941,-0.13536767086684703,1.407455498998612
1789620121750781700,47.38078173828125,0.5530652596712112,0.017441548666357994,1.4631135272040963
1789620121760754000,47.39075390625,0.11779051312208175,0.16117372777462005,1.4027733325317502
1789620121770727000,47.40072680664063,-0.4130827884852886,0.07127192305326462,1.456525819376856
1789620121780699000,47.410698974609375,-0.9404285004884004,-0.08497720780074595,1.4841085305683315
1789620121790670800,47.4206708984375,-1.3448048354268074,-0.06749415808022022,1.4778887792706488
1789620121800643000,47.43064306640625,-1.5606605859816074,0.14741992771029472,1.4449176530390977
1789620121810614800,47.44061474609375,-1.5582377427488565,0.29512568662464617,1.3308710026204584
1789620121820587000,47.4505869140625,-1.4151117128401993,0.3038093438178301,1.1800799179766326
1789620121830560000,47.46056005859375,-1.2019523617625236,0.1928214964479208,0.9840641555320471
1789620121840531700,47.47053173828125,-0.9763502932190895,0.054803603333234786,0.816092072854191
1789620121850504000,47.48050390625,-0.8004898684442043,-0.006051555123925209,0.6860097219791262
1789620121860476000,47.490475830078125,-0.7717103486835956,0.019465747970342635,0.6226427998967469
1789620121870447900,47.50044775390625,-0.7790981208473443,0.06653846479058265,0.5333695754025131
1789620121880420900,47.5104208984375,-0.7861796035408973,0.08834697649478912,0.3806888045545667
1789620121890392800,47.52039282226563,-0.7702297547370195,0.05094575886130333,0.20770146926427258
1789620121900364800,47.53036474609375,-0.658265171289444,-0.0006675239980220794,-0.006103723702579737
1789620121910337000,47.5403369140625,-0.4702203877240419,-0.02419686814546585,-0.14233789347195996
1789620121920308700,47.550308837890626,-0.15779577577412127,-0.08134674234390259,-0.11346974557982757
1789620121930281000,47.56028100585937,0.13643793044686317,-0.16677169391214847,0.10168519976185635
1789620121940254000,47.57025390625,0.30123101776242256,-0.11044599557816982,0.4657135778240859
1789620121950226000,47.58022583007813,0.35857261514067645,0.009423661905527115,0.776835948069021
1789620121960198000,47.590197998046875,0.28446926805377004,0.07745441108047962,1.0444116567280144
1789620121970169900,47.600169921875,0.04530220001637936,0.0842173293441534,1.2300737098753451
1789620121980141800,47.610141845703126,-0.3209434339702129,0.08911211564838886,1.2683140086814761
1789620121990114800,47.62011474609375,-0.6531032584816217,0.12358838574588298,1.1759406992800534
1789620122000086800,47.63008666992187,-0.8195382677853107,0.13608429470360278,1.1375742898762224
1789620122010058800,47.64005883789063,-0.7666799533009528,0.06354279010593891,1.1396024347029625
1789620122020031000,47.650031005859375,-0.623521774688363,-0.08649053497314453,1.1316615587010979
1789620122030003000,47.6600029296875,-0.5257675029009581,-0.1931529203593731,1.1755162633229046
1789620122039976000,47.66997583007812,-0.5047989491522312,-0.19896949768364428,1.2281525325544178
1789620122049948000,47.67994799804688,-0.5624363146066665,-0.1781593493670225,1.209923998228833
1789620122059920000,47.689919921875,-0.6363444313824177,-0.05546411306858062,1.2562041764318943
1789620122069891800,47.69989184570313,-0.6019184301674365,0.1154004031151533,1.3487623408809304
1789620122079863800,47.70986376953125,-0.5026841489553451,0.2196428678780794,1.409682527398318
1789620122089835800,47.71983569335937,-0.41394320470690726,0.23532266756892203,1.4124414707176387
1789620122099809000,47.72980908203125,-0.44880876638293266,0.16381050601899622,1.3524936363637448
1789620122109780700,47.73978076171875,-0.677400079870224,0.14203297397494316,1.256344753946364
1789620122119753000,47.7497529296875,-0.9110369863092899,0.15692133102715014,1.0292351303841918
1789620122129725000,47.75972485351563,-0.9484574931651353,0.16850597035884857,0.6810048263639211
1789620122139697000,47.76969677734375,-0.6885270385622978,0.08567804954648017,0.3544715364973992
1789620122149670000,47.779669921875,-0.29757132621109483,-0.08286474569141865,0.27778164351601153
1789620122159641900,47.78964184570312,-0.011668225961923599,-0.13451251534223554,0.46545043337587266
1789620122169613800,47.79961376953125,0.15508943942487238,0.019528876334428787,0.7388453131750226
1789620122179586000,47.8095859375,0.22240181119740007,0.22364392021298407,0.9832688404358922
1789620122189557800,47.81955786132813,0.19934651430249212,0.35787644957005976,1.1689310397136956
1789620122199530000,47.829530029296876,0.10835165364742279,0.4003472255527973,1.28147334998399
1789620122209503000,47.8395029296875,0.0033551556468009946,0.36587037093341346,1.2417558182321489
1789620122219474700,47.849474609375,-0.05969254441857338,0.28358313286900516,1.0715635022215544
1789620122229447000,47.85944702148438,0.02907061166167259,0.11396598639786243,0.8909317713916302
1789620122239419000,47.8694189453125,0.0853285054564476,-0.1280892042964697,0.8870510575007646
1789620122249390800,47.87939086914062,-0.05831307275891304,-0.18931494963169096,1.0799936230450868
1789620122259363800,47.88936376953125,-0.39979543688893315,-0.018448095360398292,1.3174097557619213
1789620122269336000,47.89933618164063,-0.7293284200280904,0.23772680610120295,1.4697767844855785
1789620122279307800,47.909307861328124,-0.9202712631225586,0.4213099340826273,1.5847037248700857
1789620122289280000,47.91928002929688,-0.9429647409677505,0.4380699302256107,1.547392669738084
1789620122299251700,47.929251708984374,-0.8848106581628322,0.3333352980315685,1.5107389094710348
1789620122309224000,47.93922387695312,-0.7943956432223319,0.24994682072699068,1.4028458132460713
1789620122319197000,47.94919702148437,-0.640129795140028,0.1809358283430338,1.181211917681247
1789620122329169000,47.9591689453125,-0.4120598751783371,0.12463058827519416,0.9959460242446512
1789620122339140900,47.969140869140624,-0.14284312131404875,0.08509528122246265,0.8985990911491215
1789620122349113000,47.97911303710937,0.04234101212322712,0.0021276596784591674,0.9258238557484001
1789620122359084800,47.989084716796874,-0.02618365804851055,0.022678280276060104,1.1027990368321536
1789620122369057800,47.999057861328126,-0.3382575568646192,0.21082535517215728,1.2797750216335058
1789620122379030000,48.00903002929687,-0.7699573675364255,0.4683393962830305,1.3543161756157873
1789620122389001700,48.019001708984376,-1.1346762303471565,0.6569207709431648,1.3117634204380213
1789620122398974000,48.028973876953124,-1.2645078943967818,0.7018477079063653,1.188693359477818
1789620122408946000,48.03894580078125,-1.0846323887616396,0.5055693490028381,1.0677915094021708
1789620122418918000,48.04891796875,-0.7847919485747814,0.3395394133687019,1.1043776843257247
1789620122428891000,48.058890869140626,-0.4625204808712005,0.3101595896273851,1.1760339305214582
1789620122438862800,48.06886279296875,-0.1991115365028381,0.3700122930437326,1.2489467526495457
1789620122448834800,48.07883471679688,-0.08280044828355312,0.4751549215167761,1.305964817161858
1789620122458807000,48.08880712890625,-0.060392801642417906,0.5452706602722406,1.3430330034486948
1789620122468778800,48.09877880859375,-0.0801958187431097,0.48525487524867056,1.3160387596696614
1789620122478752000,48.108751953125,-0.1279495035648346,0.31821547031104563,1.2366837756648659
1789620122488724000,48.118723876953126,-0.24171616799831389,0.15392740990817547,1.079789917166531
1789620122498696400,48.128696533203126,-0.27186405350267884,0.0174281046628952,0.8370664718218147
1789620122508668400,48.13866845703125,-0.24035890817046163,-0.08245791845619678,0.7513968247774988
1789620122518640600,48.148640625,-0.22167817309796808,-0.17410276745259762,0.8322096794404089
1789620122528612400,48.1586123046875,-0.3069704381972551,-0.18119009536504743,1.0523157809160648
1789620122538585300,48.16858544921875,-0.443625226265192,-0.09392799149751663,1.320957511371374
1789620122548557600,48.1785576171875,-0.5468360098928213,-0.013287351596355437,1.4144545641057193
1789620122558529300,48.188529296875,-0.6166168176054955,-0.05791442883014679,1.3974176507174967
1789620122568501500,48.19850146484375,-0.6822691472113132,-0.12730652948617935,1.375350780338049
1789620122578473200,48.20847314453125,-0.632763065764308,-0.2272504202723503,1.3172490122422575
1789620122588446500,48.21844653320313,-0.49860535520911214,-0.2969137390851974,1.2826827257737516
1789620122598418400,48.22841845703125,-0.34727614510059357,-0.24035832364857196,1.3789067192539572
1789620122608390400,48.23839038085937,-0.21476444818675516,-0.09500000464320182,1.5327373907893895
1789620122618362400,48.2483623046875,-0.23269757976233957,-0.02727554493844509,1.6863970896720886
1789620122628334600,48.25833447265625,-0.533600680744648,0.0529424856364727,1.798049100039154
1789620122638306300,48.26830639648438,-1.0361176564395427,0.24079496150016783,1.7826278051540254
1789620122648279600,48.27827954101563,-1.3850456604003905,0.5020066880851983,1.5660340957134962
1789620122658251500,48.28825146484375,-1.3584680345982312,0.7319768887102603,1.3398694248512386
1789620122668223500,48.29822338867187,-0.9410293889909982,0.7132534835398197,1.159097554898262
1789620122678195500,48.30819555664063,-0.5343851091206073,0.559447654184699,1.1452862524930387
1789620122688167400,48.31816748046875,-0.20692074894905088,0.5400391893595456,1.1803283397797495
1789620122698140400,48.328140380859374,-0.04171732726693153,0.6415349857628345,1.207274068241939
1789620122708112400,48.3381123046875,-0.0340501536399126,0.7951075908839702,1.22560737811625
1789620122718084400,48.34808447265625,-0.18692308605909347,0.9113643185675143,1.2496018555574118
1789620122728056300,48.35805639648437,-0.4747872572481632,0.9539157585710286,1.2030198448635636
1789620122738028500,48.36802856445313,-0.8600701846599579,0.9493757770538329,1.0606434642784297
1789620122748000300,48.37800024414062,-1.1809680259227753,0.9175029674530029,0.8073163534633815
1789620122757973500,48.387973388671874,-1.2602911534845829,0.847154588985443,0.543415972316265
1789620122767945500,48.39794555664062,-0.975409212976694,0.6609890432953834,0.4402067230585962
1789620122777917400,48.40791748046875,-0.4433884948998689,0.3977390888810158,0.5857840916421264
1789620122787889400,48.41788940429687,0.1057283194065094,0.1999012255758047,0.8908278726257384
1789620122797861400,48.427861328125,0.46106385232210156,0.08670213189721107,1.2158413325138389
1789620122807833300,48.43783325195312,0.6138941146433353,0.06862520793676376,1.563528688763827
1789620122817806600,48.447806640625,0.6522773290514946,0.06640928545296192,1.8237873524077235
1789620122827778300,48.4577783203125,0.6202601425439119,0.027114216896891592,1.958516433110088
1789620122837750500,48.46775048828125,0.4969511582612991,-0.04773848725259304,2.0287749413371086
1789620122847722500,48.47772241210937,0.24186989725530147,-0.1548059463083744,2.114495076459646
1789620122857694500,48.48769458007813,-0.1963379801362753,-0.20826164216399193,2.1752584649801254
1789620122867667500,48.49766748046875,-0.7610270421057939,-0.12249123815894127,2.1092513305872678
1789620122877639400,48.507639404296874,-1.161509292215109,-0.00568330633342266,1.945902304600179
1789620122887611400,48.517611328125,-1.2894155411601065,0.07352467041611671,1.8635235888600348
1789620122897583400,48.527583251953125,-1.283101535707712,0.04705810377299785,1.9175316579014061
1789620122907555300,48.53755541992187,-1.47395143982172,0.09041852207183837,2.0247145600304006
1789620122917528300,48.5475283203125,-1.865002429240942,0.3360164999395609,2.0610168765112755
1789620122927500500,48.55750048828125,-2.1104244660198686,0.6970458605825901,2.0224185580477116
1789620122937472300,48.56747216796875,-2.0258394724071023,0.9259510623246431,2.079824745094776
1789620122947444500,48.57744458007812,-1.7259177836775779,1.0199147096574306,2.16161207081303
1789620122957416400,48.58741650390625,-1.2423124292016028,1.0562731402397154,2.129711934813857
1789620122967388400,48.59738842773437,-0.5570066907733678,0.928502500373125,1.9317279410362242
1789620122977361400,48.607361328125,0.13078326568603516,0.6980974154621362,1.5551273556433618
1789620122987333600,48.61733374023437,0.8679314195543527,0.4394786279797554,1.08286223728396
1789620122997305300,48.627305419921875,1.1770406233459711,0.4061433446109295,0.5905974102079868
1789620123007277600,48.63727758789062,0.8983721505254506,0.6588754121422767,0.008725012116879224
1789620123017249300,48.647249267578125,0.818041891747713,0.8135586088538169,-0.26557847042717037
1789620123027222300,48.65722216796875,0.7562222721725702,1.0304285048872233,0.03498568092435598
1789620123037194500,48.667194580078124,0.6519540884464978,1.2431301753252744,0.6520684355411678
1789620123047166500,48.67716650390625,0.6526163517475128,1.3820499857157469,1.1831401823300867
1789620123057138400,48.687138427734375,0.9510726440995931,1.4005845903158187,1.6908244045950471
