time,seconds_elapsed,z,y,x
1789620074411405800,0.04140576171875,6.9333087326049805,7.013364850616455,1.2683283294677734
1789620074421377500,0.05137744140625,7.008127534484863,6.892906579589844,1.2322656669616698
1789620074431350800,0.061350830078125,7.096862633514404,6.780977651977539,1.1962030044555663
1789620074441322800,0.07132275390625,7.125892328643799,6.6820671958923334,1.094299796295166
1789620074451296000,0.0812958984375,7.120206099700927,6.593930647277832,0.8915408432006835
1789620074461268200,0.091268310546875,7.158513326263427,6.4837973709106445,0.6552630668640136
1789620074471241200,0.1012412109375,7.135169860076904,6.372616631317138,0.4387374542236328
1789620074481213200,0.111213134765625,7.067982575988769,6.323086584472656,0.29972412033081053
1789620074491186200,0.121186279296875,7.061997071838379,6.413168421936035,0.26710312271118164
1789620074501158100,0.131158203125,7.159710427093505,6.4172086372375485,0.1997662010192871
1789620074511131100,0.141131103515625,7.259219433593749,6.3037833335876465,0.10504559783935546
1789620074521103000,0.15110302734375,7.400028418731689,6.177339558410644,-0.011671733093261718
1789620074531075300,0.161075439453125,7.702894928741455,6.020968262481689,-0.020949264526367185
1789620074541048000,0.171048095703125,7.998878108978271,5.819556047821044,0.011971008300781249
1789620074551021000,0.18102099609375,7.943063282775879,5.66303511428833,0.018255787658691406
1789620074560993300,0.1909931640625,6.681917558288574,5.342810642242432,-0.4037222549438476
1789620074570965000,0.200965087890625,6.487388673400878,5.347000495147705,-0.438587816619873
1789620074580938000,0.21093798828125,6.527491551208496,5.157559288787842,-0.15771803436279297
1789620074590910200,0.22091015625,6.3441854866027825,5.455487757873535,-0.008978256225585938
1789620074600883200,0.23088330078125,6.572981382751465,5.981463935089111,0.29284079055786133
1789620074610855200,0.240855224609375,6.760626937866211,5.845892266082763,0.512059880065918
1789620074620828200,0.250828125,7.218069092559814,5.457582684326171,0.3386298973083496
1789620074630800100,0.260800048828125,7.874678897857666,5.060743759155273,0.03920505218505859
1789620074640773000,0.270773193359375,8.493430389404296,4.598962113952637,-0.17776947326660156
1789620074650745000,0.2807451171875,8.600870188903809,4.058770364379883,-0.17268179473876952
1789620074660718000,0.290718017578125,8.684218334197997,3.6987422897338864,-0.3354875076293945
1789620074670690000,0.30068994140625,9.259724558258057,3.670460782623291,-0.778265177154541
1789620074680663000,0.3106630859375,9.370157109832762,3.386149335479736,-0.596305850982666
1789620074690635300,0.32063525390625,9.605088147735595,3.4002152702331543,-0.4869207626342773
1789620074700608300,0.330608154296875,10.122385343933106,3.8411972885131833,-0.5978022270202636
1789620074710580200,0.340580322265625,10.510395650482177,4.234295273590088,-0.48467619857788086
1789620074720553200,0.35055322265625,10.767921966552734,4.565443290710449,-0.058657940673828124
1789620074730525200,0.360525146484375,10.784831015777588,5.007173497009277,0.6860884132385253
1789620074740498200,0.370498291015625,10.590002855682373,5.660191999816894,1.435772808074951
1789620074750470100,0.38047021484375,9.924564431762695,5.007622409820557,1.1846809089660644
1789620074760443100,0.390443115234375,9.271246653747559,3.5793314819335937,-0.13721768264770506
1789620074770415000,0.4004150390625,8.808417545318603,5.314978047943115,-0.5304653053283691
1789620074780388000,0.41038818359375,5.664980403137207,7.752873888397216,-0.17836802368164062
1789620074790360300,0.4203603515625,1.7761983566284179,9.639953709411621,-0.3176806327819824
1789620074800333000,0.4303330078125,4.039018200683594,7.3837179199218745,0.6844423995971679
1789620074810305000,0.440304931640625,5.487510205078125,5.907243683624268,0.49859249572753905
1789620074820278300,0.4502783203125,4.189852905273438,5.271583142852783,-0.37918168792724605
1789620074830250000,0.46025,3.432686630249023,4.358943397521973,-0.5074211143493652
1789620074840223000,0.470222900390625,4.501697671508789,3.21137261428833,-0.5137058937072754
1789620074850195200,0.4801953125,5.336076950073242,2.4990976203918454,-0.40761283264160153
1789620074860168200,0.490168212890625,7.5519105865478515,3.6031238609313965,-0.4682160621643066
1789620074870140200,0.50014013671875,10.262296503448486,2.7838579803466796,-0.7601590270996094
1789620074880113200,0.510113037109375,10.638335801696776,1.7024270179748535,-1.8664298316955565
1789620074890085000,0.520085205078125,10.243142890167237,2.384624853515625,-4.422090466308593
1789620074900058000,0.53005810546875,10.014646269226073,3.8112697677612304,-6.985532256317138
1789620074910030000,0.540030029296875,10.088567245483398,4.600608127593994,-6.199785198974609
1789620074920003000,0.550003173828125,9.693523971557617,4.246415919494629,-2.4762030670166015
1789620074929975000,0.55997509765625,9.162759391021728,3.7357027778625485,0.9989806427001953
1789620074939948000,0.569947998046875,9.048585899353027,4.403236128234863,2.2960393920898436
1789620074949920300,0.579920166015625,9.66673884048462,5.42032292098999,2.6816554969787596
1789620074959893200,0.589893310546875,11.5810527053833,5.664082577514648,3.050961103057861
1789620074969865000,0.599864990234375,10.874015027618407,4.94193150177002,3.117549836730957
1789620074979838200,0.609838134765625,10.605565166473388,4.846462710571289,3.265691064453125
1789620074989810200,0.61981005859375,10.430788445281982,5.431246466064453,3.563619533538818
1789620074999783000,0.629782958984375,8.98259571609497,5.856217260742187,3.602525310516357
1789620075009755100,0.639755126953125,7.766640547943115,5.998522621917724,3.4816181266784665
1789620075019728100,0.64972802734375,7.3575313392639154,5.829581767272949,3.545962296295166
1789620075029700000,0.6597001953125,7.815721681976318,5.6474728034973145,3.9438486846923824
1789620075039673000,0.669673095703125,8.84208600616455,5.574748928070068,4.527285701751708
1789620075049645300,0.679645263671875,9.745448220062256,5.4984337501525875,5.082590849304199
1789620075059618300,0.689618408203125,10.585663365173339,5.316324786376953,5.4227171226501465
1789620075069590000,0.699590087890625,10.887332774353027,5.050568402099609,5.440972910308838
1789620075079563300,0.709563232421875,10.685920559692383,4.832247138214111,5.0556560806274415
1789620075089535200,0.71953515625,10.160842208099364,4.833743514251709,4.461295518493652
1789620075099508000,0.729508056640625,9.78779566192627,4.841375032043457,4.097975416564942
1789620075109480200,0.739480224609375,9.565883095550536,4.791246434783935,3.8717233596801757
1789620075119452200,0.7494521484375,9.323320539855956,4.790797521972656,3.705924894714355
1789620075129425200,0.759425048828125,8.831461736297607,4.929511580657959,3.6912604095458983
1789620075139398100,0.769398193359375,8.578574185943603,5.046677824401855,3.97751714553833
1789620075149370000,0.7793701171875,8.722974473571776,4.962132578277588,4.1566333572387695
1789620075159342000,0.789342041015625,8.738985697174071,4.768651156616211,3.9062896461486813
1789620075169315000,0.799315185546875,8.707412162780761,4.050989208984375,3.4044051231384276
1789620075179287300,0.809287353515625,8.728810340118407,4.487033186340332,3.611503566741943
1789620075189260300,0.81926025390625,8.373421031188965,5.078999546813964,4.142717060089111
1789620075199232000,0.82923193359375,7.440131296539306,5.102343013000488,4.2305543334960936
1789620075209205200,0.839205322265625,6.450577822875976,5.412541765594482,3.9604584587097165
1789620075219177200,0.84917724609375,6.007051965332031,5.511452221679687,3.787028475952148
1789620075229150000,0.85914990234375,6.219537362670898,5.205293684387207,3.680037589263916
1789620075239122200,0.8691220703125,6.867767462158203,4.728548278808593,3.3590649291992185
1789620075249095200,0.87909521484375,7.020547455596923,4.468178848266601,3.2103251510620114
1789620075259067100,0.889067138671875,7.135319497680664,4.135534455108642,3.2597055603027343
1789620075269040000,0.8990400390625,7.231536476898193,4.101417081451416,3.2359131813049316
1789620075279012000,0.90901220703125,6.9995981910705565,4.294299952697753,3.36445188293457
1789620075288985300,0.9189853515625,6.847117472839355,4.4936172409057615,3.8625954658508297
1789620075298957000,0.92895703125,7.06094960861206,4.687697212982178,4.395155697631836
1789620075308930000,0.938929931640625,7.384466107940673,4.730343930053711,4.597166462707519
1789620075318902300,0.94890234375,7.097760459136962,4.579808500671386,4.480598769378662
1789620075328875000,0.958875,6.2678703086853025,4.545092576599121,4.087800059509277
1789620075338847200,0.96884716796875,6.057180562591553,4.272303224945068,3.699789752960205
1789620075348820200,0.9788203125,6.325929698944091,4.202721739196777,3.3981203437805174
1789620075358792200,0.988792236328125,6.453720212554932,4.578162487030029,3.509600358581543
1789620075368765200,0.99876513671875,6.508637213134765,4.862773209381103,4.02854356842041
1789620075378737200,1.008737060546875,6.752696144866943,5.044732535552979,4.188955079650879
1789620075388710100,1.018710205078125,6.815244663238525,4.968566995239257,4.206163404083251
1789620075398682000,1.02868212890625,6.6343328002929685,4.967818807220459,4.217835137176514
1789620075408655000,1.038655029296875,6.425139430236816,5.15830747680664,4.420743727874756
1789620075418627000,1.048626953125,6.166416013336181,5.4421700111389155,4.492420140075684
1789620075428600000,1.05860009765625,5.660341637420654,5.576694216918945,4.411017283630371
1789620075438572300,1.068572265625,5.487510205078125,5.594351454162597,4.30312857131958
1789620075448544800,1.078544677734375,5.655253958892822,5.640888748931885,4.318092331695556
1789620075458516500,1.0885166015625,6.0519432464599605,5.727678559112548,4.466682472229004
1789620075468489700,1.09848974609375,6.570287905883789,5.720645591735839,4.4960114425659174
1789620075478461700,1.108461669921875,7.096712995910644,5.622483323669433,4.355052819824219
1789620075488434400,1.118434326171875,7.488464242553711,5.493495709228515,4.141968872070312
1789620075498406700,1.12840673828125,7.64812756576538,5.462071812438965,4.091989912414551
1789620075508379600,1.138379638671875,7.803750673675537,5.580734432220459,4.310760089111328
1789620075518351600,1.1483515625,8.07594147491455,5.772420202636718,4.363282888031006
1789620075528324600,1.15832470703125,8.474127138519286,5.588665225219726,4.173542406463623
1789620075538296600,1.168296630859375,8.845826946258544,5.409249738311767,3.8941690002441405
1789620075548269800,1.178269775390625,8.953865296173095,5.491700057983398,3.8914755233764646
1789620075558241500,1.188241455078125,8.692298764801025,5.734711526489257,4.035875811004638
1789620075568214500,1.198214599609375,8.390180442810058,5.9302878746032714,4.195688771820068
1789620075578186800,1.208186767578125,8.361300385284423,5.969792201995849,4.24506918106079
1789620075588159500,1.218159423828125,8.553734343719482,5.866242980194092,4.037222549438476
1789620075598131700,1.228131591796875,8.622418003845214,5.6474728034973145,3.6451720275878903
1789620075608104700,1.238104736328125,8.34454097366333,5.5072623687744136,3.3316812477111815
1789620075618076700,1.24807666015625,7.921964380645751,5.467159490966797,3.180547267913818
1789620075628049700,1.258049560546875,7.579294268035889,5.51594134979248,3.2326211540222167
1789620075638021600,1.268021728515625,7.477989610290527,5.572504364013671,3.404554760742187
1789620075647995000,1.277994873046875,7.3751885765075675,5.616647457122802,3.424456562042236
1789620075657966600,1.287966552734375,7.107486903381347,5.5355438758850095,3.283946852111816
1789620075667939600,1.297939697265625,6.710797615814209,5.3950341659545895,3.1299697578430172
1789620075677911600,1.30791162109375,6.385335827636719,5.355829113769531,3.1664813331604003
1789620075687883500,1.317883544921875,6.217741711425781,5.3883004737854,3.2960674980163573
1789620075697856800,1.327856689453125,6.190657305145264,5.338620789337158,3.441664886474609
1789620075707828500,1.337828369140625,6.347776789093017,5.200206005859375,3.3729812263488768
1789620075717801500,1.347801513671875,6.701669721984863,4.934599259185791,3.1865327720642087
1789620075727773700,1.357773681640625,7.056460480499267,4.8056116447448725,3.062632836151123
1789620075737746700,1.36774658203125,7.244255673217773,4.771344633483887,3.163338943481445
1789620075747718700,1.37771875,7.506121479797363,4.776581949615478,3.3509844985961914
1789620075757691600,1.387691650390625,7.725939119720459,4.746504791259765,3.2882863426208493
1789620075767663600,1.39766357421875,7.5348518997192375,4.7083472023010255,3.0547020431518552
1789620075777636600,1.40763671875,7.294683545684814,4.74321276397705,3.034500966644287
1789620075787608600,1.417608642578125,7.29767629776001,4.848407999420166,3.3255461059570313
1789620075797581600,1.42758154296875,7.458387084197998,4.937592011260986,3.590255027008056
1789620075807553500,1.437553466796875,7.497741773986816,4.909909054565429,3.642179275512695
1789620075817526500,1.447526611328125,7.28420891342163,4.877138419342041,3.6361937713623043
1789620075827498800,1.457498779296875,6.945878291320801,4.895843119812011,3.665672379302978
1789620075837471700,1.4674716796875,6.589591156768798,4.866514149475098,3.6930560607910152
1789620075847443500,1.477443359375,6.387430754089355,4.809951135253906,3.762787184143066
1789620075857416700,1.487416748046875,6.293458338928223,4.805761282348633,3.9158664527893063
1789620075867388700,1.497388671875,6.146065299224853,4.72435842590332,3.906140008544922
1789620075877361700,1.507361572265625,5.852027407836914,4.4850878974914545,3.666570204925537
1789620075887333600,1.517333740234375,5.42017328338623,4.283376407623291,3.384353684234619
1789620075897306600,1.527306640625,5.061940859985351,4.205564853668212,3.3056443046569823
1789620075907278600,1.537278564453125,4.849006549835205,4.113837002563477,3.4012627334594723
1789620075917251600,1.54725146484375,4.8138417129516595,3.95806425704956,3.545064470672607
1789620075927223800,1.557223876953125,4.806210195159911,3.828777367401123,3.590404664611816
1789620075937196800,1.56719677734375,4.696525831604004,3.6393361610412596,3.5329438247680662
1789620075947168500,1.57716845703125,4.518457083129882,3.442263436889648,3.4106899024963377
1789620075957141800,1.587141845703125,4.567089304351806,3.1995512435913085,3.3182138633728027
1789620075967113700,1.59711376953125,4.786158756256103,2.9180829109191895,3.2130186279296873
1789620075977086500,1.60708642578125,4.890007253265381,2.7756279121398926,3.1753099517822263
1789620075987058700,1.61705859375,4.648641798400878,1.990629042816162,3.3337761741638183
1789620075997031700,1.62703173828125,4.436754951477051,2.19638074798584,2.7819126914978027
1789620076007003600,1.637003662109375,4.556165759277343,2.5192986968994138,2.455253802490234
1789620076016976600,1.6469765625,5.3865048225402825,1.8869301834106444,2.9516017341613767
1789620076026948600,1.656948486328125,5.828983216857909,1.1161468864440918,4.018368211364746
1789620076036921900,1.666921875,6.746411365509033,1.7839795120239257,4.797830489349365
1789620076046893600,1.6768935546875,7.586476873016357,2.019509100341797,5.342212091827392
1789620076056866600,1.686866455078125,7.434594705200195,1.882740330505371,6.110750824737549
1789620076066838800,1.6968388671875,7.41244833984375,2.4111107093811035,6.4454901443481445
1789620076076811500,1.7068115234375,7.507019305419921,2.7673978439331055,6.777535987091064
1789620076086783700,1.71678369140625,7.391648712921143,2.5891794578552245,7.157914775848388
1789620076096756700,1.7267568359375,6.964433354187011,2.4561516281127926,6.978499288940429
1789620076106728400,1.736728515625,6.330269189453125,2.5802012016296385,6.8028247421264645
1789620076116701700,1.74670166015625,5.65001664276123,2.7473464050292966,6.770802294921874
1789620076126673700,1.756673583984375,4.908113403320312,2.7617116149902343,7.044639109802246
1789620076136646700,1.766646728515625,4.159476471710205,2.7864018196105955,7.575852603149413
1789620076146618600,1.77661865234375,3.73480495223999,2.8311434631347656,7.945457484436035
1789620076156591600,1.786591552734375,3.3988685317993164,2.6972178077697753,7.965658560943603
1789620076166563800,1.796563720703125,2.9722517234802246,2.1505916412353514,7.725939119720459
1789620076176536600,1.80653662109375,2.760514514160156,1.3319243110656738,7.605031935882568
1789620076186508500,1.816508544921875,2.724451851654053,0.5609913764953613,7.416937467956543
1789620076196480800,1.826480712890625,2.8734909049987793,-0.08259995727539061,7.39913059310913
1789620076206453500,1.83645361328125,2.967612957763672,-0.6105214233398437,7.6936173973083495
1789620076216425700,1.84642578125,2.563441790008545,-0.7963713272094726,7.944559658813476
1789620076226398700,1.856398681640625,1.7305588874816893,-0.9662100074768066,8.33750800628662
1789620076236370700,1.86637060546875,0.9590274024963379,-1.2597989860534666,8.429984045410155
1789620076246343700,1.87634375,0.2932897033691406,-1.7146973014831541,8.087014657592773
1789620076256315600,1.886315673828125,-0.21248539733886718,-2.233341236114502,7.6005428077697745
1789620076266288600,1.89628857421875,-0.4686649749755859,-2.634818927001953,7.604882298278808
1789620076276260600,1.906260498046875,-0.4842272857666015,-2.699312734222412,8.608950619506835
1789620076286233600,1.916233642578125,-0.38845921936035155,-2.392256371307373,10.124779545593261
1789620076296205600,1.92620556640625,-0.05880757827758789,-1.943343560028076,11.806107661437988
1789620076306178600,1.936178466796875,0.2647089210510254,-1.925536685180664,13.006350881195068
1789620076316150800,1.94615087890625,0.5264250900268554,-2.6129718368530273,13.303082249450682
1789620076326123800,1.956123779296875,0.9394248764038086,-3.328089945220947,12.424260602569579
1789620076336095500,1.966095458984375,1.4929343727111815,-3.441664886474609,11.346121667480467
1789620076346068700,1.97606884765625,2.064550019073486,-3.6879683822631835,10.671106436920166
1789620076356040700,1.986040771484375,1.8445827415466307,-3.9728783798217773,10.903343997955321
1789620076366013400,1.996013427734375,1.55772745513916,-4.102314907073974,11.340285800933838
1789620076375985700,2.005985595703125,1.3147159866333007,-4.157980095672607,11.999738720703125
1789620076385958700,2.015958740234375,1.050156703186035,-2.9875147590637203,13.205069618988036
1789620076395930600,2.0259306640625,-0.3093009269714355,-1.7772458198547363,14.720000719451903
1789620076405903600,2.035903564453125,-0.873434693145752,-3.271826206207275,15.525649578094482
1789620076415875600,2.04587548828125,-0.8251017471313477,-3.922600144958496,13.832649729156493
1789620076425848800,2.055848876953125,-0.6066308456420898,-1.8888754722595213,13.016975151062011
1789620076435820500,2.065820556640625,0.3945943611145019,-3.0520085662841794,14.262558564758299
1789620076445793500,2.07579345703125,0.02693476867675781,-2.6274866844177245,15.095441467285156
1789620076455766800,2.085766845703125,0.19422960968017577,-1.2668319534301757,15.480159746551513
1789620076465739800,2.09573974609375,-0.24016835403442383,-1.423053611755371,16.237326021575928
1789620076475711500,2.10571142578125,-0.7933785751342773,-0.5566518859863281,17.15969221115112
1789620076485684700,2.115684814453125,-0.13482348098754882,-0.9190741622924804,16.268600280761717
1789620076495656700,2.12565673828125,0.8361749298095703,-0.7589619262695312,14.880412230682373
1789620076505629400,2.13562939453125,1.3371616271972655,-0.6579565437316894,13.80900698776245
1789620076515601700,2.1456015625,1.4254478134155273,-0.8758288948059082,13.640365408325195
1789620076525574700,2.15557470703125,0.7920318367004394,-0.26007015533447264,13.684209226226805
1789620076535546600,2.165546630859375,-0.5787982513427734,0.28700492401123046,14.084938729095459
1789620076545519600,2.17551953125,-2.0157681602478026,0.591816722869873,14.431798694610595
1789620076555491600,2.18549169921875,-2.445826633453369,0.9193734375,13.993510153198242
1789620076565464800,2.19546484375,-2.252494849395752,1.3998597831726074,14.04543440170288
1789620076575436500,2.2054365234375,2.222866603851318,0.23822306518554687,13.08835228805542
1789620076585409500,2.215409423828125,4.278737641906738,0.45983635635375975,12.96564945297241
1789620076595381800,2.2253818359375,2.5302222419738767,0.40402153015136716,13.085060260772705
1789620076605354500,2.2353544921875,0.5858312187194824,1.0992378372192382,12.981810314178466
1789620076615326700,2.24532666015625,-1.3045406295776367,1.5797241828918456,12.609960868835449
1789620076625299700,2.2552998046875,-1.6445172653198241,1.484405029296875,12.252925546264647
1789620076635271400,2.265271484375,-2.146850701141357,1.3367127143859863,12.052111882019043
1789620076645244700,2.27524462890625,-2.353051319122314,1.3859434860229491,12.003330023193358
1789620076655216600,2.285216552734375,-3.394529041290283,1.6874632575988768,12.039841598510742
1789620076665189600,2.295189697265625,-5.894674124908447,1.913266401672363,11.699565687561034
1789620076675161600,2.30516162109375,-6.975506536865234,2.2993314193725585,11.436053867340087
1789620076685134600,2.315134521484375,-4.329464789581299,2.152387292480469,11.314398495483397
1789620076695106800,2.32510693359375,-1.8161515968322752,1.5882535263061524,10.848127722167968
1789620076705079600,2.33507958984375,-2.0629040054321286,1.3497311859130858,9.470863217163085
1789620076715051800,2.3450517578125,-3.5227684677124023,0.9503484214782715,8.692448402404784
1789620076725024800,2.355024658203125,-2.576609899139404,0.6411971321105957,8.821585654449462
1789620076734996500,2.36499658203125,-2.0049942527770996,-0.07945756759643555,8.115894715118408
1789620076744969700,2.3749697265625,-2.925714428710937,-0.20844518203735352,8.607454243469238
1789620076754941700,2.384941650390625,-2.9282582679748534,-0.6274304725646972,8.804676605224609
1789620076764914700,2.394914794921875,-2.618209152984619,-1.504755743408203,8.240243563842773
1789620076774886700,2.40488671875,-2.8746880058288573,-1.043273373413086,9.0788126953125
1789620076784859600,2.414859619140625,-3.2644939636230466,0.015562310791015624,11.379191577911376
1789620076794832000,2.424831787109375,-2.4142530990600584,-0.776319888305664,12.874220877075194
1789620076804803600,2.434803466796875,-1.0260650489807128,-0.7679401824951172,12.943802362823485
1789620076814776600,2.444776611328125,-1.0941501586914062,-1.1751041023254394,11.269956127166747
1789620076824748800,2.454748779296875,-2.5866356185913086,-0.5626373901367188,11.256937655639648
1789620076834721500,2.464721435546875,-1.2267290756225586,-1.1722609878540038,10.167725537872315
1789620076844693800,2.47469384765625,0.10878653793334961,-2.9037177009582518,9.214833277130126
1789620076854666800,2.484666748046875,-0.23044190979003906,-3.142240041351318,8.795548711395263
1789620076864638500,2.494638427734375,0.08334814529418945,-4.319738345336914,7.436689631652832
1789620076874611700,2.50461181640625,-0.2733879020690918,-5.013308638763427,6.464793395233154
1789620076884583700,2.514583740234375,-0.005985504150390624,-4.100519255828857,8.375067044830322
1789620076894556400,2.524556396484375,0.13063362808227538,-6.103867494964599,7.902361854553222
1789620076904528600,2.534528564453125,-0.5205892234802246,-5.23492192993164,7.72459238128662
1789620076914501600,2.544501708984375,-1.7417817077636717,-3.630806817626953,8.742576999664307
1789620076924473600,2.5544736328125,-1.4238017997741699,-4.267814096832275,8.077737126159667
1789620076934446600,2.564446533203125,-1.019630632019043,-3.8208465744018554,7.580940281677246
1789620076944418600,2.57441845703125,-1.3555670524597168,-2.5514707817077635,8.403198914337157
1789620076954391800,2.584391845703125,-1.364994221496582,-1.8870798210144042,8.622268366241455
1789620076964363500,2.594363525390625,-1.2650363021850586,-1.060481697845459,8.049904531860351
1789620076974336500,2.60433642578125,-1.2735656455993651,-0.2576759536743164,7.711723547363281
1789620076984308700,2.614308837890625,-1.4661492416381836,0.8626607856750488,8.454225337219238
1789620076994281500,2.624281494140625,-1.7431284461975096,2.0233996780395507,9.715071786499022
1789620077004253700,2.634253662109375,-1.9268834236145018,2.154631856536865,10.104578469085693
1789620077014226700,2.644226806640625,-1.6772879005432129,1.6786346389770508,9.10978767929077
1789620077024198700,2.65419873046875,-1.7015291923522948,2.1000141311645506,9.114127169799804
1789620077034171600,2.664171630859375,-1.6328455322265625,2.5094226150512693,9.643694649505616
1789620077044143600,2.6741435546875,-1.0166378799438476,1.4347253448486328,9.193884012603759
1789620077054116600,2.68411669921875,-0.1096843635559082,0.3737947341918945,7.677456536102294
1789620077064088600,2.694088623046875,-0.034715924072265626,0.7638999671936034,7.297526660156249
1789620077074061600,2.7040615234375,-1.9002479301452635,0.4294599227905273,8.1724577293396
1789620077084033800,2.71403369140625,-2.308459313201904,-1.5168763893127442,6.5689411674499505
1789620077094006500,2.724006591796875,-1.7817349479675293,-2.549675130462646,5.684582929229736
1789620077103978800,2.733978759765625,-1.4707880073547361,-3.4337340934753415,6.359747797393799
1789620077113951700,2.74395166015625,-1.9403508079528808,-3.0725089179992673,8.367734802246094
1789620077123923500,2.75392333984375,-2.5450363647460934,-2.21538472366333,9.83223803024292
1789620077133896700,2.763896728515625,-2.871096703338623,-2.0418051033020017,9.845256501770018
1789620077143868700,2.77386865234375,-2.9692589714050293,-1.7114052742004393,9.446921200561523
1789620077153841700,2.783841552734375,-2.71951381072998,-1.4281412902832031,9.133280783081053
1789620077163813600,2.793813720703125,-2.3964462242126463,-1.1658265708923339,8.827122245788575
1789620077173786600,2.80378662109375,-2.259378179168701,-0.4929062667846679,9.239224206542968
1789620077183758800,2.8137587890625,-2.2563854270935058,0.15292963104248045,10.55259345474243
1789620077193731600,2.823731689453125,-2.2563854270935058,0.5065232887268066,11.567286045837402
1789620077203703600,2.83370361328125,-2.375796234893799,0.3821744400024414,11.500398036956787
1789620077213676800,2.8436767578125,-2.3657705154418944,0.23567922592163085,11.246463023376464
1789620077223648500,2.8536484375,-2.1721394561767577,0.14080898513793944,11.180622477722167
1789620077233621500,2.86362158203125,-1.6238672760009765,-0.222810391998291,10.575039095306396
1789620077243593700,2.87359375,-1.345092420196533,-0.5497685562133788,9.93967782974243
1789620077253566700,2.883566650390625,-1.85146607131958,-0.7362170104980469,9.737218151855469
1789620077263538700,2.89353857421875,-2.146252150726318,-0.838868406677246,9.72330185470581
1789620077273511700,2.90351171875,-2.127846725463867,-0.5403413871765136,10.589853218078613
1789620077283483600,2.913483642578125,-2.24097275390625,-0.30301614761352536,11.742062767028807
1789620077293456600,2.92345654296875,-2.079214504241943,0.09352350234985352,13.002909216308593
1789620077303428600,2.9334287109375,-1.9897312171936035,0.07945756759643555,12.535142066955565
1789620077313401600,2.943401611328125,-2.1746832954406736,-0.5169979209899902,10.991779821777342
1789620077323373600,2.95337353515625,-2.364872689819336,-1.20667763671875,9.177124600982665
1789620077333346600,2.9633466796875,-2.255637239074707,-1.5120879859924317,8.431330783843993
1789620077343318800,2.97331884765625,-2.0521300979614256,-1.4555249717712402,8.581716575622558
1789620077353291800,2.983291748046875,-2.066794583129883,-1.1345523117065428,8.784176253509521
1789620077363263500,2.993263427734375,-2.2839187461853028,-0.8604162216186523,8.738686421966552
1789620077373236700,3.00323681640625,-2.7926865989685057,-0.9159317726135253,8.20971749267578
1789620077383208700,3.013208740234375,-2.916137622070312,-1.0449193870544433,7.8715365081787105
1789620077393181400,3.023181396484375,-2.459144380187988,-0.8804676605224608,8.249221820068358
1789620077403153700,3.033153564453125,-1.8592472267150877,-0.44547114639282226,8.66282015686035
1789620077413125600,3.043125732421875,-1.399410870361328,-0.3413233741760254,8.311171788024902
1789620077423098600,3.0530986328125,-1.1270704315185547,-0.29613281784057616,7.730877160644531
1789620077433070600,3.063070556640625,-1.0489596023559569,-0.17956512451171874,7.15671767501831
1789620077443043600,3.073043701171875,-1.1339537612915038,-0.19318214645385742,6.727856302642822
1789620077453015300,3.083015380859375,-1.168968960571289,0.14918869094848633,6.042665715026855
1789620077462988300,3.09298828125,-1.1768997535705565,0.23178864822387693,5.932831713867187
1789620077472960300,3.102960205078125,-0.7761702507019043,-0.16310498809814453,6.52479807434082
1789620077482933200,3.112933349609375,-0.6200982299804687,-1.1860276473999023,7.159111876678466
1789620077492905500,3.122905517578125,-0.7013514488220215,-1.4618097511291503,9.141361213684082
1789620077502878200,3.132878173828125,-0.43454760131835934,-1.3667898727416992,10.430189894866944
1789620077512850200,3.14285009765625,0.4299088356018066,-1.2957120109558105,13.249661624908446
1789620077522823400,3.152823486328125,0.5961562133789062,-0.5175964714050293,15.333514894866942
1789620077532795100,3.162795166015625,-0.020500351715087888,-0.7562684494018554,14.05231773147583
1789620077542768000,3.17276806640625,-0.3817255271911621,-1.8770541015625,12.865990808868407
1789620077552740400,3.182740234375,-0.314089330291748,-2.5258827514648434,12.773215494537352
1789620077562713000,3.192713134765625,-0.36152445068359373,-2.8693010520935056,12.81975278930664
1789620077572685300,3.202685302734375,-0.27144261322021485,-3.187580235290527,12.657844902038573
1789620077582658300,3.212658203125,-0.388159944152832,-3.384054409027099,11.170297483062743
1789620077592630300,3.22263037109375,-0.8869020774841309,-3.6528035453796384,9.470264666748045
1789620077602603300,3.232603271484375,-0.8539818046569824,-3.6891654830932614,9.771036250305174
1789620077612575200,3.2425751953125,-0.0857423469543457,-3.381809844970703,10.377218183135986
1789620077622548200,3.25254833984375,0.29284079055786133,-3.316118936920166,11.099967809295654
1789620077632520200,3.262520263671875,0.3848679168701172,-3.0545524055480957,11.726051543426513
1789620077642493200,3.2724931640625,0.39983167724609375,-3.2344168052673337,11.13468373336792
1789620077652465400,3.28246533203125,0.5026327110290527,-3.846584242248535,9.490914656066893
1789620077662438100,3.292438232421875,0.7649474304199219,-4.254945262908936,8.812607398223877
1789620077672410400,3.302410400390625,0.8141782020568847,-4.117129029846192,9.229048849487304
1789620077682383400,3.31238330078125,0.42796354675292964,-3.572448152160644,9.802160871887207
1789620077692355000,3.32235498046875,0.03232172241210937,-2.943820578765869,10.42540149154663
1789620077702328300,3.332328369140625,0.33698388366699217,-2.8570307685852048,10.952874044799804
1789620077712300300,3.34230029296875,0.9778817405700683,-2.927809355163574,12.045078914642334
1789620077722273300,3.352273193359375,1.2161048057556152,-2.901772412109375,12.25771394958496
1789620077732245200,3.362245361328125,1.0663175643920897,-3.1555577880859373,11.25559091720581
1789620077742218200,3.37221826171875,0.8813654861450195,-3.3324294357299804,10.714351704406738
1789620077752190500,3.3821904296875,0.6892308029174804,-2.8893524909973145,10.638036526489257
1789620077762163200,3.3921630859375,0.5422866760253906,-2.4597429306030274,10.001478160095214
1789620077772135200,3.40213525390625,0.5262754524230957,-2.01112939453125,9.157522074890137
1789620077782108400,3.4121083984375,0.2967313682556152,-1.0962450851440428,8.212710244750976
1789620077792080100,3.422080078125,0.6241384452819824,-0.567575431060791,7.442375860595702
1789620077802053000,3.43205322265625,1.8388965126037597,0.26665420989990235,8.668356748199463
1789620077812025300,3.442025390625,2.658461668395996,-0.30316578521728516,8.867075485992432
1789620077821998300,3.451998291015625,2.655319278717041,-1.172111350250244,8.905681987762451
1789620077831970300,3.46197021484375,2.7283424293518066,-2.088192760467529,10.497975729370117
1789620077841943300,3.471943359375,2.6626515213012696,-3.1298201202392577,11.990910102081298
1789620077851915300,3.481915283203125,2.795529713439941,-4.000262061309814,12.484564556884765
1789620077861888300,3.49188818359375,2.4060230308532713,-4.923675714111328,11.580454154968262
1789620077871860200,3.501860107421875,1.572541577911377,-5.795314756011963,10.275763887786864
1789620077881833200,3.511833251953125,0.89378540725708,-6.216694248199462,9.870395619201659
1789620077891805200,3.52180517578125,0.40581718139648437,-6.069151570892334,9.854833308410644
1789620077901778200,3.531778076171875,0.1610100616455078,-5.984157411956787,10.420912363433837
1789620077911750400,3.54175048828125,0.6548141540527344,-5.382913520050049,11.236886216735838
1789620077921723400,3.551723388671875,1.1596914291381835,-4.690689965057373,12.783540489196776
1789620077931695000,3.561695068359375,1.3082815696716308,-3.186383134460449,14.414291094970702
1789620077941668400,3.57166845703125,1.7929577682495117,-2.842216645812988,14.190133964538573
1789620077951640300,3.581640380859375,2.2041619033813475,-3.6921582351684568,12.266093655395506
1789620077961613000,3.591613037109375,1.5378256538391113,-5.103091201019287,9.649380878448486
1789620077971585300,3.601585205078125,1.0619780738830567,-5.627421364593506,7.871237232971191
1789620077981558300,3.611558349609375,0.31693244476318355,-5.816862570953369,6.699125882720947
1789620077991530200,3.6215302734375,-0.5282207412719726,-5.5844753723144525,7.197718378448486
1789620078001503200,3.631503173828125,-0.9121908325195311,-5.372887800598145,8.156596143341064
1789620078011475200,3.64147509765625,-1.748665037536621,-5.613505067443847,7.311442957305908
1789620078021448400,3.651448486328125,-1.8179472480773924,-5.442020373535156,6.4225955909729
1789620078031420200,3.661420166015625,-1.1394903526306153,-5.143194078826904,5.308393993377686
1789620078041393400,3.671393310546875,-0.8662520881652832,-5.1234419151306145,3.4350808319091795
1789620078051365400,3.681365478515625,-1.087865379333496,-5.03725065536499,1.4534300453186035
1789620078061338000,3.691338134765625,-2.777722838592529,-4.931756144714355,0.2561795776367187
1789620078071310300,3.701310302734375,-6.962039152526855,-4.963329679107666,-0.9657610946655273
1789620078081283300,3.711283447265625,-7.658003647613525,-3.591601765441894,-1.9963152717590331
1789620078091255300,3.72125537109375,-9.201066617584228,-2.0211551139831543,-2.025195329284668
1789620078101228300,3.731228271484375,-6.393416258239745,-0.9039607643127441,1.149216796875
1789620078111200300,3.7412001953125,-2.7123312057495115,1.2288240020751953,5.01166262512207
1789620078121173500,3.751173583984375,0.6189011291503906,2.943820578765869,7.786392711639404
1789620078131145200,3.761145263671875,4.313303928375244,3.666270929718017,9.07222864074707
1789620078141118200,3.7711181640625,6.064512805175781,4.033331971740722,8.537124569702147
1789620078151090200,3.781090087890625,5.708225670623779,4.222773178100586,6.731597242736816
1789620078161063200,3.791063232421875,5.073462955474853,3.605966975402832,5.861753852081298
1789620078171035400,3.801035400390625,4.777330137634277,3.1358056243896484,8.583063314056396
1789620078181008400,3.81100830078125,5.333832386016845,3.0737060188293457,11.846360176849364
1789620078190980000,3.82097998046875,6.985382618713379,1.478569162750244,11.915792024993896
1789620078200953300,3.830953369140625,8.16617294998169,-0.26485855865478514,10.606313354492187
1789620078210925300,3.84092529296875,7.408707399749756,-1.786224076080322,10.249876582336425
1789620078220898000,3.85089794921875,5.647323165893554,-1.5159785636901855,8.294711651611328
1789620078230870300,3.860870361328125,5.016301390838623,-1.798494359588623,6.36498511352539
1789620078240843300,3.87084326171875,4.301931470489501,-4.8397290184021,6.383390538787841
1789620078250815200,3.880815185546875,3.3755250656127926,-7.959373781585693,7.68015001296997
1789620078260788200,3.890788330078125,2.4199393280029295,-8.626158943939208,9.80679963760376
1789620078270760200,3.90076025390625,1.8043302261352538,-7.982567610168457,12.121543730163573
1789620078280733400,3.9107333984375,1.4534300453186035,-7.82709413986206,13.504344826507568
1789620078290705200,3.920705078125,1.589001714324951,-6.854748990631103,15.361347489166258
1789620078300677400,3.930677490234375,1.1317091972351074,-5.98879617767334,15.50021118545532
1789620078310650400,3.940650390625,0.3082534637451172,-6.963236253356933,13.670143291473387
1789620078320622000,3.9506220703125,0.4966472068786621,-9.248950650787354,11.983877134704588
1789620078330595300,3.96059521484375,0.8230068206787109,-10.375123256683349,10.940603761291504
1789620078340567300,3.9705673828125,0.8930372192382812,-10.031256043243408,10.908282038879394
1789620078350540300,3.980540283203125,0.9891045608520507,-9.802011234283446,11.76660333404541
1789620078360512300,3.99051220703125,0.7989151664733887,-9.062352558898926,13.077728018188475
1789620078370485200,4.0004853515625,0.7299322311401367,-8.304438095855712,13.890559481811522
1789620078380457200,4.010457275390625,0.35883097381591794,-8.080131327819824,13.321936587524414
1789620078390430200,4.02043017578125,-0.05835866546630859,-7.7389575912475586,12.490998973846434
1789620078400402400,4.03040234375,-0.4736030158996582,-8.252962760162353,11.649437090301513
1789620078410375400,4.04037548828125,-0.4930559043884277,-9.06025763244629,10.707169099426268
1789620078420347100,4.05034716796875,-0.11552023010253906,-8.940397911834717,10.083180291748047
1789620078430320400,4.0603203125,-0.23597850112915036,-8.407089492034912,10.01674119567871
1789620078440292400,4.070292236328125,-3.601477847290039,-8.148515712738037,8.98828194503784
1789620078450264800,4.080264892578125,-6.694636754608154,-7.517942850494384,8.488941261291503
1789620078460237000,4.090237060546875,-5.906645133209228,-6.458957528686523,9.62184755935669
1789620078470210000,4.1002099609375,-3.3259950187683103,-6.055235273742675,8.820987104034423
1789620078480182000,4.11018212890625,-2.724302214050293,-6.874800429534912,6.309319924926758
1789620078490155000,4.120155029296875,-2.04943662109375,-7.438934195709228,4.208258330535888
1789620078500127000,4.130126953125,-0.6869862388610839,-7.609521063995361,2.6879402763366698
1789620078510100200,4.140100341796875,0.9835679695129393,-7.809586540222168,1.9110218376159667
1789620078520072000,4.150072021484375,1.7546505416870115,-7.6385507591247555,2.196979298400879
1789620078530045000,4.160044921875,1.7073650588989258,-7.456292157745361,3.1821932815551754
1789620078540017200,4.17001708984375,1.7857751632690428,-7.244554948425293,3.9700352653503415
1789620078549990000,4.179989990234375,2.350657117462158,-6.926126127624511,4.867860887908935
1789620078559962000,4.189962158203125,2.9905075111389157,-6.718129858398437,5.730970586395263
1789620078569935000,4.19993505859375,3.057395520019531,-6.260538066101073,6.644657794952392
1789620078579906800,4.20990673828125,2.6774656440734863,-5.938966855621338,8.041225550842285
1789620078589880000,4.219880126953125,1.3584101669311524,-5.922955632019042,10.351480515289307
1789620078599852000,4.22985205078125,0.44592005920410155,-6.2307601829528805,12.267889306640624
1789620078609824800,4.23982470703125,2.1333833168029783,-6.757334910583496,12.57105509185791
1789620078619797000,4.249796875,3.529352522277832,-7.185148819732666,12.539631195068358
1789620078629770000,4.25977001953125,3.227383837890625,-7.244255673217773,12.171821965026854
1789620078639742000,4.269741943359375,1.876305913543701,-6.972813059997558,11.608885299682617
1789620078649715000,4.27971484375,2.6411037063598632,-7.430704127502441,11.158925025177002
1789620078659687200,4.289687255859375,3.286640328979492,-7.049726788330077,10.80847375717163
1789620078669660200,4.29966015625,-0.7926303871154785,-6.65932228012085,10.274716424560546
1789620078679632000,4.3096318359375,-3.058742258453369,-6.756885997772216,9.119065210723877
1789620078689605000,4.319605224609375,-2.8471546867370603,-6.5014546081542965,8.247426168823242
1789620078699577000,4.3295771484375,-1.8930653251647949,-6.554276682281494,7.803900311279296
1789620078709549800,4.3395498046875,-0.45235447616577146,-6.03937368774414,8.474875326538086
1789620078719522000,4.34952197265625,0.6619967590332031,-6.049549044799805,9.444676636505127
1789620078729495000,4.3594951171875,2.082656169128418,-6.12885697479248,10.744428862762451
1789620078739467000,4.369467041015625,4.013879083251953,-5.377526566314697,13.254001115417479
1789620078749440000,4.37943994140625,6.0516439712524415,-3.8570588745117185,15.944485231018065
1789620078759412000,4.389411865234375,5.288043279266357,-2.4609400314331054,15.477466269683838
1789620078769385200,4.39938525390625,2.0760721145629883,-2.420388240814209,12.834566912078857
1789620078779357000,4.40935693359375,0.04908113403320312,-2.126499987030029,11.393556787872313
1789620078789330000,4.419329833984375,-3.162291480255127,-1.5491981117248534,8.876203379821776
1789620078799302100,4.42930224609375,-5.267692565155029,-0.9220669143676757,8.084021905517577
1789620078809275000,4.43927490234375,-3.9846997505187987,0.029328970336914062,9.785700735473633
1789620078819247000,4.4492470703125,-4.274398151397705,-1.6825252166748046,5.865794067382812
1789620078829220000,4.45922021484375,-2.5290251411437987,-4.497058905792236,-0.5864297691345215
1789620078839191800,4.46919189453125,1.3313257606506348,-7.698106525421142,-7.490409531402587
1789620078849165000,4.4791650390625,3.24324542388916,-8.798840738677978,-8.869619325256346
1789620078859137000,4.489136962890625,1.8517653465270996,-5.971737490844726,-1.7262193969726563
1789620078869110000,4.499110107421875,0.603338818359375,-1.4176666580200195,6.271162335968017
1789620078879082000,4.50908203125,-1.6608277641296385,0.3354875076293945,9.48088893661499
1789620078889055000,4.519054931640625,-4.275744889831543,1.1915642387390135,9.573963526153564
1789620078899027200,4.529027099609375,-4.6359226020812985,1.2196961082458495,8.12681826019287
1789620078909000000,4.539,-4.053682685852051,-0.14589666366577148,7.350498371887206
1789620078918972000,4.548971923828125,-4.171896392822266,-0.5377975479125976,7.152976734924316
1789620078928945200,4.558945068359375,-2.7636569038391112,-0.635211627960205,6.630591860198974
1789620078938916900,4.568916748046875,-0.4978443077087402,-1.1305120964050293,7.517194662475585
1789620078948889900,4.578889892578125,0.8222586326599121,-3.988440690612793,11.340435438537597
1789620078958862000,4.588862060546875,1.884535981750488,-3.525162669372558,11.981931845855712
1789620078968835000,4.5988349609375,-0.1815104133605957,-3.6955999000549316,11.780968544006347
1789620078978807000,4.60880712890625,-1.6880618080139158,-5.549160897827148,14.126687620544432
1789620078988780000,4.618780029296875,-1.5215151550292967,-6.557269434356689,13.098677282714842
1789620078998752000,4.628751953125,-1.0799345863342285,-7.134421672058105,11.769296810913085
1789620079008725000,4.63872509765625,-1.6506524070739745,-8.521412621307373,11.073481953430175
1789620079018697000,4.648697021484375,-0.3003226707458496,-8.787019367980957,10.813262160491943
1789620079028670000,4.658669921875,-1.4778209747314452,-7.829637979125976,12.281207053375244
1789620079038642000,4.668641845703125,-2.23468797454834,-6.743717888641357,11.584494370269775
1789620079048615000,4.678614990234375,-2.114678616333008,-5.876418337249755,11.88122573852539
1789620079058587100,4.688587158203125,-1.5499462997436522,-4.27724126586914,12.243199102020263
1789620079068560100,4.69856005859375,-1.010652375793457,-3.5604771438598632,12.442666027832031
1789620079078532000,4.708531982421875,-1.3072341064453123,-3.097648035430908,11.122413449859618
1789620079088505000,4.718505126953125,-2.220921315002441,-3.142240041351318,8.93800371017456
1789620079098477000,4.72847705078125,-3.1597476409912106,-2.9140426956176757,7.24620096206665
1789620079108450000,4.738449951171875,-3.0762498580932616,-2.0528782859802246,6.843226895141601
1789620079118422000,4.748422119140625,-2.2150854484558105,-0.9292495193481445,7.445967163085937
1789620079128395000,4.75839501953125,-2.9568390502929685,-0.7006032608032227,6.736236008453369
1789620079138367000,4.768366943359375,-3.6323031936645505,-0.9135375709533691,6.591536445617676
1789620079148340000,4.778340087890625,-3.173813575744629,-1.4380173721313476,5.408950463104247
1789620079158312200,4.788312255859375,-2.9972412033081053,-1.4960767623901365,5.507112731170654
1789620079168285200,4.79828515625,-3.418919970703125,-2.2940941032409667,5.239859970855712
1789620079178257000,4.8082568359375,-3.2749685958862305,-2.111985139465332,4.890755441284179
1789620079188230100,4.818230224609375,-2.8226141197204586,-1.3479355346679687,6.1644707244873045
1789620079198201900,4.828201904296875,-2.227505369567871,-1.1127052215576172,6.8587892059326165
1789620079208174800,4.8381748046875,-2.964769843292236,-0.713771369934082,6.523750611114502
1789620079218147000,4.84814697265625,-3.2179566688537595,-0.4604349067687988,5.947795474243164
1789620079228120000,4.8581201171875,-2.938732900238037,0.3049614364624023,5.761347019958496
1789620079238092000,4.868092041015625,-2.6651953605651855,0.4396352798461914,5.45818123474121
1789620079248065000,4.87806494140625,-2.3274632888793945,1.0779892974853515,4.649539624023437
1789620079258037000,4.888037109375,-1.5020622665405272,-0.01227028350830078,4.122366345977783
1789620079268010000,4.898010009765625,-2.056319950866699,-1.6298527801513671,3.8609494522094723
1789620079277982000,4.90798193359375,-3.5173815139770506,-2.3542484199523925,5.658246710968017
1789620079287955000,4.917954833984375,-3.573944528198242,-3.594893792724609,8.274660212707518
1789620079297927000,4.927927001953125,-3.292476195526123,-4.952555771636963,8.5938372215271
1789620079307900000,4.93789990234375,-3.33886385269165,-5.3214124649047845,9.210643424224854
1789620079317872000,4.9478720703125,-2.366668341064453,-5.174019425201416,10.271574034881592
1789620079327845000,4.95784521484375,-1.8300678939819335,-4.661211357116699,11.11567975769043
1789620079337816800,4.96781689453125,-2.099116305541992,-4.582801252746582,11.017068576812743
1789620079347790000,4.9777900390625,-1.5249568199157715,-5.001337630462646,10.171466477966309
1789620079357762000,4.987761962890625,-2.6122236488342283,-5.007472772216796,8.251316746520995
1789620079367734800,4.99773486328125,-2.2930466400146483,-3.5800796699523922,7.464222950744628
1789620079377707000,5.00770703125,-0.9485527702331542,-4.031237045288086,7.688230443572998
1789620079387680000,5.017679931640625,-0.9620201545715331,-4.247014469909668,7.2255509727478024
1789620079397652000,5.02765185546875,-1.1719617126464843,-3.961655559539795,6.721122610473633
1789620079407625000,5.037625,-1.6774375381469726,-3.4597710365295407,6.2481181449890135
1789620079417597000,5.047596923828125,-1.7989432723999021,-3.2516251296997067,6.694337479400635
1789620079427570200,5.057570068359375,-1.8775030143737792,-3.5769372802734374,7.000047103881836
1789620079437542000,5.0675419921875,-1.5758336051940918,-3.7014357666015623,7.024587670898437
1789620079447515100,5.07751513671875,-0.9744400756835937,-3.6195839973449706,6.866869636535644
1789620079457487000,5.087487060546875,-0.7152677459716796,-3.46007031173706,6.434865874481201
1789620079467460000,5.097460205078125,-0.8304887008666991,-4.199878624725342,6.543203499603271
1789620079477432300,5.107432373046875,-2.046743144226074,-5.840954225158691,6.360196710205078
1789620079487405000,5.117405029296875,-2.1389199081420895,-7.060351058197021,5.887491519927978
1789620079497377300,5.127377197265625,-1.4701894569396972,-8.296656940460204,5.723039793395996
1789620079507350300,5.137350341796875,-1.3215993164062498,-9.892990897369383,6.159383045959473
1789620079517322000,5.147322021484375,-1.790114653778076,-11.56115090408325,6.726060651397705
1789620079527295200,5.157295166015625,-2.3473650901794434,-12.960861049652099,7.338826638793945
1789620079537267200,5.16726708984375,-2.2848165718078612,-13.915548961639404,7.912686849212646
1789620079547240200,5.177240234375,-1.8339584716796873,-14.022090935516356,8.862287082672118
1789620079557212200,5.187212158203125,-1.477970612335205,-13.722815727996826,9.603442134094237
1789620079567185200,5.19718505859375,-1.2644377517700194,-13.363835116577148,10.01060605392456
1789620079577157400,5.207157470703125,-1.3612532814025877,-13.175591011047363,9.874735109710693
1789620079587130000,5.217130126953125,-1.6118962677001951,-13.050942887115477,9.357587551116943
1789620079597102000,5.22710205078125,-1.9782091217041013,-11.222072093963622,7.813477117919922
1789620079607075300,5.237075439453125,-2.3705589187622067,-8.91271495513916,6.982838779449462
1789620079617047000,5.247047119140625,-2.635417477416992,-7.770830400848388,8.213159157562256
1789620079627020000,5.25702001953125,-1.9288287124633787,-6.909516353607177,8.43447317352295
1789620079636992300,5.2669921875,-1.4194623092651366,-6.266373932647705,8.3256866355896
1789620079646965200,5.27696533203125,-1.830367169189453,-6.037129123687744,8.66356834487915
1789620079656937200,5.286937255859375,-1.2897265068054198,-5.0954596832275385,8.75335090713501
1789620079666910200,5.29691015625,-1.0588356842041016,-4.8123453369140625,8.824428768920898
1789620079676882200,5.306882080078125,-1.3916297149658203,-6.493972727966308,8.603713303375244
1789620079686855200,5.316855224609375,-0.9651625442504882,-7.190535773468017,7.9843632614135736
1789620079696828200,5.326828125,-0.9977835418701171,-7.3419690284729,7.625233012390137
1789620079706800000,5.336800048828125,-0.9370306747436523,-7.13726478652954,7.109132917022705
1789620079716773400,5.3467734375,-1.228973639678955,-7.2535332046508785,7.151629996490478
1789620121580009000,47.21000903320312,6.41616117401123,8.878298306274413,-0.6235398948669433
1789620121589981000,47.21998095703125,6.063764617156982,9.821015209960937,-1.5280992095947266
1789620121599953000,47.22995288085937,5.4990323005676265,9.645340663146973,-1.1773486663818358
1789620121609924900,47.2399248046875,5.600187320709228,9.020005117034911,-0.6889315277099609
1789620121619896800,47.24989672851562,6.103119306945801,8.266430144500731,-0.44592005920410155
1789620121629869000,47.259869140625,6.523900248718261,7.808389439392089,-0.493504817199707
1789620121639841800,47.269841796875,6.59497811050415,7.826645227050781,-0.6872855140686035
1789620121649814000,47.27981396484375,6.376058296203613,8.164975849151611,-0.8686462898254395
1789620121659786000,47.28978588867187,6.032041445159912,8.333916703796387,-0.9036614891052246
1789620121669758000,47.29975805664063,5.76478868484497,8.259995727539062,-0.720804337310791
1789620121679730000,47.30972998046875,5.699097776794433,8.132654126739501,-0.51714755859375
1789620121689703000,47.319702880859374,5.889586446380615,8.035988234710693,-0.37334582138061523
1789620121699675000,47.3296748046875,6.252457635498047,7.877970925140381,-0.13631985702514648
1789620121709646800,47.339646728515625,6.602459990692139,7.728333321380615,0.27293898925781246
1789620121719618800,47.34961889648437,6.827215671539307,7.685985879516601,0.7160159339904785
1789620121729590800,47.3595908203125,6.823624369049072,7.715614125061035,1.0452186622619628
1789620121739563000,47.36956298828125,6.599167963409424,7.798363719940185,1.23211602935791
1789620121749535700,47.37953564453125,6.198588098144531,8.007557089996338,1.2732663703918456
1789620121759508000,47.38950805664062,5.692364084625244,8.141183470153807,1.2499229042053221
1789620121769480000,47.39947998046875,5.1042883018493646,8.039429899597167,1.3093290328979492
1789620121779452000,47.40945190429687,4.559008873748779,7.9289973480224605,1.3229460548400878
1789620121789423900,47.419423828125,4.174140956878662,8.029703455352783,1.3099275833129882
1789620121799396900,47.42939697265625,3.995174382781982,8.262389929199218,1.2490250785827637
1789620121809368800,47.439368896484375,4.038120375061035,8.377461246490478,1.1109095703125
1789620121819341000,47.44934106445312,4.214692747497558,8.356511981964111,0.9370306747436523
1789620121829312800,47.459312744140625,4.450671248626708,8.218695748901366,0.7217021629333495
1789620121839285000,47.46928491210937,4.681412433624267,8.07624075012207,0.548421817779541
1789620121849257000,47.47925708007813,4.836736266326904,8.026561065673828,0.42063130416870115
1789620121859229700,47.48922973632813,4.86456886062622,8.05738641204834,0.3414730117797851
1789620121869202000,47.499201904296875,4.860827920532226,8.098237477874756,0.21128829650878905
1789620121879174000,47.509173828125,4.869656539154052,8.089708134460448,0.0383072265625
1789620121889145900,47.519145751953126,4.919336223602294,8.035240046691895,-0.14948796615600585
1789620121899117800,47.52911791992187,5.072116217041016,7.972841165924072,-0.36795886764526364
1789620121909091000,47.539091064453125,5.306448704528808,7.945607122039794,-0.4492120864868164
1789620121919062800,47.54906274414063,5.644480051422119,7.853430358123779,-0.36436756515502927
1789620121929035000,47.559034912109375,5.904101293945312,7.79552060546875,-0.08065466842651367
1789620121939006700,47.5690068359375,6.042665715026855,7.875277448272705,0.29239187774658204
1789620121948979000,47.57897900390625,6.068403382873535,7.997531370544433,0.5972036766052246
1789620121958951000,47.58895092773437,5.941361057281494,8.06292300338745,0.8464999244689941
1789620121968924000,47.598923828125,5.641188024139404,8.073247998046874,1.0164882423400878
1789620121978896000,47.60889575195313,5.24105707168579,8.11439833908081,1.0064625228881836
1789620121988868000,47.6188681640625,4.913350719451904,8.155099767303467,0.9138368461608887
1789620121998839800,47.62883984375,4.788552957916259,8.181435985565185,0.9087491676330566
1789620122008812000,47.63881201171875,4.860528645324707,8.075043649291992,0.8958803337097168
1789620122018785000,47.64878491210938,4.9914615486145015,7.927351334381103,0.8900444671630859
1789620122028756700,47.6587568359375,5.076754982757568,7.8541785461425775,0.9311948081970214
1789620122038729000,47.66872900390625,5.083937587738037,7.85253253250122,0.9501987838745116
1789620122048701000,47.678700927734376,5.0179474044799806,7.888295919799805,0.9198223503112792
1789620122058673000,47.6886728515625,4.959888014221191,8.027458891296387,0.9708487731933593
1789620122068646000,47.69864599609375,5.03066660079956,8.18457837524414,1.049558152770996
1789620122078617900,47.70861791992188,5.129427419281005,8.260145365142822,1.0895113929748534
1789620122088589800,47.71858984375,5.2061915100097655,8.250568558502197,1.0580874961853026
1789620122098562000,47.72856201171875,5.131821620941162,8.17844323348999,0.9690531219482421
1789620122108533800,47.73853369140625,4.878934070587158,8.172607366943359,0.828693049621582
1789620122118506000,47.74850610351562,4.6921863410949705,8.174103742980957,0.5482721801757812
1789620122128479000,47.75847900390625,4.745307690429687,8.17185917892456,0.17193360671997068
1789620122138451000,47.76845092773438,5.073462955474853,8.02506468963623,-0.11477204208374023
1789620122148423000,47.7784228515625,5.478831224060058,7.8624086143493646,-0.12719196319580078
1789620122158395000,47.78839477539063,5.747430722808837,7.841309712219238,0.09083002548217772
1789620122168366800,47.798366943359376,5.9132291877746574,8.017283534240722,0.36227263870239257
1789620122178339800,47.80833984375,5.970241114807129,8.201936337280273,0.5825391914367676
1789620122188311800,47.81831176757812,5.922207444000244,8.310423600006104,0.7448959915161132
1789620122198284000,47.82828393554688,5.831527056121826,8.321347145080566,0.8219593574523926
1789620122208256000,47.838256103515626,5.716755014038085,8.287678684234619,0.7410054138183594
1789620122218228000,47.84822802734375,5.6754550354003905,8.199691773223876,0.5517138450622558
1789620122228200000,47.858199951171876,5.782595559692383,8.005611801147461,0.40192660369873046
1789620122238172700,47.868172607421876,5.78409193572998,7.798214082336425,0.45804070510864253
1789620122248145000,47.87814477539062,5.558288791656494,7.809436902618407,0.6673837127685547
1789620122258116900,47.88811694335938,5.186289708709716,8.029104904937745,0.8744821563720703
1789620122268088800,47.8980888671875,4.8707040023803705,8.277353689575195,1.0136451278686522
1789620122278060800,47.90806079101562,4.7083472023010255,8.443750704956054,1.0863690032958984
1789620122288034000,47.91803393554687,4.7117888671875,8.42160433959961,1.029207438659668
1789620122298005800,47.928005859375,4.768202243804931,8.328380112457275,0.9889549232482909
1789620122307978000,47.93797802734375,4.876390231323242,8.240243563842773,0.8340800033569336
1789620122317949700,47.94794970703125,5.057601369476318,8.166023312377929,0.5966051261901855
1789620122327922000,47.957921875,5.305550878906249,8.111704862213134,0.42766427154541015
1789620122337894000,47.96789379882812,5.569511611938476,8.053196559143066,0.3414730117797851
1789620122347867000,47.97786694335937,5.717503202056885,7.986158912658691,0.39983167724609375
1789620122357838800,47.9878388671875,5.5653217590332025,8.036586785125731,0.5698199951171875
1789620122367811000,47.99781103515625,5.201702381896973,8.27301419906616,0.7245452774047851
1789620122377782800,48.00778271484375,4.752939208221435,8.5294930519104,0.7610568527221679
1789620122387755000,48.017755126953126,4.425532131195068,8.705466873931885,0.697161595916748
1789620122397728000,48.02772802734375,4.377648097991943,8.685714710235596,0.560542463684082
1789620122407699700,48.03769970703125,4.606294356536865,8.47278040008545,0.48063598327636714
1789620122417672000,48.047671875,4.930858319091796,8.328230474853514,0.5316624061584473
1789620122427643600,48.0576435546875,5.260061047363281,8.313715627288818,0.603338818359375
1789620122437615900,48.06761596679687,5.498583387756347,8.380453998565674,0.6606500205993652
1789620122447587800,48.077587890625,5.594800366973876,8.479065179443358,0.6958148574829102
1789620122457560800,48.087560791015626,5.601982971954345,8.522160809326172,0.7076362281799315
1789620122467532800,48.09753271484375,5.581033707427978,8.42669201812744,0.6479308242797851
1789620122477505000,48.10750512695312,5.508010556793213,8.255955512237549,0.5451297904968262
1789620122487476700,48.117476806640624,5.392490326690673,8.106467546081543,0.32995091629028317
1789620122497449500,48.127449462890624,5.376628740692138,7.981969059753418,0.08514379653930663
1789620122507422500,48.13742236328125,5.402216770935058,7.88440534210205,0.036361937713623046
1789620122517394400,48.14739453125,5.393238514709473,7.820958998107909,0.14380173721313474
1789620122527366400,48.157366455078126,5.263801987457275,7.836670946502685,0.3812766143798828
1789620122537338400,48.16733837890625,5.1234419151306145,7.9581766807556145,0.6102221481323242
1789620122547310300,48.17731030273438,5.025130009460449,8.003217599487304,0.6525695899963379
1789620122557283300,48.18728344726563,4.933402158355713,7.952340814208984,0.6200982299804687
1789620122567255600,48.197255615234376,4.881028997039794,7.885153530120849,0.5979518646240234
1789620122577227300,48.20722729492188,4.950011932373046,7.789684738922118,0.5325602317810059
1789620122587199500,48.217199462890626,5.0842368629455565,7.7519760627746574,0.5303156677246094
1789620122597171500,48.22717138671875,5.2371664939880365,7.84594847793579,0.6527192276000976
1789620122607143400,48.23714331054688,5.352686724090576,7.979724495697021,0.81073653717041
1789620122617116400,48.24711645507813,5.271583142852783,8.033594033050537,0.9555857376098632
1789620122627088600,48.257088623046876,4.8898576156616205,8.149862451171874,1.0362404060363768
1789620122637060400,48.26706030273437,4.394557147216797,8.352022853851318,0.955136824798584
1789620122647032600,48.277032470703126,4.116680117034912,8.619574889373778,0.7092822418212891
1789620122657004300,48.28700439453125,4.28382532043457,8.79779327545166,0.5027823486328125
1789620122666976500,48.2969765625,4.738424360656738,8.697685718536377,0.36361937713623044
1789620122676949500,48.30694946289063,5.159205302429199,8.54834738998413,0.37723639907836914
1789620122686921500,48.31692138671875,5.47763412322998,8.557624921417236,0.4080617454528808
1789620122696893400,48.3268935546875,5.616797094726562,8.654739726257324,0.4186860153198242
1789620122706865700,48.33686572265625,5.590311238861084,8.80482624282837,0.4312555740356445
1789620122716837400,48.34683740234375,5.410297201538086,8.901941047668457,0.4312555740356445
1789620122726810400,48.356810302734374,5.082890124511718,8.93201820602417,0.3510498184204101
1789620122736782300,48.3667822265625,4.69248561630249,8.91780263366699,0.18121113815307616
1789620122746754300,48.37675439453125,4.426579594421386,8.882338521575928,-0.10025719451904297
1789620122756726500,48.3867265625,4.435857125854492,8.78447552871704,-0.33010055389404297
1789620122766698200,48.3966982421875,4.808754034423828,8.56735136566162,-0.3661632164001465
1789620122776670500,48.40667041015625,5.38231496963501,8.290821073913573,-0.15173253021240232
1789620122786643500,48.4166435546875,5.912331362152099,8.116044352722167,0.1753752716064453
1789620122796615400,48.42661547851562,6.210708744049072,8.019677735900878,0.5134066184997559
1789620122806587400,48.43658740234375,6.3323641159057615,8.013841869354248,0.8544307174682617
1789620122816559400,48.44655932617187,6.33326194152832,8.013243318939208,1.0811316871643066
1789620122826531300,48.45653125,6.271311973571777,7.98032304611206,1.1924620643615722
1789620122836504600,48.46650463867188,6.086509532928466,7.912686849212646,1.2578536972045897
1789620122846476300,48.476476318359374,5.765536872863769,7.824550300598144,1.3467384338378905
1789620122856448500,48.48644848632812,5.246144750213623,7.830236529541015,1.3637971206665038
1789620122866420500,48.49642041015625,4.6604631690979,7.948749511718749,1.2392986343383787
1789620122876392400,48.50639233398437,4.3059716857910155,8.081178791046142,1.0667664772033691
1789620122886364400,48.51636450195313,4.216638036346435,8.147617887115478,1.0070610733032226
1789620122896337400,48.52633740234375,4.186710515594482,8.119934930419921,1.0664672019958497
1789620122906309400,48.536309326171875,3.9137715263366695,8.221239588165282,1.1544541130065917
1789620122916281300,48.54628125,3.52396556854248,8.502109370422362,1.1426327423095703
1789620122926253300,48.55625341796875,3.3713352127075193,8.853757739257812,1.11734398727417
1789620122936225500,48.5662255859375,3.545663021087646,9.022399318695069,1.1869254730224608
1789620122946198500,48.576198486328124,3.9356186164855953,9.056965605163574,1.2358569694519042
1789620122956170200,48.58617016601563,4.537909971618652,9.019256929016112,1.1400889030456542
1789620122966142500,48.596142578125,5.320065726470947,8.793902697753905,0.8590694831848144
1789620122976114400,48.60611450195312,6.0537388977050774,8.511985452270507,0.40192660369873046
1789620122986086400,48.61608642578125,6.885424699401855,8.189666053771973,-0.11956044540405272
1789620122996058400,48.62605834960937,6.970418858337402,8.253112397766113,-0.6682815383911133
1789620123006031600,48.636031494140624,6.760028387451172,8.46604670791626,-1.2173019065856934
1789620123016003300,48.64600341796875,6.71648384475708,8.602067289733887,-1.3088801200866698
1789620123025975600,48.6559755859375,6.648847647857665,8.85540375289917,-0.8354267417907715
1789620123035947300,48.665947265625,6.545747338867187,9.042899670410156,-0.16086042404174802
1789620123045919500,48.67591943359375,6.617124475860595,9.178172064208983,0.39100305862426754
1789620123055892500,48.685892578125,6.957101111602783,9.110685504913329,0.9154828598022461
