time,seconds_elapsed,z,y,x
1789620074416392000,0.046391845703125,-0.31971675157546997,-0.31509536504745483,-0.09166546911001205
1789620074426363600,0.05636376953125,-0.3520829379558563,-0.2521297037601471,-0.14171479642391205
1789620074436336600,0.066336669921875,-0.37937289476394653,-0.1625225991010666,-0.1892881691455841
1789620074446309000,0.07630908203125,-0.40096765756607056,-0.08344908803701401,-0.22957700490951538
1789620074456282000,0.0862822265625,-0.40480953454971313,-0.010626278817653656,-0.25328099727630615
1789620074466254300,0.09625439453125,-0.39688050746917725,0.031743016093969345,-0.2592880129814148
1789620074476227000,0.10622705078125,-0.3905712068080902,0.0028328043408691883,-0.23830124735832214
1789620074486199000,0.116198974609375,-0.40495920181274414,-0.07587585598230362,-0.17817266285419464
1789620074496172300,0.12617236328125,-0.4244607388973236,-0.1593547761440277,-0.08994853496551514
1789620074506144000,0.13614404296875,-0.44698628783226013,-0.27043601870536804,0.012735769152641296
1789620074516117000,0.146116943359375,-0.45009392499923706,-0.4241901636123657,0.11151081323623657
1789620074526089200,0.156089111328125,-0.44252175092697144,-0.5019038915634155,0.20154643058776855
1789620074536062200,0.166062255859375,-0.4041229784488678,-0.460404634475708,0.28169986605644226
1789620074546034200,0.1760341796875,-0.3313544988632202,-0.3315095007419586,0.30121204257011414
1789620074556007200,0.186007080078125,-0.011800999753177166,-0.008380435407161713,-0.21319377422332764
1789620074565979100,0.195979248046875,0.17795881628990173,0.5300832986831665,-0.7939245104789734
1789620074575952100,0.2059521484375,0.33123332262039185,0.8500615954399109,-1.1542917490005493
1789620074585924000,0.215924072265625,0.42207133769989014,1.1291760206222534,-1.3687020540237427
1789620074595897000,0.22589697265625,0.36042237281799316,1.311141848564148,-1.5334113836288452
1789620074605869000,0.235869140625,0.22246742248535156,1.1399842500686646,-1.6489214897155762
1789620074615842000,0.245842041015625,0.1279265433549881,0.8249524831771851,-1.6662861108779907
1789620074625814300,0.255814208984375,0.12772707641124725,0.6181204915046692,-1.5738637447357178
1789620074635787300,0.265787353515625,0.19801801443099976,0.5690927505493164,-1.4188991785049438
1789620074645759200,0.27575927734375,0.3239045739173889,0.530787467956543,-1.2985986471176147
1789620074655732200,0.285732177734375,0.4874034821987152,0.694715678691864,-1.223633885383606
1789620074665704200,0.2957041015625,0.7135689854621887,1.1479878425598145,-1.1226598024368286
1789620074675677200,0.30567724609375,0.9649136066436768,1.5725399255752563,-1.0220956802368164
1789620074685649200,0.315649169921875,1.172447919845581,1.751068115234375,-0.9088881611824036
1789620074695622100,0.3256220703125,1.288877248764038,1.686212420463562,-0.756959855556488
1789620074705594000,0.335593994140625,1.304795742034912,1.6225124597549438,-0.5399771928787231
1789620074715567000,0.345567138671875,1.2139263153076172,1.7172554731369019,-0.2491523027420044
1789620074725539300,0.355539306640625,1.0024486780166626,1.8979665040969849,0.11453083902597427
1789620074735512300,0.36551220703125,0.6771970987319946,2.0277976989746094,0.5490058660507202
1789620074745484000,0.375484130859375,0.43200281262397766,1.899314045906067,1.0513917207717896
1789620074755457300,0.385457275390625,0.37332484126091003,1.7562083005905151,1.5944057703018188
1789620074765429000,0.395428955078125,0.1831628978252411,1.3707207441329956,2.0756731033325195
1789620074775402000,0.405402099609375,-0.5363771319389343,0.02407683990895748,1.949545979499817
1789620074785374200,0.415374267578125,-1.4470618963241577,-1.7784254550933838,1.143467903137207
1789620074795347200,0.42534716796875,-2.029480218887329,-2.5404539108276367,0.8271799683570862
1789620074805319200,0.435319091796875,-2.348738193511963,-2.721557378768921,0.7470015287399292
1789620074815292200,0.445292236328125,-2.3259716033935547,-3.566227436065674,0.452976793050766
1789620074825264000,0.45526416015625,-2.1527748107910156,-4.76267671585083,0.07874354720115662
1789620074835236000,0.465236083984375,-1.895289421081543,-5.82733154296875,-0.17647649347782135
1789620074845209000,0.475208984375,-1.641533613204956,-6.842919826507568,-0.36778494715690613
1789620074855181300,0.485181396484375,-1.7608722448349,-6.217241287231445,-1.0502095222473145
1789620074865154000,0.495154052734375,-1.8636572360992432,-4.756007194519043,-1.285423994064331
1789620074875126000,0.5051259765625,-1.6314815282821655,-2.972656011581421,-1.5055004358291626
1789620074885099300,0.515099365234375,-0.9129753112792969,-1.492933750152588,-1.5914208889007568
1789620074895071000,0.525071044921875,0.1970832347869873,-0.6415408253669739,-1.5099939107894897
1789620074905044000,0.5350439453125,1.216469168663025,-0.2852003276348114,-1.315767526626587
1789620074915016200,0.54501611328125,1.6977708339691162,-0.26262417435646057,-1.119573712348938
1789620074924989200,0.5549892578125,1.6475166082382202,-0.6317026019096375,-0.9025008082389832
1789620074934961200,0.564961181640625,1.3806405067443848,-1.3316380977630615,-0.6631500124931335
1789620074944934100,0.57493408203125,1.1291166543960571,-1.9283387660980225,-0.423910528421402
1789620074954906000,0.584906005859375,0.961840808391571,-1.8320190906524658,-0.1928139328956604
1789620074964879000,0.594879150390625,0.8861892223358154,-1.9017207622528076,0.0436372272670269
1789620074974851000,0.60485107421875,0.8149006366729736,-1.722753882408142,0.2500718832015991
1789620074984824000,0.614823974609375,0.6788866519927979,-1.5055440664291382,0.39009928703308105
1789620074994796000,0.624796142578125,0.5125719308853149,-1.5522942543029785,0.41368743777275085
1789620075004769000,0.63476904296875,0.36515188217163086,-1.7997856140136719,0.33998075127601624
1789620075014741200,0.6447412109375,0.2674564719200134,-2.0857765674591064,0.21473947167396545
1789620075024714200,0.65471435546875,0.20353181660175323,-2.2541441917419434,0.09214164316654205
1789620075034686200,0.664686279296875,0.15317250788211823,-2.1619369983673096,0.02099050208926201
1789620075044659200,0.6746591796875,0.07064726948738098,-1.8971678018569946,0.005864014383405447
1789620075054631200,0.684631103515625,-0.036372654139995575,-1.4928892850875854,0.03273024782538414
1789620075064604200,0.694604248046875,-0.11305437982082367,-1.0105899572372437,0.07671661674976349
1789620075074576100,0.704576171875,-0.12363352626562119,-0.5553250312805176,0.12064012885093689
1789620075084549000,0.714549072265625,-0.0785941407084465,-0.19277025759220123,0.1458006054162979
1789620075094521000,0.72452099609375,-0.014978683553636074,0.10563934594392776,0.15630412101745605
1789620075104494000,0.734494140625,0.0659710243344307,0.35855868458747864,0.17928719520568848
1789620075114466300,0.74446630859375,0.1574476808309555,0.522352397441864,0.23320822417736053
1789620075124439300,0.754439208984375,0.21545425057411194,0.5028884410858154,0.305742084980011
1789620075134411000,0.764410888671875,0.2080477476119995,0.3835127651691437,0.37641170620918274
1789620075144384300,0.77438427734375,0.17706185579299927,0.31171953678131104,0.460519939661026
1789620075154356200,0.784356201171875,0.17452919483184814,0.2837640643119812,0.5655398368835449
1789620075164329000,0.794328857421875,0.3067985475063324,0.3188605308532715,0.6751108169555664
1789620075174301200,0.80430126953125,0.4116639792919159,0.5024359822273254,0.7764818668365479
1789620075184274200,0.814274169921875,0.37500903010368347,0.6298189759254456,0.8309699296951294
1789620075194246100,0.82424609375,0.28168708086013794,0.634117841720581,0.8259961605072021
1789620075204219100,0.83421923828125,0.18378926813602448,0.4347330927848816,0.7673888206481934
1789620075214191000,0.844191162109375,0.06690926104784012,0.173064187169075,0.6978963017463684
1789620075224164400,0.854164306640625,-0.02455967105925083,-0.015868978574872017,0.6398963332176208
1789620075234136000,0.864135986328125,-0.007503989152610302,-0.0005637911963276565,0.6051692366600037
1789620075244109000,0.874109130859375,0.07171866297721863,0.04020414501428604,0.5580747127532959
1789620075254081300,0.884081298828125,0.15419888496398926,0.04611263424158096,0.5220664143562317
1789620075264054000,0.894053955078125,0.21791981160640717,-0.051891427487134933,0.5373028516769409
1789620075274026200,0.904026123046875,0.24975258111953735,-0.2690517008304596,0.5667089819908142
1789620075283999200,0.913999267578125,0.21295860409736633,-0.49191755056381226,0.5724608302116394
1789620075293971000,0.923970947265625,0.1232614815235138,-0.6042688488960266,0.5525127053260803
1789620075303944200,0.933944091796875,0.04399382323026657,-0.5518479943275452,0.5160039663314819
1789620075313916200,0.943916259765625,0.0037374801468104124,-0.34534433484077454,0.4193410873413086
1789620075323889200,0.95388916015625,-0.003981692250818014,-0.12026435881853104,0.22988858819007874
1789620075333861000,0.963861083984375,0.04396772384643555,0.15625591576099396,0.041788991540670395
1789620075343834000,0.973834228515625,0.12872469425201416,0.32459938526153564,-0.054003581404685974
1789620075353806300,0.983806396484375,0.15322071313858032,0.25877535343170166,-0.05458947643637657
1789620075363779000,0.993779052734375,0.09804507344961166,0.01321327406913042,0.0200959462672472
1789620075373751000,1.0037509765625,0.026428677141666412,-0.2619251012802124,0.14683231711387634
1789620075383724300,1.013724365234375,-0.026324547827243805,-0.47248977422714233,0.26081615686416626
1789620075393696000,1.023696044921875,-0.05474713444709778,-0.6104793548583984,0.3155965805053711
1789620075403668200,1.033668212890625,-0.08230233192443848,-0.6415608525276184,0.2971344590187073
1789620075413641200,1.04364111328125,-0.11014461517333984,-0.5223076939582825,0.19028446078300476
1789620075423613200,1.05361328125,-0.12747620046138763,-0.3474479913711548,-0.0021971079986542463
1789620075433586200,1.063586181640625,-0.1357852667570114,-0.17949998378753662,-0.20592306554317474
1789620075443558100,1.07355810546875,-0.14195634424686432,-0.08229194581508636,-0.3623875081539154
1789620075453530600,1.083530517578125,-0.1795404702425003,-0.07289950549602509,-0.45023560523986816
1789620075463502600,1.093502685546875,-0.22629199922084808,-0.11053130775690079,-0.48244333267211914
1789620075473475600,1.1034755859375,-0.26318421959877014,-0.15939445793628693,-0.4749356210231781
1789620075483447600,1.113447509765625,-0.2684309184551239,-0.19487148523330688,-0.44614553451538086
1789620075493420500,1.123420654296875,-0.26995477080345154,-0.2446102797985077,-0.418190598487854
1789620075503392800,1.133392822265625,-0.3022882342338562,-0.2813645601272583,-0.3920239806175232
1789620075513365800,1.14336572265625,-0.35087865591049194,-0.2957211434841156,-0.37409451603889465
1789620075523337700,1.153337646484375,-0.3638834059238434,-0.22279979288578033,-0.344593346118927
1789620075533310700,1.163310791015625,-0.3152860403060913,-0.08332312107086182,-0.3010386526584625
1789620075543282700,1.17328271484375,-0.2731649577617645,0.05506831035017967,-0.2583599090576172
1789620075553255700,1.183255615234375,-0.25688984990119934,0.14960679411888123,-0.24545450508594513
1789620075563227600,1.1932275390625,-0.27588164806365967,0.18247313797473907,-0.24257242679595947
1789620075573200600,1.20320068359375,-0.31334275007247925,0.18305477499961853,-0.22499476373195648
1789620075583172600,1.213172607421875,-0.3471806049346924,0.20591294765472412,-0.17876042425632477
1789620075593145600,1.2231455078125,-0.34997105598449707,0.2265404611825943,-0.08632796257734299
1789620075603117800,1.233117919921875,-0.3352333903312683,0.20346178114414215,0.015793077647686005
1789620075613090800,1.2430908203125,-0.3140000104904175,0.14868028461933136,0.10245766490697861
1789620075623062500,1.2530625,-0.3013489246368408,0.08514578640460968,0.1626134067773819
1789620075633035800,1.263035888671875,-0.30738070607185364,0.06347111612558365,0.20696276426315308
1789620075643007700,1.2730078125,-0.32463932037353516,0.06741605699062347,0.2414405792951584
1789620075652980500,1.28298046875,-0.3354965150356293,0.06510603427886963,0.258257120847702
1789620075662952700,1.29295263671875,-0.3267328441143036,0.0340554378926754,0.25311800837516785
1789620075672925700,1.30292578125,-0.32057294249534607,-0.0003755057114176452,0.2130480855703354
1789620075682897700,1.312897705078125,-0.3200778663158417,-0.013132313266396523,0.1398596316576004
1789620075692870700,1.32287060546875,-0.3238813877105713,0.01637364737689495,0.038965243846178055
1789620075702842600,1.332842529296875,-0.3137611150741577,0.08366373926401138,-0.07200148701667786
1789620075712815600,1.342815673828125,-0.2702693045139313,0.16505233943462372,-0.16407336294651031
1789620075722787600,1.35278759765625,-0.21499405801296234,0.198019340634346,-0.20235656201839447
1789620075732760600,1.362760498046875,-0.17966696619987488,0.1443750262260437,-0.19292844831943512
1789620075742732500,1.372732666015625,-0.17029796540737152,0.06488525867462158,-0.14058268070220947
1789620075752705500,1.38270556640625,-0.15144917368888855,0.019582489505410194,-0.06753136962652206
1789620075762677800,1.392677734375,-0.11608719080686569,-0.024582574144005775,-0.021519672125577927
1789620075772650800,1.402650634765625,-0.07726522535085678,-0.07838455587625504,-0.00041971419705078006
1789620075782622500,1.41262255859375,-0.058755457401275635,-0.10682844370603561,0.009365271776914597
1789620075792595700,1.422595703125,-0.058096058666706085,-0.09821285307407379,0.02286883071064949
1789620075802567700,1.432567626953125,-0.05608830228447914,-0.08756659924983978,0.0535132922232151
1789620075812540400,1.44254052734375,-0.05487550050020218,-0.10295061767101288,0.08684062212705612
1789620075822512600,1.4525126953125,-0.05910646170377731,-0.14434200525283813,0.12080924212932587
1789620075832485600,1.462485595703125,-0.06826427578926086,-0.21099798381328583,0.13710565865039825
1789620075842457600,1.47245751953125,-0.0770132914185524,-0.2668905556201935,0.14133742451667786
1789620075852430600,1.4824306640625,-0.0951630026102066,-0.28633081912994385,0.12830790877342224
1789620075862402600,1.492402587890625,-0.11446399241685867,-0.27767476439476013,0.10374290496110916
1789620075872375800,1.502375732421875,-0.11493351310491562,-0.2905237078666687,0.08607842773199081
1789620075882347500,1.512347412109375,-0.08953201025724411,-0.36204397678375244,0.06787198781967163
1789620075892320500,1.522320556640625,-0.06587541848421097,-0.49232685565948486,0.039855003356933594
1789620075902292700,1.532292724609375,-0.05150873214006424,-0.6440679430961609,0.01158554945141077
1789620075912265500,1.542265380859375,-0.03876657038927078,-0.776462197303772,-0.0236992035061121
1789620075922237700,1.55223779296875,-0.02112872153520584,-0.8723916411399841,-0.07659357786178589
1789620075932210700,1.562210693359375,0.011570369824767113,-0.9352976679801941,-0.15448571741580963
1789620075942182700,1.5721826171875,0.06975777447223663,-1.0132158994674683,-0.2554514706134796
1789620075952154600,1.582154541015625,0.152854785323143,-1.076673150062561,-0.36638331413269043
1789620075962127600,1.592127685546875,0.2695763409137726,-1.0997116565704346,-0.4739430546760559
1789620075972099600,1.602099609375,0.39403945207595825,-1.1152634620666504,-0.577711284160614
1789620075982072600,1.612072509765625,0.517420768737793,-1.1702699661254883,-0.7189546823501587
1789620075992044800,1.622044921875,0.694800078868866,-1.3050581216812134,-0.8964051008224487
1789620076002017800,1.632017822265625,0.899663507938385,-1.5394237041473389,-1.0433924198150635
1789620076011989500,1.641989501953125,1.1246132850646973,-1.6214416027069092,-1.0698237419128418
1789620076021962800,1.651962646484375,1.2847949266433716,-1.6989787817001343,-1.0690951347351074
1789620076031934700,1.661934814453125,1.3946915864944458,-1.8789118528366089,-1.0101779699325562
1789620076041907500,1.671907470703125,1.4765985012054443,-1.9677929878234863,-0.8569258451461792
1789620076051879700,1.681879638671875,1.5217105150222778,-2.0439400672912598,-0.6811923980712891
1789620076061852700,1.691852783203125,1.5596051216125488,-2.1771280765533447,-0.5125493407249451
1789620076071824600,1.70182470703125,1.547999620437622,-2.1815757751464844,-0.2996724545955658
1789620076081797600,1.711797607421875,1.5300374031066895,-2.1902458667755127,-0.11169217526912689
1789620076091769600,1.72176953125,1.5641448497772217,-2.187199115753174,0.05450132489204407
1789620076101742800,1.731742919921875,1.6341489553451538,-2.180044412612915,0.2023235410451889
1789620076111714600,1.741714599609375,1.72505784034729,-2.1872329711914062,0.31117627024650574
1789620076121687600,1.7516875,1.8087832927703857,-2.2546370029449463,0.400266170501709
1789620076131659800,1.76165966796875,1.8311657905578613,-2.428107976913452,0.4740184247493744
1789620076141632500,1.771632568359375,1.8089220523834229,-2.653421401977539,0.5425644516944885
1789620076151604700,1.781604736328125,1.797829508781433,-2.849888801574707,0.6004070043563843
1789620076161577700,1.79157763671875,1.832364559173584,-3.0448532104492188,0.6269861459732056
1789620076171549400,1.801549560546875,1.910596251487732,-3.2308509349823,0.6324586868286133
1789620076181522700,1.811522705078125,2.051453113555908,-3.3938217163085938,0.6461734175682068
1789620076191494700,1.82149462890625,2.234041690826416,-3.4259836673736572,0.6659117341041565
1789620076201467600,1.831467529296875,2.432180166244507,-3.2710211277008057,0.6652818918228149
1789620076211439600,1.841439697265625,2.6034975051879883,-3.0383613109588623,0.6313952803611755
1789620076221412600,1.85141259765625,2.667334794998169,-2.8786604404449463,0.5614481568336487
1789620076231384800,1.861384765625,2.647996664047241,-2.804190158843994,0.47346049547195435
1789620076241357600,1.871357666015625,2.6075284481048584,-2.8509724140167236,0.38400545716285706
1789620076251329500,1.88132958984375,2.5925610065460205,-3.0470080375671387,0.32569900155067444
1789620076261302800,1.891302734375,2.6135849952697754,-3.2921812534332275,0.3127448558807373
1789620076271274500,1.9012744140625,2.622420072555542,-3.442570209503174,0.3507170081138611
1789620076281247500,1.91124755859375,2.5217394828796387,-3.522033929824829,0.41451382637023926
1789620076291219700,1.9212197265625,2.2821874618530273,-3.443897008895874,0.4355536103248596
1789620076301192400,1.9311923828125,1.9623233079910278,-3.2056522369384766,0.33169272541999817
1789620076311164700,1.94116455078125,1.636836290359497,-2.928133726119995,0.11833196878433228
1789620076321137700,1.9511376953125,1.4534484148025513,-2.619645357131958,-0.03001995012164116
1789620076331109600,1.961109619140625,1.398399829864502,-2.2679357528686523,-0.014995194971561432
1789620076341082600,1.97108251953125,1.434044361114502,-2.0442893505096436,0.1138240396976471
1789620076351054600,1.9810546875,1.5097899436950684,-1.9528305530548096,0.28408312797546387
1789620076361027800,1.99102783203125,1.6027978658676147,-1.9355309009552002,0.4909912943840027
1789620076370999600,2.00099951171875,1.7184768915176392,-1.861133098602295,0.6397767663002014
1789620076380972500,2.01097265625,1.8077553510665894,-1.7207269668579102,0.8350280523300171
1789620076390944800,2.02094482421875,1.8406506776809692,-1.36366605758667,0.6660826802253723
1789620076400917500,2.03091748046875,1.8405660390853882,-1.2209900617599487,0.6517282724380493
1789620076410889700,2.0408896484375,1.9020346403121948,-1.184429407119751,0.45894601941108704
1789620076420862700,2.05086279296875,2.1157991886138916,-0.9588950872421265,0.34150195121765137
1789620076430834400,2.06083447265625,2.2618753910064697,-0.7266480326652527,0.34628790616989136
1789620076440807700,2.0708076171875,2.2957332134246826,-0.628595769405365,0.21567077934741974
1789620076450780700,2.08078076171875,2.3514091968536377,-0.14043328166007996,0.1369330883026123
1789620076460752600,2.090752685546875,2.266157865524292,0.21599514782428741,0.012203402817249298
1789620076470725600,2.1007255859375,2.0050199031829834,0.09124069660902023,-0.007918376475572586
1789620076480697600,2.110697509765625,1.7740769386291504,0.1115555539727211,0.003962783608585596
1789620076490670600,2.120670654296875,1.6444755792617798,0.05113242566585541,0.13168878853321075
1789620076500642600,2.130642578125,1.5798343420028687,-0.06990557909011841,0.3554811477661133
1789620076510615600,2.140615478515625,1.5009315013885498,-0.16688112914562225,0.6056283712387085
1789620076520587800,2.150587890625,1.4184520244598389,-0.15294614434242249,0.7687986493110657
1789620076530560800,2.160560791015625,1.301193118095398,-0.0222104974091053,0.7360726594924927
1789620076540532500,2.170532470703125,1.1433600187301636,0.12062894552946091,0.5239543318748474
1789620076550505700,2.180505615234375,0.9894077181816101,0.2188553810119629,0.267117977142334
1789620076560477700,2.190477783203125,0.8176652789115906,0.3597155511379242,0.02485075406730175
1789620076570450400,2.200450439453125,0.6859917044639587,-0.026581542566418648,0.47808003425598145
1789620076580422700,2.210422607421875,0.44745367765426636,-0.466951459646225,1.0803896188735962
1789620076590395600,2.220395751953125,0.1946118324995041,-0.9322741627693176,1.489874005317688
1789620076600367600,2.23036767578125,-0.028735507279634476,-1.1882069110870361,1.63930344581604
1789620076610340600,2.240340576171875,-0.2184087634086609,-1.4074712991714478,1.6297591924667358
1789620076620312600,2.2503125,-0.3671111464500427,-1.5544935464859009,1.5924845933914185
1789620076630285800,2.260285888671875,-0.4820329546928406,-1.5292787551879883,1.4884870052337646
1789620076640257500,2.270257568359375,-0.5816474556922913,-1.2779713869094849,1.323255181312561
1789620076650230500,2.28023046875,-0.7047632336616516,-0.8800490498542786,0.9855448603630066
1789620076660202800,2.29020263671875,-0.7701669931411743,-0.3371511399745941,0.3136790990829468
1789620076670175500,2.300175537109375,-0.8165557980537415,0.25096777081489563,-0.4708207845687866
1789620076680147700,2.310147705078125,-0.8828086256980896,0.6608389019966125,-0.8124854564666748
1789620076690120700,2.32012060546875,-0.987007200717926,0.670364260673523,-0.7441987991333008
1789620076700092700,2.3300927734375,-1.0348916053771973,0.30943986773490906,-0.6262122392654419
1789620076710065700,2.340065673828125,-1.0411330461502075,0.04530223459005356,-0.6228534579277039
1789620076720037600,2.35003759765625,-1.0417848825454712,0.006424343679100275,-0.5444087386131287
1789620076730010600,2.3600107421875,-0.9854660034179688,-0.002778209513053298,-0.4394327700138092
1789620076739982600,2.369982666015625,-1.0087745189666748,0.07417702674865723,-0.488353431224823
1789620076749955600,2.37995556640625,-1.039312720298767,0.09111100435256958,-0.5262113213539124
1789620076759927800,2.389927734375,-1.0165786743164062,0.14594069123268127,-0.5396184921264648
1789620076769900500,2.399900634765625,-1.063960313796997,0.21349284052848816,-0.6238497495651245
1789620076779872800,2.409872802734375,-1.2569806575775146,0.40522685647010803,-0.7960662245750427
1789620076789845800,2.419845703125,-1.5309655666351318,0.21616078913211823,-0.8635696768760681
1789620076799817500,2.4298173828125,-1.8036586046218872,-0.12062228471040726,-0.7077334523200989
1789620076809790700,2.439790771484375,-1.8533416986465454,-0.3458833694458008,-0.511288046836853
1789620076819762700,2.4497626953125,-1.9777939319610596,-0.6378201246261597,-0.49116837978363037
1789620076829735700,2.459735595703125,-1.9462285041809082,-0.7386796474456787,-0.2892158329486847
1789620076839707600,2.469707763671875,-1.8474763631820679,-0.8882585167884827,-0.10466436296701431
1789620076849680600,2.4796806640625,-1.7851085662841797,-0.8795760273933411,0.015587215311825275
1789620076859652900,2.48965283203125,-1.5717662572860718,-0.6470853090286255,0.06053711473941803
1789620076869625600,2.49962548828125,-1.230137825012207,-0.4084745943546295,0.0550086572766304
1789620076879597600,2.50959765625,-1.0748459100723267,-0.11336437612771988,0.12136877328157425
1789620076889570800,2.51957080078125,-0.8135251402854919,0.044373590499162674,0.19584886729717255
1789620076899542500,2.52954248046875,-0.7460923194885254,0.012240154668688774,0.2823456823825836
1789620076909515500,2.539515625,-0.7070317268371582,-0.07030319422483444,0.28371959924697876
1789620076919487700,2.54948779296875,-0.5629320740699768,-0.2011789083480835,0.34921231865882874
1789620076929460500,2.55946044921875,-0.4604203402996063,-0.2998860478401184,0.43252530694007874
1789620076939432700,2.5694326171875,-0.4347812831401825,-0.3630487620830536,0.45738112926483154
1789620076949405700,2.57940576171875,-0.42009130120277405,-0.3852046728134155,0.49694931507110596
1789620076959377400,2.58937744140625,-0.4185810089111328,-0.3788202702999115,0.5297964811325073
1789620076969350700,2.5993505859375,-0.3932322561740875,-0.28967735171318054,0.5325224995613098
1789620076979322600,2.609322509765625,-0.413110613822937,-0.1995069831609726,0.4912616014480591
1789620076989295600,2.619295654296875,-0.5653653740882874,-0.1773659884929657,0.4078303575515747
1789620076999267600,2.629267578125,-0.6751217246055603,-0.13787557184696198,0.3034674823284149
1789620077009240600,2.639240478515625,-0.6615102887153625,-0.1121494397521019,0.23790736496448517
1789620077019212800,2.649212890625,-0.6308320164680481,-0.021559087559580803,0.14190733432769775
1789620077029185500,2.659185546875,-0.5764492154121399,0.06855615973472595,0.05953017249703407
1789620077039157500,2.669157470703125,-0.5194982886314392,-0.07137564569711685,0.12690362334251404
1789620077049130800,2.679130859375,-0.37918487191200256,-0.3456897437572479,0.35735493898391724
1789620077059102500,2.6891025390625,-0.21841037273406982,-0.5165456533432007,0.5469805002212524
1789620077069075700,2.69907568359375,-0.11497052758932114,-0.42512598633766174,0.43302759528160095
1789620077079047700,2.709047607421875,0.10631845146417618,-0.19109751284122467,0.21858347952365875
1789620077089020700,2.719020751953125,0.3481673002243042,0.09960249066352844,0.08052040636539459
1789620077098992600,2.72899267578125,0.5576054453849792,0.3261149823665619,0.03825311362743378
1789620077108965600,2.738965576171875,0.5817946791648865,0.31589803099632263,0.07057137042284012
1789620077118937900,2.748937744140625,0.4370947778224945,0.05320010334253311,0.18144862353801727
1789620077128909600,2.75890966796875,0.3285331428050995,-0.20843975245952606,0.3055785596370697
1789620077138882600,2.768882568359375,0.2956790626049042,-0.278245210647583,0.3499588072299957
1789620077148854800,2.778854736328125,0.32645562291145325,-0.16926465928554535,0.31161248683929443
1789620077158827500,2.78882763671875,0.3784881830215454,-0.06531322747468948,0.2618952691555023
1789620077168799700,2.7987998046875,0.43268057703971863,-0.043365318328142166,0.2489701360464096
1789620077178772700,2.808772705078125,0.42897292971611023,-0.10249388217926025,0.2845363914966583
1789620077188744400,2.818744384765625,0.34755343198776245,-0.19051827490329742,0.3549402356147766
1789620077198717700,2.8287177734375,0.25047004222869873,-0.259792685508728,0.41853946447372437
1789620077208689700,2.838689697265625,0.16893255710601807,-0.30839937925338745,0.4438914358615875
1789620077218662700,2.84866259765625,0.10602869838476181,-0.32160598039627075,0.42778676748275757
1789620077228634600,2.858634521484375,0.09738514572381973,-0.2821720242500305,0.4024377167224884
1789620077238607600,2.868607666015625,0.1398199498653412,-0.2009381651878357,0.35385259985923767
1789620077248579800,2.878579833984375,0.15522900223731995,-0.0812799409031868,0.225793719291687
1789620077258552600,2.888552490234375,0.18245050311088562,0.08646512031555176,0.056643836200237274
1789620077268524500,2.898524658203125,0.14752714335918427,0.2224956601858139,-0.0642990916967392
1789620077278497800,2.908497802734375,0.05637086555361748,0.2520575523376465,-0.10161131620407104
1789620077288469500,2.918469482421875,-0.0990256518125534,0.18382015824317932,-0.04994092881679535
1789620077298442500,2.9284423828125,-0.21813340485095978,0.10656878352165222,0.02443263866007328
1789620077308414700,2.938414794921875,-0.21278390288352966,0.1079792007803917,0.030594659969210625
1789620077318387700,2.9483876953125,-0.09155628085136414,0.13790886104106903,-0.010876083746552467
1789620077328359700,2.958359619140625,0.04899816960096359,0.18318873643875122,-0.061110757291316986
1789620077338332700,2.968332763671875,0.16908542811870575,0.25456199049949646,-0.1114002913236618
1789620077348304600,2.9783046875,0.25643259286880493,0.2954377830028534,-0.17402026057243347
1789620077358277600,2.988277587890625,0.3098992705345154,0.3290362060070038,-0.23818513751029968
1789620077368249600,2.99824951171875,0.34748128056526184,0.36060425639152527,-0.32744285464286804
1789620077378222600,3.00822265625,0.38087570667266846,0.39831462502479553,-0.45868155360221863
1789620077388194600,3.018194580078125,0.35588061809539795,0.44761744141578674,-0.5912875533103943
1789620077398167600,3.02816748046875,0.24947933852672577,0.46326300501823425,-0.7261393666267395
1789620077408139800,3.038139892578125,0.16469892859458923,0.4416104257106781,-0.8583778142929077
1789620077418112800,3.04811279296875,0.12334457039833069,0.36747947335243225,-0.9422506093978882
1789620077428084700,3.058084716796875,0.13161848485469818,0.3145803213119507,-0.9777702689170837
1789620077438057700,3.0680576171875,0.18224704265594482,0.3557852804660797,-1.0005173683166504
1789620077448029200,3.078029296875,0.3840731084346771,0.5888131856918335,-1.0580347776412964
1789620077458002400,3.08800244140625,0.7081385254859924,0.8147653937339783,-1.1477108001708984
1789620077467974100,3.09797412109375,1.0944411754608154,1.0202269554138184,-1.1556785106658936
1789620077477947100,3.107947021484375,1.5832878351211548,1.2840982675552368,-1.1148897409439087
1789620077487919400,3.11791943359375,1.8913482427597046,1.5627272129058838,-1.0939266681671143
1789620077497892400,3.127892333984375,2.0819408893585205,1.7224165201187134,-1.0890001058578491
1789620077507864300,3.1378642578125,2.020885705947876,1.5656968355178833,-0.9682902097702026
1789620077517837300,3.14783740234375,1.7161269187927246,1.012561559677124,-0.6981604695320129
1789620077527809300,3.157809326171875,1.5052356719970703,0.48935824632644653,-0.41965532302856445
1789620077537782300,3.1677822265625,1.463800311088562,0.25458914041519165,-0.2645014226436615
1789620077547754200,3.177754150390625,1.464680790901184,0.3786887228488922,-0.18929696083068848
1789620077557727200,3.187727294921875,1.4530006647109985,0.5479504466056824,-0.12709936499595642
1789620077567699200,3.19769921875,1.3785994052886963,0.6463590264320374,0.005064000841230154
1789620077577672200,3.207672119140625,1.3469600677490234,0.6325238943099976,0.21902263164520264
1789620077587644400,3.21764453125,1.3702424764633179,0.578763484954834,0.417703777551651
1789620077597617200,3.2276171875,1.384202480316162,0.6447558403015137,0.5004705786705017
1789620077607589000,3.237589111328125,1.318623423576355,0.8306447267532349,0.5370040535926819
1789620077617562400,3.247562255859375,1.199748158454895,0.9581574201583862,0.5260244011878967
1789620077627534000,3.2575341796875,0.9831303954124451,0.8563376069068909,0.49876293540000916
1789620077637507300,3.26750732421875,0.7968284487724304,0.6106963753700256,0.46758103370666504
1789620077647479300,3.277479248046875,0.7555806040763855,0.5525060296058655,0.3782269358634949
1789620077657452300,3.287452392578125,0.7928584814071655,0.6417989134788513,0.2240844964981079
1789620077667424300,3.29742431640625,0.8049412369728088,0.7979453802108765,0.07706815004348755
1789620077677397200,3.307397216796875,0.7498210072517395,0.8860107660293579,-0.03743152692914009
1789620077687369500,3.317369384765625,0.6481377482414246,0.8385798931121826,-0.09980116039514542
1789620077697342200,3.32734228515625,0.5377047657966614,0.8034783601760864,-0.1365106999874115
1789620077707314200,3.337314208984375,0.4273417294025421,0.8996304273605347,-0.16448162496089935
1789620077717287400,3.347287353515625,0.3273259401321411,1.1345577239990234,-0.22559984028339386
1789620077727259100,3.357259033203125,0.26886236667633057,1.4348230361938477,-0.34634196758270264
1789620077737231400,3.3672314453125,0.17998388409614563,1.6370887756347656,-0.4748171269893646
1789620077747204400,3.377204345703125,-0.00005805691034765914,1.6973049640655518,-0.5563783049583435
1789620077757176000,3.387176025390625,-0.24579937756061554,1.5337773561477661,-0.5552312731742859
1789620077767149300,3.3971494140625,-0.46555304527282715,1.2528108358383179,-0.5004124641418457
1789620077777121300,3.407121337890625,-0.6187998652458191,0.8332597017288208,-0.4600810408592224
1789620077787094300,3.41709423828125,-0.6468725204467773,0.13520042598247528,-0.37283509969711304
1789620077797066200,3.427066162109375,-0.6770322918891907,-0.6323662400245667,-0.214141845703125
1789620077807039200,3.437039306640625,-0.5453535914421082,-0.9093983769416809,-0.1539086103439331
1789620077817011500,3.447011474609375,-0.31433263421058655,-0.7723795771598816,-0.2336668223142624
1789620077826984200,3.456984130859375,-0.1730133295059204,-0.44878897070884705,-0.36894288659095764
1789620077836956200,3.4669560546875,-0.16367149353027344,-0.22891893982887268,-0.4922664165496826
1789620077846929400,3.476929443359375,-0.3276015818119049,-0.1408338099718094,-0.5603999495506287
1789620077856901000,3.486901123046875,-0.5516684651374817,-0.1319897174835205,-0.5902499556541443
1789620077866874000,3.4968740234375,-0.7305013537406921,-0.20332542061805725,-0.548207700252533
1789620077876846300,3.506846435546875,-0.8672163486480713,-0.2813752293586731,-0.4754698574542999
1789620077886819300,3.5168193359375,-0.9430402517318726,-0.2812279462814331,-0.3881687819957733
1789620077896791300,3.526791259765625,-0.982006311416626,-0.4867536723613739,-0.20967386662960052
1789620077906764300,3.536764404296875,-0.988285481929779,-0.6061181426048279,0.018203504383563995
1789620077916736300,3.546736328125,-1.062557578086853,-0.6492009162902832,0.2313128560781479
1789620077926709200,3.556709228515625,-1.3393281698226929,-0.6081402897834778,0.35720765590667725
1789620077936681200,3.56668115234375,-1.7389887571334839,-0.4431811571121216,0.3804498612880707
1789620077946654200,3.576654296875,-2.0806045532226562,-0.12444419413805008,0.3558238744735718
1789620077956626200,3.586626220703125,-2.300877332687378,-0.013700898736715317,0.351168155670166
1789620077966599200,3.59659912109375,-2.416372299194336,-0.0836472287774086,0.4198204576969147
1789620077976571400,3.6065712890625,-2.4363162517547607,-0.19397106766700745,0.4921974539756775
1789620077986544400,3.61654443359375,-2.39517879486084,-0.3185596168041229,0.5535116791725159
1789620077996516400,3.626516357421875,-2.3367390632629395,-0.2156212329864502,0.5030964016914368
1789620078006489300,3.6364892578125,-2.156339406967163,0.07723220437765121,0.3030927777290344
1789620078016461300,3.64646142578125,-1.8319506645202637,0.6338592171669006,0.031437285244464874
1789620078026434300,3.656434326171875,-1.455428123474121,1.380387783050537,-0.2482638657093048
1789620078036406300,3.66640625,-1.016319751739502,2.027634620666504,-0.5239279270172119
1789620078046379300,3.676379150390625,-0.5012441873550415,2.1715962886810303,-0.6649109125137329
1789620078056351200,3.686351318359375,0.013587714172899723,1.6859370470046997,-0.8053468465805054
1789620078066324200,3.69632421875,0.5761544108390808,0.702261745929718,-1.1809625625610352
1789620078076296400,3.70629638671875,1.1695383787155151,0.019782492890954018,-1.48329758644104
1789620078086269400,3.71626953125,1.776110053062439,-0.6359303593635559,-2.0821001529693604
1789620078096241200,3.7262412109375,2.131754159927368,-0.7409012913703918,-2.42669415473938
1789620078106214400,3.73621435546875,2.2062134742736816,-0.8707734942436218,-2.648599863052368
1789620078116186400,3.746186279296875,2.0825586318969727,-0.9311505556106567,-2.6929030418395996
1789620078126159000,3.7561591796875,1.9062379598617554,-0.754796028137207,-2.4879841804504395
1789620078136131300,3.76613134765625,1.7677479982376099,-0.570090651512146,-2.175291061401367
1789620078146104300,3.776104248046875,1.7890833616256714,-0.5229942202568054,-1.9404656887054443
1789620078156076300,3.786076171875,1.9757730960845947,-0.480469673871994,-1.8305469751358032
1789620078166049300,3.79604931640625,2.0256175994873047,-0.4442371129989624,-1.783668875694275
1789620078176021200,3.806021240234375,1.7944166660308838,-0.5673254728317261,-1.6474714279174805
1789620078185994200,3.815994140625,1.6514232158660889,-0.6606016159057617,-1.3409374952316284
1789620078195966200,3.82596630859375,1.6615153551101685,-0.5390371084213257,-0.8779901266098022
1789620078205939200,3.835939208984375,1.6394816637039185,-0.29111039638519287,-0.4645437002182007
1789620078215911200,3.8459111328125,1.765930414199829,-0.42988425493240356,-0.19475270807743073
1789620078225884200,3.85588427734375,2.0047359466552734,-0.6629960536956787,0.12035437673330307
1789620078235856400,3.8658564453125,2.422834634780884,-0.7417595982551575,0.40778908133506775
1789620078245829400,3.875829345703125,2.806689977645874,-0.5808977484703064,0.5888376832008362
1789620078255801000,3.885801025390625,3.0059220790863037,-0.38983696699142456,0.684411346912384
1789620078265774300,3.8957744140625,2.906818389892578,-0.20066332817077637,0.7102818489074707
1789620078275746300,3.905746337890625,2.661410331726074,-0.08151296526193619,0.7158041596412659
1789620078285719000,3.915718994140625,2.17647123336792,0.062304120510816574,0.7881883382797241
1789620078295691300,3.925691162109375,1.6212350130081177,0.11347276717424393,0.8757706880569458
1789620078305664300,3.935664306640625,1.3075963258743286,-0.12801042199134827,0.998594343662262
1789620078315636200,3.94563623046875,1.2754874229431152,-0.4097054898738861,1.2416080236434937
1789620078325609200,3.955609130859375,1.3709365129470825,-0.6058177351951599,1.5011173486709595
1789620078335581200,3.965581298828125,1.467221736907959,-0.6594820618629456,1.6365997791290283
1789620078345554400,3.975554443359375,1.4946008920669556,-0.6685149669647217,1.7367072105407715
1789620078355526100,3.985526123046875,1.3728896379470825,-0.7369946837425232,1.84747314453125
1789620078365499100,3.9954990234375,1.1254702806472778,-0.7797466516494751,1.9489129781723022
1789620078375471400,4.005471435546875,0.9042531847953796,-0.7647594809532166,1.9583946466445923
1789620078385444000,4.015444091796875,0.740517795085907,-0.7080445289611816,1.9045114517211914
1789620078395416300,4.025416259765625,0.6805670857429504,-0.7105260491371155,1.8235186338424683
1789620078405389300,4.035389404296875,0.6911909580230713,-0.8122377395629883,1.758414626121521
1789620078415361300,4.045361328125,0.7343876957893372,-0.9561017155647278,1.766260027885437
1789620078425334300,4.055334228515625,0.7289133071899414,-1.004296898841858,1.7994039058685303
1789620078435306200,4.06530615234375,0.788340151309967,-0.5701953172683716,1.3876850605010986
1789620078445279200,4.075279296875,0.7907394170761108,-0.11853676289319992,0.6872702836990356
1789620078455251000,4.0852509765625,0.5009954571723938,0.0771443173289299,0.21425823867321014
1789620078465224000,4.095223876953125,0.1687120497226715,0.08590105921030045,0.1277100294828415
1789620078475196200,4.105196044921875,0.02202913537621498,-0.1212124451994896,0.12234055995941162
1789620078485169000,4.1151689453125,0.054480552673339844,-0.3360712230205536,0.13695386052131653
1789620078495141000,4.12514111328125,0.2434438169002533,-0.6041005253791809,0.21755176782608032
1789620078505114000,4.135114013671875,0.5439777970314026,-0.7582051753997803,0.38570669293403625
1789620078515085800,4.1450859375,0.8447844982147217,-0.8234413862228394,0.5531268119812012
1789620078525059000,4.15505908203125,1.087648868560791,-0.8101008534431458,0.6369274854660034
1789620078535031000,4.165031005859375,1.281487226486206,-0.71713787317276,0.6266042590141296
1789620078545004000,4.175004150390625,1.4112327098846436,-0.6313737034797668,0.6065937876701355
1789620078554976000,4.18497607421875,1.4673205614089966,-0.6617087125778198,0.6664645671844482
1789620078564949000,4.194948974609375,1.4571129083633423,-0.80844646692276,0.7778289318084717
1789620078574921200,4.204921142578125,1.3731894493103027,-0.8927440643310547,0.838549792766571
1789620078584894000,4.21489404296875,1.172621250152588,-0.8157251477241516,0.7049446105957031
1789620078594866000,4.224865966796875,0.8939943909645081,-0.6235224604606628,0.4153077304363251
1789620078604839200,4.234839111328125,0.6325169801712036,-0.44133931398391724,0.28351932764053345
1789620078614811000,4.244810791015625,0.42482292652130127,-0.21363452076911926,0.3452785611152649
1789620078624784000,4.254783935546875,0.2547798156738281,0.047035686671733856,0.43627530336380005
1789620078634756000,4.264756103515625,0.017356352880597115,0.0834331065416336,0.48728522658348083
1789620078644728800,4.274728759765625,-0.23014691472053528,-0.14101411402225494,0.7874117493629456
1789620078654701000,4.284701171875,-0.5290949940681458,-0.5150673389434814,1.2112655639648438
1789620078664674000,4.294674072265625,-0.7627983093261719,-0.7084096074104309,1.1278340816497803
1789620078674646000,4.30464599609375,-0.8741354942321777,-0.7731939554214478,0.8257277607917786
1789620078684619000,4.314618896484375,-0.9362838268280029,-0.7508963942527771,0.5294966101646423
1789620078694591000,4.324591064453125,-0.999720573425293,-0.8327619433403015,0.42132407426834106
1789620078704564000,4.33456396484375,-1.2138192653656006,-1.1544438600540161,0.5540837049484253
1789620078714536000,4.344535888671875,-1.491193413734436,-1.5531744956970215,0.7656183242797852
1789620078724509000,4.354509033203125,-1.6713786125183105,-1.8639978170394897,0.9766818284988403
1789620078734481200,4.364481201171875,-1.9055296182632446,-2.2457528114318848,1.1238493919372559
1789620078744454000,4.374453857421875,-2.4488492012023926,-2.3587963581085205,1.3423668146133423
1789620078754426000,4.384426025390625,-2.8664796352386475,-2.164781093597412,1.334384799003601
1789620078764399000,4.394399169921875,-3.0228183269500732,-1.3514013290405273,0.9104085564613342
1789620078774370800,4.404370849609375,-3.169691324234009,-0.2214767336845398,0.4047759771347046
1789620078784344000,4.414343994140625,-3.22760009765625,0.15066221356391907,-0.20951807498931885
1789620078794316000,4.42431591796875,-3.440636396408081,0.0978245660662651,-0.6733930706977844
1789620078804289000,4.4342890625,-3.871863603591919,-0.4289359152317047,-0.7856535315513611
1789620078814261000,4.444260986328125,-4.010594367980957,-1.2275478839874268,-0.7859103083610535
1789620078824234000,4.45423388671875,-3.6197381019592285,-1.9242963790893555,-0.5650889277458191
1789620078834206200,4.464206298828125,-2.623926877975464,-2.6846938133239746,-0.0003110571997240186
1789620078844179000,4.474178955078125,-1.48561692237854,-2.7163305282592773,0.4356478750705719
1789620078854151000,4.48415087890625,-0.9213922023773193,-2.0802109241485596,0.3148740530014038
1789620078864124200,4.494124267578125,-0.9818251729011536,-1.5418682098388672,0.1014760211110115
1789620078874095900,4.504095947265625,-1.2743257284164429,-1.2373567819595337,-0.08254121243953705
1789620078884068900,4.51406884765625,-1.526183009147644,-1.214242935180664,-0.32395756244659424
1789620078894041000,4.524041015625,-1.5243891477584839,-1.212683916091919,-0.5392658710479736
1789620078904014000,4.53401416015625,-1.365034580230713,-1.1769959926605225,-0.7744717597961426
1789620078913986000,4.543986083984375,-1.0743855237960815,-1.120448112487793,-1.1223652362823486
1789620078923959000,4.553958984375,-0.7132747173309326,-0.7238519787788391,-1.3666999340057373
1789620078933931000,4.563930908203125,-0.2823014557361603,-0.5135093927383423,-1.4221829175949097
1789620078943904000,4.573904052734375,-0.1996433436870575,-0.6189442276954651,-1.3094401359558105
1789620078953876000,4.5838759765625,-0.24818211793899536,-0.9350576996803284,-1.0666210651397705
1789620078963849000,4.593848876953125,-0.2615799307823181,-1.3265506029129028,-0.9976345300674438
1789620078973821000,4.603821044921875,-0.4751220643520355,-1.5241659879684448,-1.037760615348816
1789620078983794000,4.6137939453125,-0.6083728075027466,-1.459389090538025,-1.0695617198944092
1789620078993766100,4.62376611328125,-0.6447854042053223,-1.5086698532104492,-1.0884709358215332
1789620079003739100,4.6337392578125,-0.5202157497406006,-1.283947467803955,-1.1779193878173828
1789620079013710800,4.6437109375,-0.2924920618534088,-0.7966167330741882,-1.3002716302871704
1789620079023684000,4.65368408203125,-0.19529466331005096,-0.46207016706466675,-1.4793998003005981
1789620079033656000,4.663656005859375,-0.047143809497356415,-0.3897054195404053,-1.4993247985839844
1789620079043629000,4.673629150390625,0.025308553129434586,-0.5255357027053833,-1.3495720624923706
1789620079053601000,4.68360107421875,0.028914738446474075,-0.7011865973472595,-1.1157745122909546
1789620079063574000,4.693573974609375,0.007250988855957985,-0.7157658338546753,-0.8759275078773499
1789620079073546000,4.7035458984375,-0.025666214525699615,-0.7063179612159729,-0.6778019070625305
1789620079083519000,4.71351904296875,0.004863198380917311,-0.8235772252082825,-0.46404996514320374
1789620079093491200,4.7234912109375,0.10849931091070175,-0.9636602997779846,-0.34348946809768677
1789620079103464200,4.733464111328125,0.21149547398090363,-0.8542336821556091,-0.33307144045829773
1789620079113436000,4.743435791015625,0.2859973907470703,-0.4360164701938629,-0.3807707726955414
1789620079123409200,4.7534091796875,0.2833848297595978,-0.2446179986000061,-0.3037223219871521
1789620079133381000,4.763381103515625,0.2218325287103653,-0.35295194387435913,-0.11390499770641327
1789620079143353900,4.773353759765625,0.23784105479717255,-0.3782961666584015,0.011986621655523777
1789620079153326000,4.783326171875,0.2094845175743103,-0.4417475759983063,0.11186128854751587
1789620079163299000,4.793299072265625,0.27104854583740234,-0.5185763239860535,0.17862433195114136
1789620079173271000,4.80327099609375,0.42676490545272827,-0.4967937767505646,0.09315258264541626
1789620079183244000,4.813244140625,0.5289746522903442,-0.2645435035228729,-0.0723721981048584
1789620079193216000,4.823216064453125,0.5807137489318848,0.1773524135351181,-0.23220235109329224
1789620079203189000,4.83318896484375,0.5943520665168762,0.2958662807941437,-0.2799437642097473
1789620079213161000,4.843160888671875,0.6916032433509827,0.47603097558021545,-0.392045795917511
1789620079223134000,4.853134033203125,0.8324024081230164,0.8135296702384949,-0.5858496427536011
1789620079233106000,4.86310595703125,1.0600569248199463,1.117698311805725,-0.7332931160926819
1789620079243079000,4.873078857421875,1.4134812355041504,1.3296257257461548,-0.8243237137794495
1789620079253051100,4.883051025390625,1.8155677318572998,1.6232954263687134,-0.8707168102264404
1789620079263024000,4.893024169921875,2.314055919647217,2.1438512802124023,-1.0326406955718994
1789620079272995800,4.902995849609375,2.6726040840148926,2.284736156463623,-1.164905309677124
1789620079282969000,4.912968994140625,2.804259777069092,1.7630085945129395,-0.9972579479217529
1789620079292941000,4.922941162109375,2.9528629779815674,1.2443201541900635,-0.825104296207428
1789620079302913800,4.932913818359375,3.0517919063568115,0.956611692905426,-0.7310827374458313
1789620079312886000,4.942885986328125,3.0600473880767822,0.4418826103210449,-0.5096850991249084
1789620079322859000,4.95285888671875,2.8587992191314697,0.043360255658626556,-0.31436753273010254
1789620079332831000,4.9628310546875,2.544116497039795,-0.1475798636674881,-0.1348278522491455
1789620079342804000,4.972803955078125,2.2116756439208984,-0.08366027474403381,0.16594050824642181
1789620079352776000,4.98277587890625,2.070969820022583,-0.13169917464256287,0.3864552974700928
1789620079362749200,4.992749267578125,1.9296897649765015,0.08624407649040222,0.5661957859992981
1789620079372721000,5.002720947265625,1.8495811223983765,0.26951029896736145,0.718930721282959
1789620079382694000,5.01269384765625,1.7382636070251465,0.46979227662086487,0.843254029750824
1789620079392666000,5.022666015625,1.6977665424346924,0.5751112103462219,1.0306748151779175
1789620079402638800,5.032638916015625,1.7001780271530151,0.5386109948158264,1.2223738431930542
1789620079412611000,5.042611083984375,1.6852121353149414,0.5190165638923645,1.3767818212509155
1789620079422584000,5.052583984375,1.6452900171279907,0.5091495513916016,1.411415457725525
1789620079432556000,5.06255615234375,1.5952731370925903,0.3878830075263977,1.447407841682434
1789620079442529000,5.072529052734375,1.515195369720459,0.2262837290763855,1.5323375463485718
1789620079452501200,5.082501220703125,1.4776633977890015,0.07132398337125778,1.5651775598526
1789620079462474000,5.092473876953125,1.2983776330947876,-0.12311021238565445,1.638707160949707
1789620079472446200,5.1024462890625,1.1833971738815308,-0.14696921408176422,1.487181305885315
1789620079482419200,5.112419189453125,1.2288994789123535,0.14372999966144562,1.286463975906372
1789620079492391200,5.12239111328125,1.469536542892456,0.5751844644546509,1.0090911388397217
1789620079502364200,5.1323642578125,1.647580862045288,0.845137894153595,0.7381177544593811
1789620079512336100,5.142336181640625,1.6730388402938843,0.8529590964317322,0.5187795162200928
1789620079522309000,5.15230908203125,1.6241055727005005,0.6576883792877197,0.36770397424697876
1789620079532281000,5.162281005859375,1.5500420331954956,0.4408591389656067,0.2788878381252289
1789620079542254300,5.17225439453125,1.3813081979751587,0.32903993129730225,0.27498629689216614
1789620079552226000,5.18222607421875,1.180835485458374,0.35831525921821594,0.30285733938217163
1789620079562199000,5.192198974609375,0.9477894902229309,0.44358116388320923,0.3485691547393799
1789620079572171300,5.202171142578125,0.7021661400794983,0.5267202854156494,0.3916647136211395
1789620079582144300,5.212144287109375,0.4776059687137604,0.6252052783966064,0.3947544991970062
1789620079592116200,5.2221162109375,0.3617962896823883,0.6710111498832703,0.3973638713359833
1789620079602089200,5.232089111328125,0.2989182472229004,0.6824970841407776,0.36025696992874146
1789620079612061200,5.242061279296875,0.16421717405319214,0.5300710797309875,0.27447310090065
1789620079622034200,5.2520341796875,0.034576885402202606,0.5180774927139282,0.24364621937274933
1789620079632006100,5.262006103515625,-0.04267023131251335,0.49957039952278137,0.25208523869514465
1789620079641979100,5.271979248046875,-0.10879785567522049,0.23421703279018402,0.20335152745246887
1789620079651951000,5.281951171875,-0.145849347114563,-0.004966529086232185,0.31300318241119385
1789620079661924000,5.291924072265625,-0.18937206268310547,-0.12083667516708374,0.42952099442481995
1789620079671896300,5.301896240234375,-0.26536881923675537,-0.10097081959247589,0.3670988976955414
1789620079681869300,5.311869384765625,-0.3327329456806183,0.1130402684211731,0.24553945660591125
1789620079691841000,5.321841064453125,-0.432533323764801,0.19968675076961517,0.19587096571922302
1789620079701814300,5.331814208984375,-0.5228637456893921,0.36776256561279297,0.18994756042957306
1789620079711786200,5.3417861328125,-0.6226023435592651,0.34253549575805664,0.18792809545993805
1789620079721759000,5.351759033203125,-0.6834294199943542,0.15275704860687256,0.17918120324611664
1789620121583747800,47.213747802734375,-0.05198650062084198,0.02563345804810524,0.31331637501716614
1789620121593720000,47.22371997070312,-0.02346857450902462,-0.40367263555526733,0.35913604497909546
1789620121603691800,47.23369189453125,-0.049076732248067856,-0.7276768088340759,0.36645787954330444
1789620121613664800,47.24366479492188,-0.06802991777658463,-0.7627269625663757,0.35013270378112793
1789620121623637000,47.253636962890624,-0.051834702491760254,-0.5742382407188416,0.32186856865882874
1789620121633608700,47.26360864257813,0.010555438697338104,-0.32615920901298523,0.2756099998950958
1789620121643581000,47.273580810546875,0.09854361414909363,-0.13465741276741028,0.1836228221654892
1789620121653553000,47.28355297851562,0.18554402887821198,-0.03653457388281822,0.06896974891424179
1789620121663526000,47.29352587890625,0.2603468894958496,-0.02857039123773575,-0.03675641492009163
1789620121673497900,47.30349780273438,0.31657183170318604,-0.09152884781360626,-0.10657624155282974
1789620121683469800,47.3134697265625,0.3589578866958618,-0.21108613908290863,-0.12402314692735672
1789620121693441800,47.32344189453125,0.3982999622821808,-0.34683623909950256,-0.08225226402282715
1789620121703414000,47.3334140625,0.4144027829170227,-0.4282972812652588,0.016459932550787926
1789620121713386800,47.34338671875,0.38832056522369385,-0.444906622171402,0.1557493805885315
1789620121723359000,47.35335888671875,0.3376765847206116,-0.39543628692626953,0.3073679506778717
1789620121733331000,47.3633310546875,0.2756717801094055,-0.30085891485214233,0.45472249388694763
1789620121743303000,47.373302978515625,0.20972952246665955,-0.21520525217056274,0.5608976483345032
1789620121753275000,47.38327490234375,0.14872848987579346,-0.16036677360534668,0.6055189371109009
1789620121763246800,47.393246826171875,0.0849766731262207,-0.09945628046989441,0.5816157460212708
1789620121773219800,47.4032197265625,0.02279799059033394,-0.02851286716759205,0.4986073970794678
1789620121783191800,47.41319189453125,-0.042643867433071136,0.011944277212023735,0.3741011619567871
1789620121793163800,47.42316381835938,-0.10765375941991806,-0.004591023549437523,0.23590733110904694
1789620121803135700,47.4331357421875,-0.16894720494747162,-0.04378369823098183,0.11293001472949982
1789620121813108000,47.44310791015625,-0.20890527963638306,-0.06671538203954697,0.004037085920572281
1789620121823080000,47.453079833984376,-0.2237854301929474,-0.06103485822677612,-0.08732239156961441
1789620121833053000,47.46305297851563,-0.2190852165222168,-0.02870195172727108,-0.1579480916261673
1789620121843025000,47.47302490234375,-0.2161882221698761,-0.0027545075863599777,-0.18934835493564606
1789620121852996900,47.48299682617188,-0.21850597858428955,0.011332016438245773,-0.1893741935491562
1789620121862968800,47.49296875,-0.21701699495315552,0.011453457176685333,-0.17898227274417877
1789620121872940800,47.50294091796875,-0.201587975025177,-0.009811085648834705,-0.17989227175712585
1789620121882913800,47.51291381835937,-0.16898129880428314,-0.05163150280714035,-0.1911449283361435
1789620121892886000,47.52288598632813,-0.1159319281578064,-0.10981118679046631,-0.19575458765029907
1789620121902857700,47.53285766601562,-0.05349411815404892,-0.16687341034412384,-0.18736962974071503
1789620121912830000,47.54282983398438,0.01329663023352623,-0.19582968950271606,-0.1569768339395523
1789620121922802000,47.552802001953125,0.0740092471241951,-0.15726977586746216,-0.10303743183612823
1789620121932774000,47.56277392578125,0.11338993906974792,-0.08598468452692032,-0.03881184384226799
1789620121942747000,47.57274682617187,0.1184757798910141,-0.02022324688732624,0.04115888848900795
1789620121952718800,47.58271875,0.08972988277673721,0.020862670615315437,0.13220277428627014
1789620121962690800,47.59269091796875,0.04345107078552246,0.029044434428215027,0.2258794754743576
1789620121972663000,47.6026630859375,-0.0017092167399823666,-0.011544270440936089,0.2935732901096344
1789620121982634800,47.612634765625,-0.033610157668590546,-0.09373261779546738,0.3147512972354889
1789620121992607700,47.622607666015625,-0.06686078757047653,-0.16157051920890808,0.28311559557914734
1789620122002580000,47.632580078125,-0.088588185608387,-0.1543181985616684,0.2082192450761795
1789620122012551700,47.6425517578125,-0.10265100747346878,-0.07470513135194778,0.11611462384462357
1789620122022524000,47.65252392578125,-0.11808083206415176,0.02743908204138279,0.0291802566498518
1789620122032495900,47.66249584960938,-0.12329157441854477,0.10114765912294388,-0.04117752984166145
1789620122042468900,47.67246875,-0.12294376641511917,0.11322775483131409,-0.083524189889431
1789620122052440800,47.68244091796875,-0.13115668296813965,0.05764811486005783,-0.09577286243438721
1789620122062413000,47.6924130859375,-0.15942054986953735,-0.028186896815896034,-0.08877833932638168
1789620122072384800,47.702384765625,-0.19361206889152527,-0.09114881604909897,-0.07006936520338058
1789620122082357000,47.71235693359375,-0.23071417212486267,-0.1045711487531662,-0.045275866985321045
1789620122092328700,47.72232861328125,-0.2693915367126465,-0.0934164971113205,-0.019450129941105843
1789620122102302000,47.73230200195312,-0.305519163608551,-0.09080766886472702,-0.0218520350754261
1789620122112274000,47.74227392578125,-0.31634119153022766,-0.10183235257863998,-0.07248884439468384
1789620122122246000,47.75224584960937,-0.29503723978996277,-0.1316096931695938,-0.1587827205657959
1789620122132217900,47.7622177734375,-0.23448334634304047,-0.13497060537338257,-0.2424674928188324
1789620122142190000,47.772190185546876,-0.15866979956626892,-0.08294415473937988,-0.2912592589855194
1789620122152162800,47.782162841796875,-0.10486330091953278,-0.019596870988607407,-0.29196473956108093
1789620122162134800,47.792134765625,-0.07918962836265564,0.008133294060826302,-0.2555936872959137
1789620122172107000,47.80210693359375,-0.08031187951564789,-0.010821488685905933,-0.1837591826915741
1789620122182078700,47.81207861328125,-0.1005825325846672,-0.044565338641405106,-0.09504502266645432
1789620122192051000,47.82205102539063,-0.12998543679714203,-0.08461954444646835,-0.005845638457685709
1789620122202023000,47.83202294921875,-0.14944595098495483,-0.13528405129909515,0.0639190599322319
1789620122211996000,47.841995849609376,-0.16098755598068237,-0.1799953281879425,0.10258496552705765
1789620122221968000,47.8519677734375,-0.13713042438030243,-0.17823392152786255,0.12187424302101135
1789620122231939800,47.86193994140625,-0.0987851694226265,-0.1086772084236145,0.14779052138328552
1789620122241911800,47.871911865234374,-0.07720477133989334,-0.03825364634394646,0.18304304778575897
1789620122251884000,47.88188403320312,-0.08360248804092407,-0.021146830171346664,0.20338721573352814
1789620122261856800,47.89185668945313,-0.10451708734035492,-0.0645504966378212,0.2002694457769394
1789620122271829000,47.9018291015625,-0.1471247375011444,-0.13115428388118744,0.17286604642868042
1789620122281801000,47.91180102539062,-0.18925541639328003,-0.17081356048583984,0.13271889090538025
1789620122291773000,47.92177294921875,-0.21877682209014893,-0.17459072172641754,0.0774678960442543
1789620122301745000,47.931744873046874,-0.23333792388439178,-0.15590225160121918,0.016821058467030525
1789620122311716900,47.941716796875,-0.22818709909915924,-0.13764575123786926,-0.04166009649634361
1789620122321689900,47.95168994140625,-0.20390599966049194,-0.11054328829050064,-0.0835644006729126
1789620122331661800,47.961661865234376,-0.16841697692871094,-0.0506751611828804,-0.0940183773636818
1789620122341633800,47.9716337890625,-0.1308877021074295,0.024834509938955307,-0.06123992055654526
1789620122351606000,47.98160595703125,-0.11786884814500809,0.058046258985996246,0.010643855668604374
1789620122361578000,47.991577880859374,-0.13400094211101532,0.0027150926180183887,0.09813269227743149
1789620122371550700,48.00155078125,-0.16499561071395874,-0.11873943358659744,0.16930913925170898
1789620122381523000,48.01152294921875,-0.1955508589744568,-0.2607618272304535,0.18025712668895721
1789620122391495000,48.021494873046876,-0.20885440707206726,-0.3467044234275818,0.11416704952716827
1789620122401467000,48.031466796875,-0.19265785813331604,-0.3286098539829254,0.008375908248126507
1789620122411438800,48.04143896484375,-0.16717833280563354,-0.24189971387386322,-0.09396883845329285
1789620122421412000,48.051412109375,-0.15578480064868927,-0.1360688954591751,-0.16126932203769684
1789620122431383800,48.0613837890625,-0.160063698887825,-0.06716545671224594,-0.17313742637634277
1789620122441356000,48.07135595703125,-0.18422549962997437,-0.05111192166805267,-0.1374390870332718
1789620122451327700,48.08132763671875,-0.218734472990036,-0.05885079875588417,-0.07334798574447632
1789620122461300000,48.091300048828124,-0.24497592449188232,-0.05613544210791588,-0.0029406624380499125
1789620122471272000,48.10127197265625,-0.2653941214084625,-0.033915091305971146,0.057676613330841064
1789620122481245000,48.11124487304688,-0.2696474492549896,-0.038842737674713135,0.09159436821937561
1789620122491217000,48.121216796875,-0.24719274044036865,-0.05453488230705261,0.10467128455638885
1789620122501189400,48.131189453125,-0.21626704931259155,-0.05533862113952637,0.11533964425325394
1789620122511161300,48.14116137695312,-0.1838313490152359,-0.043712060898542404,0.12814731895923615
1789620122521133300,48.15113330078125,-0.16747741401195526,-0.044019654393196106,0.1444392055273056
1789620122531105500,48.16110546875,-0.18195755779743195,-0.07842210680246353,0.16537778079509735
1789620122541078300,48.17107836914062,-0.20249345898628235,-0.13253167271614075,0.17822833359241486
1789620122551050500,48.18105053710938,-0.2131335735321045,-0.1778818517923355,0.17800675332546234
1789620122561022500,48.1910224609375,-0.21009065210819244,-0.22781984508037567,0.15681464970111847
1789620122570994400,48.20099438476562,-0.1887637972831726,-0.26818352937698364,0.11622647196054459
1789620122580966400,48.21096630859375,-0.15578533709049225,-0.27779245376586914,0.07558850198984146
1789620122590939600,48.22093969726563,-0.12848180532455444,-0.2633962035179138,0.04603806510567665
1789620122600911400,48.230911376953124,-0.1241091638803482,-0.2132693976163864,0.0416899211704731
1789620122610883600,48.24088354492188,-0.13754162192344666,-0.13750086724758148,0.0507902093231678
1789620122620855300,48.250855224609374,-0.1662219911813736,-0.09249211847782135,0.05150420218706131
1789620122630827500,48.26082763671875,-0.19678710401058197,-0.13105762004852295,0.035768650472164154
1789620122640799500,48.27079956054688,-0.21127548813819885,-0.24661830067634583,-0.016586434096097946
1789620122650772200,48.280772216796876,-0.21214847266674042,-0.3542214632034302,-0.09665783494710922
1789620122660744400,48.290744384765624,-0.18449661135673523,-0.34989649057388306,-0.18199829757213593
1789620122670716400,48.30071630859375,-0.14217925071716309,-0.24944551289081573,-0.24513359367847443
1789620122680688400,48.3106884765625,-0.11116327345371246,-0.1253581941127777,-0.27143630385398865
1789620122690660400,48.32066040039062,-0.08964359760284424,-0.030118221417069435,-0.24859090149402618
1789620122700633600,48.330633544921874,-0.09387669712305069,0.020359333604574203,-0.18336929380893707
1789620122710605300,48.34060522460938,-0.11704166978597641,0.021391307935118675,-0.09443143010139465
1789620122720577500,48.35057763671875,-0.14592178165912628,-0.008857407607138157,-0.0158908162266016
1789620122730549200,48.36054931640625,-0.17236830294132233,-0.07968444377183914,0.030360568314790726
1789620122740521500,48.370521484375,-0.17541949450969696,-0.1748216152191162,0.028360268101096153
1789620122750493400,48.38049340820312,-0.15005899965763092,-0.26841920614242554,-0.015034609474241734
1789620122760466400,48.390466552734374,-0.10038039833307266,-0.30790483951568604,-0.09175149351358414
1789620122770438400,48.4004384765625,-0.04664952680468559,-0.2607647478580475,-0.15298183262348175
1789620122780410600,48.41041064453125,-0.004399808589369059,-0.1629742681980133,-0.16643691062927246
1789620122790382300,48.42038232421875,0.01587989740073681,-0.09137332439422607,-0.12501037120819092
1789620122800354600,48.4303544921875,0.010263023898005486,-0.08175478130578995,-0.03447142243385315
1789620122810327600,48.44032763671875,-0.016032496467232704,-0.11118511110544205,0.0855196937918663
1789620122820299300,48.45029931640625,-0.05595248192548752,-0.13877785205841064,0.2074866145849228
1789620122830271500,48.460271484375,-0.10578608512878418,-0.14583709836006165,0.30876263976097107
1789620122840243500,48.470243408203125,-0.15520796179771423,-0.10335541516542435,0.38410186767578125
1789620122850215400,48.48021533203125,-0.20760352909564972,-0.054068293422460556,0.41412287950515747
1789620122860187600,48.49018774414063,-0.24644359946250916,-0.04591422900557518,0.3946477174758911
1789620122870160400,48.50016040039063,-0.26281750202178955,-0.0832514837384224,0.33568426966667175
1789620122880132400,48.51013232421875,-0.2743071913719177,-0.1168251559138298,0.2703031301498413
1789620122890104600,48.5201044921875,-0.2853987216949463,-0.12017301470041275,0.22109189629554749
1789620122900076300,48.530076171875,-0.31193873286247253,-0.1452469378709793,0.179227814078331
1789620122910048500,48.54004858398437,-0.32849398255348206,-0.24515968561172485,0.10590112954378128
1789620122920021500,48.550021484375,-0.334134042263031,-0.37004438042640686,-0.013767477124929428
1789620122929993500,48.55999340820313,-0.3464759290218353,-0.42325299978256226,-0.1830638349056244
1789620122939965400,48.56996533203125,-0.3731403052806854,-0.37838539481163025,-0.40102332830429077
1789620122949937400,48.5799375,-0.38275110721588135,-0.2238389551639557,-0.6554151177406311
1789620122959909400,48.589909423828125,-0.3765603303909302,0.013977601192891598,-0.880477786064148
1789620122969881600,48.59988159179687,-0.3564137816429138,0.23330728709697723,-1.0123505592346191
1789620122979854300,48.60985424804687,-0.3357849419116974,0.42236775159835815,-0.9110026955604553
1789620122989826600,48.61982666015625,-0.28734657168388367,0.3026578724384308,-0.6942474842071533
1789620122999798500,48.629798583984375,-0.16450639069080353,-0.052747368812561035,-0.44400647282600403
1789620123009770500,48.6397705078125,-0.023391608148813248,-0.4519861042499542,-0.19765715301036835
1789620123019742500,48.649742431640625,0.07448887825012207,-0.7123162150382996,-0.024661138653755188
1789620123029715500,48.65971557617188,0.11852957308292389,-0.7961176633834839,0.040716271847486496
1789620123039687400,48.6696875,0.11564217507839203,-0.7168875336647034,0.03724004700779915
1789620123049659400,48.67965942382813,0.05198277533054352,-0.4985322952270508,0.04032718390226364
1789620123059631400,48.68963134765625,-0.022601449862122536,-0.23342899978160858,0.03964301571249962
