time,seconds_elapsed,z,y,x
1789620074430102800,0.060102783203125,-0.3646682798862457,-0.21907441318035126,-0.15473423898220062
1789620074440075800,0.07007568359375,-0.3912408649921417,-0.1293262243270874,-0.20163075625896454
1789620074450048300,0.08004833984375,-0.40813037753105164,-0.053277261555194855,-0.2355024367570877
1789620074460021200,0.090021240234375,-0.406277060508728,0.013802639208734035,-0.2532876133918762
1789620074469993200,0.0999931640625,-0.3943359851837158,0.030479352921247482,-0.25091978907585144
1789620074479966200,0.10996630859375,-0.3970817029476166,-0.021407999098300934,-0.21590374410152435
1789620074489938000,0.11993798828125,-0.4137565493583679,-0.10761904716491699,-0.14357468485832214
1789620074499911200,0.1299111328125,-0.4348532259464264,-0.19351078569889069,-0.04733169078826904
1789620074509883100,0.139883056640625,-0.4507578909397125,-0.32798418402671814,0.05445485934615135
1789620074519856000,0.149856201171875,-0.4513663053512573,-0.46577319502830505,0.15140889585018158
1789620074529828000,0.159828125,-0.43524911999702454,-0.49639207124710083,0.237561896443367
1789620074539801000,0.169801025390625,-0.380623996257782,-0.42442047595977783,0.3072526752948761
1789620074549773300,0.179773193359375,-0.24068234860897064,-0.2501509487628937,0.19278068840503693
1789620074559746000,0.18974609375,0.0771927610039711,0.19932658970355988,-0.4471898376941681
1789620074569718000,0.199718017578125,0.23008324205875397,0.6769554615020752,-0.9499390125274658
1789620074579691300,0.209691162109375,0.38154172897338867,0.9482231736183167,-1.23856782913208
1789620074589663000,0.2196630859375,0.4135926067829132,1.2280604839324951,-1.4301292896270752
1789620074599636000,0.229635986328125,0.3084926903247833,1.287869930267334,-1.581188678741455
1789620074609608200,0.239608154296875,0.17601776123046875,1.0236276388168335,-1.664862036705017
1789620074619581200,0.249581298828125,0.11777135729789734,0.7306710481643677,-1.6393017768859863
1789620074629553200,0.25955322265625,0.1481553614139557,0.5816738605499268,-1.5149686336517334
1789620074639526100,0.269526123046875,0.2364865243434906,0.5783778429031372,-1.3513736724853516
1789620074649498000,0.279498046875,0.37913981080055237,0.5463096499443054,-1.271371841430664
1789620074659471000,0.28947119140625,0.5651339292526245,0.8479190468788147,-1.1821709871292114
1789620074669443000,0.299443115234375,0.8053513169288635,1.3291860818862915,-1.079224944114685
1789620074679416000,0.309416015625,1.0504666566848755,1.6774178743362427,-0.9783083200454712
1789620074689388000,0.319387939453125,1.2263585329055786,1.7425259351730347,-0.8544215559959412
1789620074699361000,0.329361083984375,1.3055419921875,1.6500060558319092,-0.679834246635437
1789620074709333200,0.339333251953125,1.2804198265075684,1.6397640705108643,-0.4354223608970642
1789620074719306200,0.34930615234375,1.147584080696106,1.7832249402999878,-0.11681130528450012
1789620074729278200,0.3592783203125,0.8918079733848572,1.9622522592544556,0.27430370450019836
1789620074739251200,0.369251220703125,0.533126175403595,2.0381784439086914,0.7345426678657532
1789620074749223200,0.37922314453125,0.41066309809684753,1.8220514059066772,1.2558958530426025
1789620074759196200,0.389196044921875,0.3315189480781555,1.6659035682678223,1.7948476076126099
1789620074769168100,0.399168212890625,0.001826523570343852,1.064589023590088,2.171854257583618
1789620074779141000,0.40914111328125,-0.9352655410766602,-0.7940452694892883,1.6235045194625854
1789620074789113000,0.419113037109375,-1.6629469394683838,-2.0815155506134033,0.9854251742362976
1789620074799086000,0.429086181640625,-2.1918325424194336,-2.6277525424957275,0.7969793081283569
1789620074809058300,0.439058349609375,-2.3741214275360107,-2.927910089492798,0.6773069500923157
1789620074819031300,0.44903125,-2.2692008018493652,-4.021974563598633,0.3068467676639557
1789620074829003000,0.4590029296875,-2.076817512512207,-5.163177490234375,-0.026708822697401047
1789620074838975200,0.468975341796875,-1.7934216260910034,-6.220818042755127,-0.2433706670999527
1789620074848948200,0.4789482421875,-1.6151118278503418,-6.965898036956787,-0.542429506778717
1789620074858920200,0.488920166015625,-1.8274493217468262,-5.765885829925537,-1.1305007934570312
1789620074868893200,0.49889306640625,-1.8256285190582275,-4.090732574462891,-1.3686134815216064
1789620074878865200,0.508865234375,-1.4266014099121094,-2.3541436195373535,-1.551346778869629
1789620074888838100,0.518838134765625,-0.5241365432739258,-1.0953811407089233,-1.5761791467666626
1789620074898810000,0.52881005859375,0.6199726462364197,-0.46806371212005615,-1.4381542205810547
1789620074908783000,0.538783203125,1.470835566520691,-0.2332855761051178,-1.2368067502975464
1789620074918755000,0.548755126953125,1.7249709367752075,-0.3571142852306366,-1.0361260175704956
1789620074928728000,0.55872802734375,1.5529422760009766,-0.8577669858932495,-0.81245356798172
1789620074938700300,0.5687001953125,1.277485728263855,-1.6245924234390259,-0.5655486583709717
1789620074948673300,0.57867333984375,1.051533818244934,-1.9290341138839722,-0.3376023471355438
1789620074958645000,0.58864501953125,0.9231396317481995,-1.840737223625183,-0.09962573647499084
1789620074968618200,0.5986181640625,0.8634805679321289,-1.8757327795028687,0.12944233417510986
1789620074978590200,0.608590087890625,0.7689839005470276,-1.618119478225708,0.31904107332229614
1789620074988563000,0.61856298828125,0.6169611215591431,-1.4885964393615723,0.4152754843235016
1789620074998535200,0.62853515625,0.4510122537612915,-1.6315338611602783,0.3974911570549011
1789620075008508200,0.638508056640625,0.320436954498291,-1.91033935546875,0.3000950813293457
1789620075018480000,0.648480224609375,0.23834973573684692,-2.1721086502075195,0.17145811021327972
1789620075028453000,0.658453125,0.18323056399822235,-2.2491097450256348,0.06380807608366013
1789620075038425000,0.668425048828125,0.1249208077788353,-2.0758912563323975,0.013449514284729958
1789620075048398300,0.6783984375,0.03017405979335308,-1.7609870433807373,0.01642666384577751
1789620075058370000,0.6883701171875,-0.07511381804943085,-1.3120954036712646,0.05280505493283272
1789620075068343000,0.698343017578125,-0.12792935967445374,-0.8310472965240479,0.09858852624893188
1789620075078315000,0.70831494140625,-0.11287033557891846,-0.4071717858314514,0.1344236433506012
1789620075088288000,0.7182880859375,-0.056997478008270264,-0.07475550472736359,0.15279226005077362
1789620075098260200,0.72826025390625,0.012281307950615883,0.2079402208328247,0.16584312915802002
1789620075108233200,0.738233154296875,0.09745638817548752,0.4384402632713318,0.20116223394870758
1789620075118205200,0.748205078125,0.18512140214443207,0.5392084121704102,0.2645246386528015
1789620075128178200,0.75817822265625,0.21680504083633423,0.4604797661304474,0.3352890908718109
1789620075138150100,0.768150146484375,0.19517196714878082,0.34807613492012024,0.4103001058101654
1789620075148123100,0.778123046875,0.16738136112689972,0.3005230128765106,0.5036700367927551
1789620075158095000,0.78809521484375,0.20361898839473724,0.28237801790237427,0.6086574196815491
1789620075168068000,0.798068115234375,0.3593990206718445,0.3808089792728424,0.7204196453094482
1789620075178040000,0.8080400390625,0.4128793478012085,0.5601348876953125,0.8063790202140808
1789620075188013000,0.818012939453125,0.34070396423339844,0.6545538306236267,0.8416967988014221
1789620075197985300,0.8279853515625,0.2440607100725174,0.5764424204826355,0.8110564947128296
1789620075207958300,0.837958251953125,0.1392006129026413,0.33885887265205383,0.7456269264221191
1789620075217930000,0.847929931640625,0.025109412148594856,0.08385220170021057,0.678756594657898
1789620075227903200,0.8579033203125,-0.034662842750549316,-0.02507109008729458,0.6305350065231323
1789620075237875200,0.867875244140625,0.01794571243226528,0.01919396035373211,0.5937697291374207
1789620075247848000,0.877847900390625,0.1017117127776146,0.05056972801685333,0.5441630482673645
1789620075257820200,0.887820068359375,0.17763878405094147,0.026954496279358864,0.5270237922668457
1789620075267793200,0.897793212890625,0.23407889902591705,-0.12068955600261688,0.5535494089126587
1789620075277765000,0.90776513671875,0.24247565865516663,-0.35894569754600525,0.5766998529434204
1789620075287738000,0.917738037109375,0.17569129168987274,-0.5541791319847107,0.5713902711868286
1789620075297710000,0.9277099609375,0.09043486416339874,-0.6101455688476562,0.5465320944786072
1789620075307683300,0.937683349609375,0.020614244043827057,-0.48313358426094055,0.49538978934288025
1789620075317655000,0.947655029296875,-0.004839416593313217,-0.2601855993270874,0.36166173219680786
1789620075327628000,0.9576279296875,0.002417963929474354,-0.021828409284353256,0.15865670144557953
1789620075337600300,0.967600341796875,0.07573915272951126,0.2469269037246704,-0.0017848550342023373
1789620075347573000,0.977572998046875,0.1464516818523407,0.32780417799949646,-0.060027386993169785
1789620075357545200,0.987545166015625,0.13641180098056793,0.18403109908103943,-0.03021644800901413
1789620075367518200,0.997518310546875,0.06904687732458115,-0.09388121217489243,0.06735005229711533
1789620075377490000,1.007489990234375,0.001682664966210723,-0.3494212031364441,0.1985098421573639
1789620075387463200,1.017463134765625,-0.03927328810095787,-0.5317486524581909,0.295676052570343
1789620075397435100,1.02743505859375,-0.06519018858671188,-0.6394917964935303,0.3216284513473511
1789620075407407000,1.037406982421875,-0.0949757769703865,-0.6086723804473877,0.2738654613494873
1789620075417380000,1.047380126953125,-0.11971467733383179,-0.45870310068130493,0.12970109283924103
1789620075427352000,1.05735205078125,-0.13376392424106598,-0.2802414894104004,-0.07725048810243607
1789620075437325300,1.0673251953125,-0.1371569037437439,-0.13175556063652039,-0.2693171501159668
1789620075447297000,1.077297119140625,-0.15520702302455902,-0.06926155835390091,-0.3985350430011749
1789620075457269800,1.087269775390625,-0.20216061174869537,-0.08121170848608017,-0.4626484215259552
1789620075467241500,1.097241455078125,-0.2436867505311966,-0.12889081239700317,-0.4788377583026886
1789620075477214500,1.10721435546875,-0.27209529280662537,-0.17095355689525604,-0.4589211642742157
1789620075487186700,1.117186767578125,-0.26805421710014343,-0.21093986928462982,-0.42941761016845703
1789620075497159700,1.12715966796875,-0.2804289758205414,-0.25925788283348083,-0.4042145311832428
1789620075507131600,1.137131591796875,-0.3220539391040802,-0.2918882668018341,-0.3807621896266937
1789620075517104600,1.147104736328125,-0.3646092414855957,-0.2764004170894623,-0.3600079119205475
1789620075527076600,1.15707666015625,-0.352858304977417,-0.17302928864955902,-0.32524940371513367
1789620075537049600,1.167049560546875,-0.2978441119194031,-0.026242412626743317,-0.2793606221675873
1789620075547021600,1.177021484375,-0.26639750599861145,0.10084842890501022,-0.24456855654716492
1789620075556994600,1.18699462890625,-0.2629232704639435,0.16813264787197113,-0.2422787994146347
1789620075566966500,1.196966552734375,-0.28870320320129395,0.18412305414676666,-0.23297105729579926
1789620075576939500,1.206939453125,-0.3309619426727295,0.18981871008872986,-0.20601648092269897
1789620075586911700,1.216911865234375,-0.3529777526855469,0.2188146710395813,-0.14321434497833252
1789620075596884700,1.226884765625,-0.34677737951278687,0.22395962476730347,-0.04290849342942238
1789620075606856700,1.236856689453125,-0.32991451025009155,0.18800614774227142,0.05642794817686081
1789620075616829700,1.24682958984375,-0.3098495602607727,0.12567901611328125,0.1323508769273758
1789620075626801700,1.2568017578125,-0.3038893938064575,0.07203097641468048,0.18596217036247253
1789620075636774700,1.266774658203125,-0.31479424238204956,0.06478852778673172,0.2269817441701889
1789620075646746600,1.27674658203125,-0.33443906903266907,0.06918993592262268,0.2534104287624359
1789620075656719600,1.2867197265625,-0.3331076204776764,0.05906834080815315,0.2643352746963501
1789620075666691600,1.296691650390625,-0.32308506965637207,0.019317997619509697,0.24554084241390228
1789620075676664600,1.30666455078125,-0.3189002573490143,-0.007177767809480429,0.19396460056304932
1789620075686636800,1.31663671875,-0.3241807818412781,-0.005978280212730169,0.10999193042516708
1789620075696609800,1.32660986328125,-0.32330912351608276,0.03814569115638733,0.0012174949515610933
1789620075706581500,1.33658154296875,-0.3011404275894165,0.11543595790863037,-0.10716330260038376
1789620075716554800,1.3465546875,-0.25050050020217896,0.18786337971687317,-0.18273302912712097
1789620075726526700,1.356526611328125,-0.19900986552238464,0.18759360909461975,-0.19928216934204102
1789620075736499500,1.36649951171875,-0.1759995073080063,0.11425862461328506,-0.17470571398735046
1789620075746471700,1.3764716796875,-0.1659972071647644,0.046270519495010376,-0.10755065083503723
1789620075756444700,1.386444580078125,-0.13938823342323303,0.0068235923536121845,-0.0413963720202446
1789620075766416600,1.396416748046875,-0.1006070226430893,-0.04461190477013588,-0.008726045489311218
1789620075776389600,1.4063896484375,-0.06887005269527435,-0.09368793666362762,0.007737469859421253
1789620075786361600,1.416361572265625,-0.05981556698679924,-0.10636404901742935,0.015854785218834877
1789620075796334800,1.4263349609375,-0.06113826856017113,-0.09181173145771027,0.03538887947797775
1789620075806306600,1.436306640625,-0.055410340428352356,-0.0898876041173935,0.06903791427612305
1789620075816279600,1.446279541015625,-0.0576365627348423,-0.11206808686256409,0.10319846123456955
1789620075826251800,1.456251708984375,-0.06499034911394119,-0.16705811023712158,0.13228683173656464
1789620075836224500,1.466224609375,-0.07329831272363663,-0.23229122161865234,0.14477859437465668
1789620075846196700,1.47619677734375,-0.08392298966646194,-0.27844274044036865,0.14303527772426605
1789620075856169700,1.486169677734375,-0.10547032952308655,-0.28309375047683716,0.1252644956111908
1789620075866141400,1.496141357421875,-0.12059735506772995,-0.2762765884399414,0.10011465847492218
1789620075876114700,1.50611474609375,-0.1083068922162056,-0.30895429849624634,0.08327580243349075
1789620075886086700,1.516086669921875,-0.08118606358766556,-0.4038778841495514,0.06263177841901779
1789620075896059600,1.5260595703125,-0.062016624957323074,-0.5480166673660278,0.03482172265648842
1789620075906031600,1.536031494140625,-0.0471188984811306,-0.6951555609703064,0.004704299848526716
1789620075916004600,1.546004638671875,-0.0342835895717144,-0.8171606659889221,-0.03676286339759827
1789620075925976800,1.555976806640625,-0.012272565625607967,-0.8945491909980774,-0.09783287346363068
1789620075935949600,1.565949462890625,0.02898932620882988,-0.9604021310806274,-0.18599776923656464
1789620075945921500,1.575921630859375,0.09540216624736786,-1.0391265153884888,-0.29278814792633057
1789620075955893800,1.585893798828125,0.1891980767250061,-1.0883654356002808,-0.4048319160938263
1789620075965866500,1.595866455078125,0.3134808838367462,-1.1025360822677612,-0.507177472114563
1789620075975838700,1.605838623046875,0.4360988438129425,-1.1316083669662476,-0.6142086386680603
1789620075985811700,1.615811767578125,0.5764535665512085,-1.2032990455627441,-0.7789866924285889
1789620075995783700,1.62578369140625,0.7702944874763489,-1.3862017393112183,-0.9639124870300293
1789620076005756700,1.635756591796875,0.9805601239204407,-1.5963165760040283,-1.0584605932235718
1789620076015728600,1.645728759765625,1.1942144632339478,-1.6270537376403809,-1.064772129058838
1789620076025701600,1.65570166015625,1.3284159898757935,-1.771021842956543,-1.0559362173080444
1789620076035673600,1.665673583984375,1.427741527557373,-1.9194062948226929,-0.9563426971435547
1789620076045646600,1.675646484375,1.4963157176971436,-1.986282229423523,-0.7852334976196289
1789620076055618600,1.68561865234375,1.5353485345840454,-2.0981874465942383,-0.6167117357254028
1789620076065591600,1.695591552734375,1.5600312948226929,-2.1887826919555664,-0.4289253354072571
1789620076075563800,1.705563720703125,1.5365276336669922,-2.1806178092956543,-0.2224581390619278
1789620076085536800,1.715536865234375,1.534468412399292,-2.1918957233428955,-0.04276719689369202
1789620076095508500,1.725508544921875,1.5852268934249878,-2.1827914714813232,0.12040460854768753
1789620076105481700,1.735481689453125,1.6625152826309204,-2.18267822265625,0.2529221773147583
1789620076115453700,1.74545361328125,1.7579721212387085,-2.1991384029388428,0.3516175150871277
1789620076125426400,1.755426513671875,1.8235186338424683,-2.3079512119293213,0.43464234471321106
1789620076135398700,1.765398681640625,1.8242778778076172,-2.5104689598083496,0.5040475130081177
1789620076145371600,1.77537158203125,1.7988039255142212,-2.7306082248687744,0.5704275965690613
1789620076155343600,1.785343505859375,1.804750680923462,-2.9192376136779785,0.6175103783607483
1789620076165316600,1.795316650390625,1.8546851873397827,-3.1168761253356934,0.6340517997741699
1789620076175288600,1.80528857421875,1.9551944732666016,-3.293705940246582,0.6399216055870056
1789620076185261800,1.81526171875,2.115368604660034,-3.4257099628448486,0.6576129794120789
1789620076195233500,1.825233642578125,2.306661367416382,-3.3848440647125244,0.6733732223510742
1789620076205206500,1.83520654296875,2.5041255950927734,-3.180039405822754,0.6603817939758301
1789620076215178800,1.8451787109375,2.6393425464630127,-2.968066930770874,0.6116701364517212
1789620076225151500,1.8551513671875,2.66650128364563,-2.838642120361328,0.5347598791122437
1789620076235123700,1.865123779296875,2.6316418647766113,-2.8033971786499023,0.4420850872993469
1789620076245096700,1.8750966796875,2.5960075855255127,-2.903348207473755,0.3620789349079132
1789620076255068400,1.885068359375,2.596045732498169,-3.145019769668579,0.32102248072624207
1789620076265041700,1.895041748046875,2.6205360889434814,-3.3580243587493896,0.32568302750587463
1789620076275013600,1.905013671875,2.6004812717437744,-3.4803009033203125,0.3783486783504486
1789620076284986600,1.914986572265625,2.4438369274139404,-3.518001079559326,0.4374988377094269
1789620076294958600,1.92495849609375,2.1681289672851562,-3.363938570022583,0.4182235598564148
1789620076304931600,1.934931640625,1.8303495645523071,-3.101461172103882,0.2621071934700012
1789620076314903800,1.94490380859375,1.5468403100967407,-2.818263292312622,0.05054870620369911
1789620076324876500,1.95487646484375,1.4195199012756348,-2.4862329959869385,-0.038618188351392746
1789620076334848800,1.964848876953125,1.401301622390747,-2.155980348587036,0.03163127601146698
1789620076344821800,1.97482177734375,1.460496187210083,-2.0050384998321533,0.1765647679567337
1789620076354793500,1.98479345703125,1.5405489206314087,-1.9360060691833496,0.3665739595890045
1789620076364766700,1.9947666015625,1.6452172994613647,-1.9247651100158691,0.5584805607795715
1789620076374738700,2.00473876953125,1.7576123476028442,-1.8156036138534546,0.723343551158905
1789620076384711700,2.014711669921875,1.8248800039291382,-1.623075008392334,0.848110556602478
1789620076394683600,2.02468359375,1.8531774282455444,-1.294005274772644,0.6371366381645203
1789620076404656600,2.03465673828125,1.830363154411316,-1.2358511686325073,0.6335325837135315
1789620076414628900,2.04462890625,1.9806350469589233,-1.1564610004425049,0.38081997632980347
1789620076424601600,2.0546015625,2.1862287521362305,-0.8243549466133118,0.34876883029937744
1789620076434573600,2.064573486328125,2.273643970489502,-0.7186365127563477,0.3054778277873993
1789620076444546800,2.074546875,2.3220105171203613,-0.4844841957092285,0.1886872798204422
1789620076454519800,2.084519775390625,2.338364601135254,0.05277325585484505,0.10211096704006195
1789620076464491500,2.094491455078125,2.1946589946746826,0.20143356919288635,-0.011372188106179237
1789620076474464800,2.10446484375,1.8992432355880737,0.07903465628623962,0.006859063170850277
1789620076484436700,2.114436767578125,1.7134459018707275,0.10566093772649765,0.03978079557418823
1789620076494409500,2.124409423828125,1.6142383813858032,0.0036249205004423857,0.2126852571964264
1789620076504381700,2.134381591796875,1.550374984741211,-0.11128994822502136,0.4549564719200134
1789620076514354700,2.144354736328125,1.4697109460830688,-0.1781368851661682,0.6891418099403381
1789620076524326700,2.15432666015625,1.3781086206436157,-0.10794937610626221,0.7874322533607483
1789620076534299600,2.164299560546875,1.240003228187561,0.039861951023340225,0.6762181520462036
1789620076544271600,2.174271728515625,1.0822499990463257,0.155890554189682,0.42975619435310364
1789620076554244900,2.184244873046875,0.9192517995834351,0.27963539958000183,0.1714424341917038
1789620076564216600,2.194216552734375,0.7744725346565247,0.31546342372894287,0.07150012999773026
1789620076574189600,2.204189453125,0.603290319442749,-0.18105654418468475,0.7258610129356384
1789620076584161500,2.21416162109375,0.34743115305900574,-0.6569339036941528,1.2617679834365845
1789620076594134500,2.224134521484375,0.10315680503845215,-1.0288169384002686,1.5713459253311157
1789620076604106800,2.234106689453125,-0.1055665835738182,-1.2730284929275513,1.6458643674850464
1789620076614079700,2.244079833984375,-0.27697280049324036,-1.464354157447815,1.626644253730774
1789620076624051500,2.254051513671875,-0.4168657064437866,-1.5820461511611938,1.5676734447479248
1789620076634024700,2.264024658203125,-0.5179713368415833,-1.455165982246399,1.4342483282089233
1789620076643996700,2.27399658203125,-0.6291226148605347,-1.140608549118042,1.2472398281097412
1789620076653969400,2.283969482421875,-0.7371363639831543,-0.6905187964439392,0.7731042504310608
1789620076663941600,2.293941650390625,-0.7880498766899109,-0.11690430343151093,0.0022347248159348965
1789620076673914600,2.30391455078125,-0.8381101489067078,0.44340455532073975,-0.6574572920799255
1789620076683886600,2.313886474609375,-0.920648992061615,0.717679500579834,-0.8231146931648254
1789620076693859600,2.323859619140625,-1.0181695222854614,0.5644603967666626,-0.6658848524093628
1789620076703831600,2.33383154296875,-1.0377051830291748,0.1749432384967804,-0.6217941045761108
1789620076713804800,2.3438046875,-1.050706148147583,0.023107776418328285,-0.5989727973937988
1789620076723776500,2.353776611328125,-1.0189028978347778,-0.0076498715206980705,-0.48896345496177673
1789620076733749500,2.36374951171875,-0.9864893555641174,0.02592153660953045,-0.4392741024494171
1789620076743721700,2.3737216796875,-1.0310670137405396,0.1000990942120552,-0.517848551273346
1789620076753694500,2.383694580078125,-1.0277488231658936,0.09358115494251251,-0.5147284865379333
1789620076763666700,2.393666748046875,-1.0289944410324097,0.17817433178424835,-0.5657296180725098
1789620076773639700,2.4036396484375,-1.1284618377685547,0.31526562571525574,-0.684516191482544
1789620076783611600,2.413611572265625,-1.3280662298202515,0.36341848969459534,-0.8269351124763489
1789620076793584600,2.423584716796875,-1.6581742763519287,0.07199802249670029,-0.8226184844970703
1789620076803556600,2.433556640625,-1.8320428133010864,-0.21698585152626038,-0.6139001846313477
1789620076813529900,2.44352978515625,-1.875528335571289,-0.44217002391815186,-0.47517290711402893
1789620076823501600,2.45350146484375,-1.9999911785125732,-0.702481210231781,-0.45059460401535034
1789620076833474600,2.463474609375,-1.9043506383895874,-0.7798212170600891,-0.20174072682857513
1789620076843446800,2.47344677734375,-1.8203728199005127,-0.9186302423477173,-0.05416751652956009
1789620076853419500,2.48341943359375,-1.720568060874939,-0.7881035208702087,0.0579330213367939
1789620076863391700,2.493391845703125,-1.4470016956329346,-0.585603654384613,0.06521649658679962
1789620076873364700,2.50336474609375,-1.182552695274353,-0.2767338156700134,0.0678371712565422
1789620076883336400,2.51333642578125,-0.9701253771781921,-0.022087417542934418,0.14960341155529022
1789620076893309700,2.523309814453125,-0.7691909670829773,0.042570389807224274,0.2397623509168625
1789620076903281700,2.53328173828125,-0.7418983578681946,-0.008416893891990185,0.29128625988960266
1789620076913254700,2.543254638671875,-0.6602797508239746,-0.11951274424791336,0.3010576665401459
1789620076923226600,2.5532265625,-0.5124378204345703,-0.24329674243927002,0.39373672008514404
1789620076933199600,2.56319970703125,-0.44757819175720215,-0.3266230523586273,0.4524075388908386
1789620076943171800,2.573171875,-0.43081679940223694,-0.37284648418426514,0.4708169102668762
1789620076953144600,2.58314453125,-0.4236510992050171,-0.3908126950263977,0.5177973508834839
1789620076963116500,2.593116455078125,-0.4129782021045685,-0.35212814807891846,0.5383210182189941
1789620076973089800,2.60308984375,-0.38584041595458984,-0.24270401895046234,0.5304779410362244
1789620076983061500,2.6130615234375,-0.46178072690963745,-0.19193831086158752,0.46716102957725525
1789620076993034500,2.623034423828125,-0.6291383504867554,-0.15853211283683777,0.37227746844291687
1789620077003006700,2.6330068359375,-0.6756885051727295,-0.1242295354604721,0.2819529175758362
1789620077012979700,2.642979736328125,-0.6546719670295715,-0.09586147964000702,0.2129853367805481
1789620077022951700,2.65295166015625,-0.6153258681297302,0.03474447503685951,0.10636407881975174
1789620077032924700,2.662924560546875,-0.5494260191917419,0.038527339696884155,0.07150769233703613
1789620077042896600,2.672896728515625,-0.4976094365119934,-0.1510457843542099,0.1923435628414154
1789620077052869600,2.68286962890625,-0.3009442090988159,-0.43696460127830505,0.4649631083011627
1789620077062841600,2.692841552734375,-0.18703466653823853,-0.5224860906600952,0.5422802567481995
1789620077072814600,2.702814697265625,-0.05060413479804993,-0.3414279520511627,0.35440975427627563
1789620077082786600,2.71278662109375,0.19674627482891083,-0.07823440432548523,0.15817418694496155
1789620077092759600,2.722759521484375,0.43381455540657043,0.18891136348247528,0.062127355486154556
1789620077102731800,2.732731689453125,0.594965398311615,0.36879992485046387,0.04494703561067581
1789620077112704800,2.742704833984375,0.530958354473114,0.23326969146728516,0.10979197919368744
1789620077122676700,2.7526767578125,0.38632526993751526,-0.0505303293466568,0.235999196767807
1789620077132648700,2.762648681640625,0.30439698696136475,-0.2679654657840729,0.34168189764022827
1789620077142621700,2.77262158203125,0.29560455679893494,-0.24536269903182983,0.34627532958984375
1789620077152593700,2.78259375,0.34430772066116333,-0.12140943109989166,0.29578670859336853
1789620077162566700,2.792566650390625,0.39883914589881897,-0.04684890806674957,0.25576525926589966
1789620077172539000,2.802538818359375,0.44079458713531494,-0.05538655072450638,0.26012110710144043
1789620077182511600,2.81251171875,0.4015140235424042,-0.13392876088619232,0.3118082880973816
1789620077192483600,2.822483642578125,0.3075384795665741,-0.21744805574417114,0.3864927589893341
1789620077202456800,2.832456787109375,0.2157329022884369,-0.2809450030326843,0.43797141313552856
1789620077212428500,2.842428466796875,0.1405593305826187,-0.31590351462364197,0.4479454755783081
1789620077222401500,2.852401611328125,0.09322084486484528,-0.3148667514324188,0.4226219952106476
1789620077232373800,2.862373779296875,0.116390660405159,-0.2513512074947357,0.39488720893859863
1789620077242346500,2.872346435546875,0.14241401851177216,-0.16434785723686218,0.32016369700431824
1789620077252318700,2.882318603515625,0.16833165287971497,-0.019046735018491745,0.1675935536623001
1789620077262291700,2.892291748046875,0.1801142692565918,0.14573927223682404,0.005404904950410128
1789620077272263400,2.902263427734375,0.11811020970344543,0.2419099509716034,-0.08238336443901062
1789620077282236700,2.912236572265625,0.0015186198288574815,0.23755674064159393,-0.08730968087911606
1789620077292208600,2.922208740234375,-0.15759751200675964,0.14904500544071198,-0.013730027712881565
1789620077302181600,2.932181640625,-0.22912655770778656,0.10011208057403564,0.03957260772585869
1789620077312153600,2.942153564453125,-0.18338514864444733,0.11468590050935745,0.02224336937069893
1789620077322126600,2.952126708984375,-0.037985872477293015,0.15290838479995728,-0.026325229555368423
1789620077332098800,2.962098876953125,0.09525474905967712,0.21194347739219666,-0.07272924482822418
1789620077342071600,2.972071533203125,0.20587767660617828,0.27473124861717224,-0.13132330775260925
1789620077352043500,2.98204345703125,0.27953532338142395,0.3066810369491577,-0.19341744482517242
1789620077362016800,2.992016845703125,0.3227379024028778,0.34664681553840637,-0.2612207531929016
1789620077371988500,3.001988525390625,0.3613761067390442,0.3685986399650574,-0.3701719641685486
1789620077381961500,3.01196142578125,0.3812616765499115,0.4203808903694153,-0.5015989542007446
1789620077391933700,3.02193359375,0.3232184648513794,0.4554574191570282,-0.6370198726654053
1789620077401906700,3.03190673828125,0.20951133966445923,0.46600353717803955,-0.7734328508377075
1789620077411878700,3.041878662109375,0.14253400266170502,0.41583365201950073,-0.8906174302101135
1789620077421851600,3.0518515625,0.11895011365413666,0.3389788269996643,-0.9551189541816711
1789620077431823600,3.06182373046875,0.14398646354675293,0.31657612323760986,-0.9841310977935791
1789620077441796600,3.071796630859375,0.22916048765182495,0.42917802929878235,-1.0079890489578247
1789620077451768000,3.08176806640625,0.5002138018608093,0.6825776696205139,-1.09048330783844
1789620077461741300,3.0917412109375,0.8416515588760376,0.8969581127166748,-1.1544479131698608
1789620077471713300,3.10171337890625,1.270523190498352,1.1031430959701538,-1.1363530158996582
1789620077481686300,3.111686279296875,1.7133985757827759,1.3921260833740234,-1.0957424640655518
1789620077491658200,3.121658203125,1.9770145416259766,1.6451458930969238,-1.092193365097046
1789620077501631200,3.13163134765625,2.110370397567749,1.7350366115570068,-1.0617693662643433
1789620077511603500,3.141603515625,1.918668270111084,1.3767774105072021,-0.8743185997009277
1789620077521576200,3.151576171875,1.6139112710952759,0.7951056957244873,-0.5812047123908997
1789620077531548200,3.161548095703125,1.4746665954589844,0.36007270216941833,-0.339522123336792
1789620077541521400,3.171521484375,1.464626431465149,0.27662068605422974,-0.22667813301086426
1789620077551493000,3.1814931640625,1.4651998281478882,0.4458710551261902,-0.16732946038246155
1789620077561466000,3.191466064453125,1.4271360635757446,0.5987505912780762,-0.08356772363185883
1789620077571438300,3.201438232421875,1.3486616611480713,0.6573127508163452,0.08023358136415482
1789620077581411300,3.211411376953125,1.3512861728668213,0.6084206104278564,0.31045961380004883
1789620077591383300,3.22138330078125,1.3760772943496704,0.5854445099830627,0.4642409682273865
1789620077601356300,3.231356201171875,1.3749885559082031,0.7189645171165466,0.5214531421661377
1789620077611328300,3.241328369140625,1.2779163122177124,0.8968853950500488,0.5428973436355591
1789620077621301200,3.25130126953125,1.1254547834396362,0.9531593322753906,0.5214160084724426
1789620077631273200,3.261273193359375,0.8971339464187622,0.7567356824874878,0.49357369542121887
1789620077641246200,3.27124609375,0.7671447992324829,0.5689364671707153,0.4472232460975647
1789620077651218200,3.28121826171875,0.7643648982048035,0.5738402009010315,0.3280435800552368
1789620077661191200,3.291191162109375,0.800564706325531,0.6994388699531555,0.17260204255580902
1789620077671163400,3.301163330078125,0.7984721660614014,0.8529666066169739,0.03249264135956764
1789620077681136400,3.311136474609375,0.7035925388336182,0.8776557445526123,-0.058530472218990326
1789620077691108400,3.3211083984375,0.5987065434455872,0.815906822681427,-0.11177251487970352
1789620077701081300,3.331081298828125,0.5005397796630859,0.825637698173523,-0.14248329401016235
1789620077711053300,3.34105322265625,0.38202211260795593,0.9752658009529114,-0.17665094137191772
1789620077721026300,3.3510263671875,0.29700416326522827,1.2496259212493896,-0.262260377407074
1789620077730998300,3.360998291015625,0.24712109565734863,1.5283796787261963,-0.3892112672328949
1789620077740970500,3.370970458984375,0.11915380507707596,1.6747491359710693,-0.5098125338554382
1789620077750943200,3.380943115234375,-0.09079092741012573,1.6689798831939697,-0.5654526352882385
1789620077760915200,3.390915283203125,-0.33474844694137573,1.4358038902282715,-0.5304176807403564
1789620077770888400,3.400888427734375,-0.5407820343971252,1.122261643409729,-0.48181256651878357
1789620077780860200,3.410860107421875,-0.6392611861228943,0.600430965423584,-0.43247300386428833
1789620077790833200,3.420833251953125,-0.658912718296051,-0.16707825660705566,-0.3167923390865326
1789620077800805400,3.430805419921875,-0.6574351787567139,-0.8016650676727295,-0.1635926514863968
1789620077810778400,3.4407783203125,-0.4610298275947571,-0.8903045654296875,-0.17059239745140076
1789620077820750300,3.450750244140625,-0.24240346252918243,-0.646616518497467,-0.2799561619758606
1789620077830723300,3.460723388671875,-0.1552131175994873,-0.35056713223457336,-0.41634368896484375
1789620077840695300,3.4706953125,-0.2080017626285553,-0.1808289885520935,-0.5164175033569336
1789620077850668300,3.480668212890625,-0.414261132478714,-0.12415962666273117,-0.5750971436500549
1789620077860640300,3.49064013671875,-0.6317117214202881,-0.16665993630886078,-0.5722321271896362
1789620077870613200,3.50061328125,-0.7891496419906616,-0.23099900782108307,-0.5196954011917114
1789620077880585200,3.510585205078125,-0.9065077304840088,-0.30046704411506653,-0.4328463077545166
1789620077890558200,3.52055810546875,-0.9667523503303528,-0.350820928812027,-0.3303603231906891
1789620077900530400,3.530530517578125,-0.9858735799789429,-0.5383051037788391,-0.11884087324142456
1789620077910503200,3.540503173828125,-0.9972683191299438,-0.63254314661026,0.10490408539772034
1789620077920475100,3.55047509765625,-1.1592146158218384,-0.6213850378990173,0.29347506165504456
1789620077930448400,3.560448486328125,-1.479283094406128,-0.5803468823432922,0.3836911916732788
1789620077940420000,3.570420166015625,-1.886863350868225,-0.30554118752479553,0.3758529722690582
1789620077950393000,3.58039306640625,-2.1766767501831055,-0.057248931378126144,0.34931036829948425
1789620077960365300,3.590365234375,-2.3567450046539307,-0.03302055969834328,0.3737888038158417
1789620077970338300,3.60033837890625,-2.4371824264526367,-0.11924662441015244,0.4539109766483307
1789620077980310300,3.610310302734375,-2.418797016143799,-0.23757299780845642,0.5175222158432007
1789620077990283300,3.620283203125,-2.3893632888793945,-0.30706125497817993,0.5709345936775208
1789620078000255200,3.630255126953125,-2.280137777328491,-0.14565639197826385,0.44581151008605957
1789620078010228200,3.640228271484375,-2.0547256469726562,0.27166834473609924,0.2070295363664627
1789620078020200200,3.6502001953125,-1.6948765516281128,0.8931917548179626,-0.06795436143875122
1789620078030173200,3.660173095703125,-1.301239013671875,1.6759541034698486,-0.34784412384033203
1789620078040145200,3.670145263671875,-0.8326712846755981,2.145766258239746,-0.607033908367157
1789620078050118100,3.6801181640625,-0.3028148114681244,2.0640459060668945,-0.6929486393928528
1789620078060090400,3.69009033203125,0.20870012044906616,1.3619658946990967,-0.9025260806083679
1789620078070063400,3.7000634765625,0.7968636751174927,0.39895200729370117,-1.3210374116897583
1789620078080035300,3.710035400390625,1.4101988077163696,-0.2928144633769989,-1.6864359378814697
1789620078090008300,3.72000830078125,1.9390579462051392,-0.7040045261383057,-2.237027883529663
1789620078099980300,3.729980224609375,2.1928162574768066,-0.7729191184043884,-2.5156946182250977
1789620078109953300,3.739953369140625,2.1712076663970947,-0.9222891330718994,-2.68825364112854
1789620078119925200,3.74992529296875,2.0159027576446533,-0.8839505910873413,-2.6371259689331055
1789620078129898200,3.759898193359375,1.8402284383773804,-0.6712850332260132,-2.366807699203491
1789620078139870200,3.7698701171875,1.7513887882232666,-0.5365839600563049,-2.0684311389923096
1789620078149843200,3.77984326171875,1.8447065353393555,-0.5139069557189941,-1.8813670873641968
1789620078159815400,3.7898154296875,2.0322153568267822,-0.45128723978996277,-1.8086944818496704
1789620078169788400,3.799788330078125,1.953704833984375,-0.4716127812862396,-1.7448478937149048
1789620078179760000,3.809760009765625,1.7124501466751099,-0.6275238394737244,-1.5522420406341553
1789620078189733400,3.8197333984375,1.6474268436431885,-0.632722020149231,-1.1729081869125366
1789620078199705300,3.829705322265625,1.642673134803772,-0.4347846806049347,-0.6980489492416382
1789620078209678000,3.839677978515625,1.6712719202041626,-0.2935892641544342,-0.3514193892478943
1789620078219650300,3.849650390625,1.83339262008667,-0.5263945460319519,-0.07832659780979156
1789620078229623300,3.859623291015625,2.143669843673706,-0.7219948768615723,0.24507935345172882
1789620078239595300,3.86959521484375,2.5816690921783447,-0.6974890232086182,0.49258100986480713
1789620078249568300,3.879568359375,2.9083940982818604,-0.5080575346946716,0.6382890939712524
1789620078259540200,3.889540283203125,2.9967737197875977,-0.3097156584262848,0.7054742574691772
1789620078269513500,3.899513427734375,2.8293240070343018,-0.15069085359573364,0.7144011855125427
1789620078279485200,3.909485107421875,2.5082521438598633,-0.02952953614294529,0.733719527721405
1789620078289458200,3.919458251953125,1.9551663398742676,0.1075771227478981,0.8297111988067627
1789620078299430400,3.929430419921875,1.463444709777832,0.04931061714887619,0.9127059578895569
1789620078309403100,3.939403076171875,1.2679566144943237,-0.23983804881572723,1.0832220315933228
1789620078319375400,3.949375244140625,1.301120638847351,-0.49289295077323914,1.3526926040649414
1789620078329348400,3.959348388671875,1.4087549448013306,-0.646883487701416,1.5686918497085571
1789620078339320000,3.969320068359375,1.4850550889968872,-0.6505677103996277,1.679190993309021
1789620078349293300,3.979293212890625,1.4683501720428467,-0.6971748471260071,1.7791258096694946
1789620078359265300,3.989265380859375,1.2839901447296143,-0.7494410276412964,1.8967102766036987
1789620078369238300,3.99923828125,1.0331634283065796,-0.7825635075569153,1.966867208480835
1789620078379210200,4.009210205078125,0.830337643623352,-0.7406764626502991,1.9494311809539795
1789620078389183200,4.019183349609375,0.7059925198554993,-0.6979121565818787,1.881579875946045
1789620078399155500,4.029155517578125,0.6753171682357788,-0.7331007719039917,1.7992112636566162
1789620078409128200,4.039128173828125,0.7068895697593689,-0.8636406660079956,1.7561522722244263
1789620078419100200,4.04910009765625,0.7373026013374329,-1.0025442838668823,1.7933155298233032
1789620078429073400,4.059073486328125,0.7538737654685974,-0.836979329586029,1.689497709274292
1789620078439045000,4.069045166015625,0.8054067492485046,-0.3920327126979828,1.143831491470337
1789620078449018000,4.07901806640625,0.708081066608429,-0.0033535282127559185,0.46109217405319214
1789620078458990000,4.088989990234375,0.3612469434738159,0.0913040041923523,0.15596264600753784
1789620078468962800,4.098962890625,0.08730356395244598,0.03299952298402786,0.13124260306358337
1789620078478935000,4.10893505859375,0.01760544627904892,-0.20363138616085052,0.12796291708946228
1789620078488908000,4.118907958984375,0.10428442806005478,-0.4333954155445099,0.1607533097267151
1789620078498880000,4.1288798828125,0.3455767035484314,-0.6804686188697815,0.2775270640850067
1789620078508853000,4.13885302734375,0.6608209013938904,-0.7876485586166382,0.459221214056015
1789620078518825000,4.148824951171875,0.942307710647583,-0.8303235769271851,0.6005343794822693
1789620078528798200,4.158798095703125,1.1623953580856323,-0.7846615314483643,0.6466401815414429
1789620078538770000,4.16877001953125,1.3367363214492798,-0.6723911762237549,0.6185158491134644
1789620078548743000,4.178742919921875,1.4367191791534424,-0.6200032830238342,0.6235066652297974
1789620078558715100,4.188715087890625,1.4707380533218384,-0.7058324813842773,0.7116924524307251
1789620078568687900,4.19868798828125,1.4308117628097534,-0.8566441535949707,0.8180387020111084
1789620078578660000,4.20866015625,1.314052939414978,-0.8772830963134766,0.8260612487792969
1789620078588633000,4.218633056640625,1.0674383640289307,-0.7595883011817932,0.6006266474723816
1789620078598604800,4.228604736328125,0.7924923300743103,-0.5455676317214966,0.34719520807266235
1789620078608578000,4.238578125,0.5399181246757507,-0.376548707485199,0.28829091787338257
1789620078618550000,4.248550048828125,0.3650081157684326,-0.10757503658533096,0.38639432191848755
1789620078628523000,4.25852294921875,0.16960389912128448,0.10578269511461258,0.44846397638320923
1789620078638495000,4.268494873046875,-0.07705461233854294,0.016295427456498146,0.5614358186721802
1789620078648468000,4.278468017578125,-0.32988235354423523,-0.26929983496665955,0.9634516835212708
1789620078658440200,4.288440185546875,-0.6352401375770569,-0.5948361754417419,1.2389532327651978
1789620078668413000,4.298412841796875,-0.8146886229515076,-0.7628410458564758,1.0208141803741455
1789620078678385000,4.308385009765625,-0.9065093398094177,-0.7537151575088501,0.7079888582229614
1789620078688358100,4.318358154296875,-0.9505212306976318,-0.7618058323860168,0.46722522377967834
1789620078698329900,4.328329833984375,-1.0643408298492432,-0.9301716685295105,0.44893303513526917
1789620078708302800,4.338302734375,-1.3177745342254639,-1.3221105337142944,0.6371585726737976
1789620078718275000,4.348275146484375,-1.5782777070999146,-1.6971170902252197,0.8445668816566467
1789620078728248000,4.358248046875,-1.7246748208999634,-1.9664373397827148,1.0508887767791748
1789620078738220000,4.368219970703125,-2.114410161972046,-2.3216917514801025,1.2024381160736084
1789620078748193000,4.378193115234375,-2.6282880306243896,-2.3695831298828125,1.390674114227295
1789620078758165200,4.388165283203125,-2.945298194885254,-1.907281756401062,1.219301700592041
1789620078768138000,4.398137939453125,-3.0725271701812744,-0.946863055229187,0.7040013074874878
1789620078778110000,4.40810986328125,-3.198049783706665,0.0006089588277973235,0.19404509663581848
1789620078788083200,4.418083251953125,-3.265118360519409,0.1701202690601349,-0.42235854268074036
1789620078798055000,4.428054931640625,-3.605665683746338,-0.03647604212164879,-0.7384046912193298
1789620078808028000,4.43802783203125,-3.9803595542907715,-0.7459611892700195,-0.7872709631919861
1789620078818000100,4.448000244140625,-3.933231830596924,-1.4518706798553467,-0.7414646148681641
1789620078827973000,4.45797314453125,-3.3137755393981934,-2.248939037322998,-0.38035356998443604
1789620078837945000,4.467945068359375,-2.178711414337158,-2.8127219676971436,0.22883863747119904
1789620078847918000,4.47791796875,-1.1797747611999512,-2.5071146488189697,0.4442920982837677
1789620078857890000,4.48789013671875,-0.9009122848510742,-1.847855806350708,0.22469183802604675
1789620078867863000,4.497863037109375,-1.0788352489471436,-1.3909999132156372,0.041181422770023346
1789620078877835000,4.5078349609375,-1.3859096765518188,-1.2142658233642578,-0.1681627482175827
1789620078887808000,4.51780810546875,-1.561549186706543,-1.2163927555084229,-0.40601488947868347
1789620078897780000,4.527780029296875,-1.4674659967422485,-1.1989716291427612,-0.5917796492576599
1789620078907753000,4.5377529296875,-1.293707013130188,-1.137567400932312,-0.8798537254333496
1789620078917725200,4.54772509765625,-0.9422327876091003,-1.0175672769546509,-1.2439600229263306
1789620078927698000,4.557697998046875,-0.5508788824081421,-0.6070588827133179,-1.415265679359436
1789620078937670000,4.567669921875,-0.2044093906879425,-0.5495034456253052,-1.4114211797714233
1789620078947643100,4.57764306640625,-0.22644585371017456,-0.6974509358406067,-1.208008885383606
1789620078957614800,4.58761474609375,-0.25020283460617065,-1.1057374477386475,-1.0063420534133911
1789620078967587800,4.597587890625,-0.30880460143089294,-1.4171124696731567,-1.0036123991012573
1789620078977560000,4.60756005859375,-0.5614861249923706,-1.5251883268356323,-1.0777093172073364
1789620078987533000,4.617532958984375,-0.6243217587471008,-1.4451638460159302,-1.0107152462005615
1789620078997505000,4.627505126953125,-0.6322795748710632,-1.4535807371139526,-1.1215485334396362
1789620079007478000,4.63747802734375,-0.42478254437446594,-1.1112595796585083,-1.2019095420837402
1789620079017450000,4.647449951171875,-0.2488677054643631,-0.6339640617370605,-1.3750488758087158
1789620079027423000,4.657423095703125,-0.1437457948923111,-0.4073127806186676,-1.5046578645706177
1789620079037395000,4.66739501953125,-0.008665736764669418,-0.4224938452243805,-1.4576983451843262
1789620079047368000,4.677367919921875,0.027892252430319786,-0.5996297001838684,-1.261086106300354
1789620079057340000,4.68733984375,0.024201111868023872,-0.7336825728416443,-1.0191798210144043
1789620079067313000,4.69731298828125,-0.009144818410277367,-0.6965606808662415,-0.7947238087654114
1789620079077285000,4.70728515625,-0.025459876284003258,-0.734776496887207,-0.592566728591919
1789620079087258000,4.717258056640625,0.03135407343506813,-0.9045818448066711,-0.4029199481010437
1789620079097230000,4.72722998046875,0.14746470749378204,-0.945914626121521,-0.32794424891471863
1789620079107203000,4.737203125,0.22966861724853516,-0.687087893486023,-0.33989012241363525
1789620079117175000,4.747175048828125,0.30604782700538635,-0.33310848474502563,-0.37772485613822937
1789620079127148000,4.75714794921875,0.25722187757492065,-0.25631844997406006,-0.22875811159610748
1789620079137120000,4.7671201171875,0.2195620983839035,-0.39192503690719604,-0.052036598324775696
1789620079147093000,4.777093017578125,0.23713140189647675,-0.3813928961753845,0.0534902885556221
1789620079157065000,4.78706494140625,0.20663022994995117,-0.4901427924633026,0.15050391852855682
1789620079167038000,4.797037841796875,0.3247033953666687,-0.5107653737068176,0.17344295978546143
1789620079177010200,4.80701025390625,0.47243160009384155,-0.4491347670555115,0.039118703454732895
1789620079186983200,4.816983154296875,0.5398596525192261,-0.07235674560070038,-0.14178211987018585
1789620079196955000,4.826954833984375,0.5817152261734009,0.24374236166477203,-0.2533603012561798
1789620079206928100,4.83692822265625,0.6170079708099365,0.35007742047309875,-0.3022567927837372
1789620079216900000,4.846900146484375,0.7409265041351318,0.5855756998062134,-0.4625615179538727
1789620079226872800,4.856872802734375,0.8927314281463623,0.9423879384994507,-0.6447147727012634
1789620079236845000,4.866844970703125,1.1835970878601074,1.2037527561187744,-0.7683821320533752
1789620079246818000,4.876818115234375,1.5581169128417969,1.4119943380355835,-0.8416181802749634
1789620079256790000,4.8867900390625,1.986691951751709,1.8047538995742798,-0.9138020873069763
1789620079266763000,4.896762939453125,2.494662284851074,2.289344310760498,-1.1141488552093506
1789620079276735000,4.90673486328125,2.7198572158813477,2.1254377365112305,-1.1213955879211426
1789620079286708200,4.916708251953125,2.8564367294311523,1.5472431182861328,-0.9202667474746704
1789620079296680000,4.926679931640625,2.983943223953247,1.1238375902175903,-0.7787641882896423
1789620079306653000,4.93665283203125,3.070960760116577,0.782769501209259,-0.6513199806213379
1789620079316625200,4.946625244140625,3.0099427700042725,0.27715447545051575,-0.4295865297317505
1789620079326598000,4.956597900390625,2.754450798034668,-0.09132865071296692,-0.2596672475337982
1789620079336570000,4.966570068359375,2.424030303955078,-0.08146963268518448,-0.0050133815966546535
1789620079346543000,4.976543212890625,2.106992483139038,-0.13361839950084686,0.26615384221076965
1789620079356514800,4.986514892578125,2.059598445892334,-0.07391273230314255,0.45893099904060364
1789620079366488000,4.996488037109375,1.8512294292449951,0.15424007177352905,0.6493730545043945
1789620079376460000,5.0064599609375,1.8285939693450928,0.3469914197921753,0.7530733346939087
1789620079386433000,5.01643310546875,1.7080609798431396,0.5310699343681335,0.9154368042945862
1789620079396405000,5.026405029296875,1.699134111404419,0.5679043531417847,1.1086866855621338
1789620079406378000,5.0363779296875,1.6948100328445435,0.5215702652931213,1.294087529182434
1789620079416350200,5.04635009765625,1.6726104021072388,0.5379598736763,1.4093129634857178
1789620079426323000,5.056322998046875,1.6261367797851562,0.46757498383522034,1.4225510358810425
1789620079436295000,5.066294921875,1.5682214498519897,0.32713666558265686,1.4869427680969238
1789620079446268200,5.07626806640625,1.526207447052002,0.12145445495843887,1.56951904296875
1789620079456240000,5.086240234375,1.4171302318572998,0.07105519622564316,1.5896130800247192
1789620079466213000,5.096213134765625,1.244943618774414,-0.206239715218544,1.6198920011520386
1789620079476185000,5.10618505859375,1.1715717315673828,-0.07896164804697037,1.405471920967102
1789620079486158000,5.116157958984375,1.3048415184020996,0.31813570857048035,1.2030261754989624
1789620079496130300,5.12613037109375,1.5582023859024048,0.6864295601844788,0.8989267945289612
1789620079506103300,5.136103271484375,1.6697075366973877,0.8820477724075317,0.6530285477638245
1789620079516075000,5.146074951171875,1.6532411575317383,0.7932054996490479,0.45922422409057617
1789620079526048300,5.15604833984375,1.6028891801834106,0.5706096887588501,0.3266235589981079
1789620079536020200,5.166020263671875,1.4962124824523926,0.38466110825538635,0.2759457528591156
1789620079545993200,5.1759931640625,1.3074314594268799,0.32908546924591064,0.2894476652145386
1789620079555965200,5.185965087890625,1.0943058729171753,0.39328068494796753,0.3217523396015167
1789620079565938200,5.195938232421875,0.8543649911880493,0.47911250591278076,0.37321674823760986
1789620079575910100,5.20591015625,0.6143316030502319,0.5634307861328125,0.4054844081401825
1789620079585883100,5.215883056640625,0.4120696485042572,0.6522293090820312,0.39576753973960876
1789620079595855400,5.22585546875,0.3406103551387787,0.6790768504142761,0.39433181285858154
1789620079605828400,5.235828369140625,0.25167316198349,0.6365401148796082,0.33296969532966614
1789620079615800000,5.245800048828125,0.10742968320846558,0.5065935850143433,0.2596597969532013
1789620079625773300,5.255773193359375,-0.002745099598541856,0.5220285654067993,0.2505705952644348
1789620079635745300,5.265745361328125,-0.06856778264045715,0.426933228969574,0.24374625086784363
1789620079645718000,5.275718017578125,-0.14121145009994507,0.1382550150156021,0.1938241422176361
1789620079655690200,5.285690185546875,-0.15832306444644928,-0.07890472561120987,0.38409075140953064
1789620079665663200,5.295663330078125,-0.21709805727005005,-0.11965730786323547,0.42686688899993896
1789620079675635200,5.30563525390625,-0.2938663363456726,-0.04149327054619789,0.3256712853908539
1789620079685608200,5.315608154296875,-0.37414979934692383,0.1668822169303894,0.22315628826618195
1789620079695580200,5.325580078125,-0.44721949100494385,0.25054648518562317,0.19490467011928558
1789620079705553400,5.335553466796875,-0.5673114657402039,0.39399591088294983,0.1968294084072113
1789620079715525000,5.345525146484375,-0.648216962814331,0.2829737961292267,0.1899683028459549
1789620121581255000,47.2112548828125,-0.07004847377538681,0.11214577406644821,0.29649412631988525
1789620121591227000,47.22122680664062,-0.024636665359139442,-0.2924139201641083,0.3567691445350647
1789620121601198800,47.23119873046875,-0.04043107479810715,-0.6688839793205261,0.36979812383651733
1789620121611171800,47.241171875,-0.06745429337024689,-0.7798725962638855,0.35952502489089966
1789620121621143800,47.251143798828124,-0.059977997094392776,-0.630847692489624,0.3333197832107544
1789620121631116000,47.26111596679687,-0.009916199371218681,-0.38443616032600403,0.29472190141677856
1789620121641087700,47.271087646484375,0.0733235627412796,-0.17378835380077362,0.21442946791648865
1789620121651060000,47.28106005859375,0.1629544198513031,-0.05066719651222229,0.10199528187513351
1789620121661033000,47.291032958984374,0.24164816737174988,-0.02262783609330654,-0.008565316908061504
1789620121671004700,47.30100463867188,0.3026484549045563,-0.06802981346845627,-0.08725439012050629
1789620121680977000,47.310976806640625,0.3481006324291229,-0.1747370809316635,-0.12019156664609909
1789620121690948900,47.32094897460937,0.3877277076244354,-0.31429386138916016,-0.09412220120429993
1789620121700920800,47.3309208984375,0.4119715392589569,-0.4132358729839325,-0.00852634571492672
1789620121710892800,47.34089282226562,0.39626362919807434,-0.4449853301048279,0.12187992036342621
1789620121720866000,47.350865966796874,0.34992915391921997,-0.4113738536834717,0.2752186059951782
1789620121730837800,47.36083764648438,0.2909524738788605,-0.32170751690864563,0.42516031861305237
1789620121740810000,47.37081005859375,0.22355559468269348,-0.23188042640686035,0.5424949526786804
1789620121750781700,47.38078173828125,0.16249394416809082,-0.172641783952713,0.6067146062850952
1789620121760754000,47.39075390625,0.09962151199579239,-0.11653190106153488,0.5987019538879395
1789620121770727000,47.40072680664063,0.03700665384531021,-0.04394176974892616,0.5284378528594971
1789620121780699000,47.410698974609375,-0.02684742584824562,0.00743433553725481,0.4131908416748047
1789620121790670800,47.4206708984375,-0.09233271330595016,0.004736615344882011,0.27353647351264954
1789620121800643000,47.43064306640625,-0.1550474762916565,-0.033995866775512695,0.146795853972435
1789620121810614800,47.44061474609375,-0.2032930850982666,-0.06124678626656532,0.03258417919278145
1789620121820587000,47.4505869140625,-0.22446362674236298,-0.06347265094518661,-0.060962554067373276
1789620121830560000,47.46056005859375,-0.22225253283977509,-0.036897484213113785,-0.13835670053958893
1789620121840531700,47.47053173828125,-0.21880240738391876,-0.005849553272128105,-0.1817486584186554
1789620121850504000,47.48050390625,-0.21896924078464508,0.011311221867799759,-0.1857110559940338
1789620121860476000,47.490475830078125,-0.21882489323616028,0.013965061865746975,-0.17819109559059143
1789620121870447900,47.50044775390625,-0.2085089087486267,-0.001969265751540661,-0.17446202039718628
1789620121880420900,47.5104208984375,-0.18090976774692535,-0.03864845260977745,-0.18327894806861877
1789620121890392800,47.52039282226563,-0.1328115612268448,-0.09312412887811661,-0.19181101024150848
1789620121900364800,47.53036474609375,-0.07199082523584366,-0.15166999399662018,-0.18832439184188843
1789620121910337000,47.5403369140625,-0.0064299823716282845,-0.1944502592086792,-0.16259288787841797
1789620121920308700,47.550308837890626,0.05976688116788864,-0.17121364176273346,-0.11430524289608002
1789620121930281000,47.56028100585937,0.10498528182506561,-0.10354561358690262,-0.05283847078680992
1789620121940254000,47.57025390625,0.1183580756187439,-0.03416253998875618,0.025184690952301025
1789620121950226000,47.58022583007813,0.0990467518568039,0.013280384242534637,0.11348680406808853
1789620121960198000,47.590197998046875,0.05302945524454117,0.032465796917676926,0.20675283670425415
1789620121970169900,47.600169921875,0.006947910413146019,0.004771624691784382,0.28464096784591675
1789620121980141800,47.610141845703126,-0.027752012014389038,-0.07032845169305801,0.3199659287929535
1789620121990114800,47.62011474609375,-0.061358142644166946,-0.1478859931230545,0.30135294795036316
1789620122000086800,47.63008666992187,-0.08645683526992798,-0.1629890501499176,0.23441921174526215
1789620122010058800,47.64005883789063,-0.10124977678060532,-0.09649708867073059,0.14272627234458923
1789620122020031000,47.650031005859375,-0.11703300476074219,0.00371953216381371,0.05382942408323288
1789620122030003000,47.6600029296875,-0.12523260712623596,0.08742933720350266,-0.022329259663820267
1789620122039976000,47.66997583007812,-0.12416814267635345,0.11865916103124619,-0.07129014283418655
1789620122049948000,47.67994799804688,-0.12961558997631073,0.07752066850662231,-0.09039366245269775
1789620122059920000,47.689919921875,-0.1532817780971527,-0.0067673190496861935,-0.08698428422212601
1789620122069891800,47.69989184570313,-0.1859368234872818,-0.07809388637542725,-0.07121846824884415
1789620122079863800,47.70986376953125,-0.22276541590690613,-0.10380111634731293,-0.047321394085884094
1789620122089835800,47.71983569335937,-0.25983038544654846,-0.09455227851867676,-0.020859606564044952
1789620122099809000,47.72980908203125,-0.2999916672706604,-0.08824990689754486,-0.015482681803405285
1789620122109780700,47.73978076171875,-0.3178383708000183,-0.09591057151556015,-0.05242626368999481
1789620122119753000,47.7497529296875,-0.3043361306190491,-0.12305670231580734,-0.13114558160305023
1789620122129725000,47.75972485351563,-0.253885954618454,-0.13871866464614868,-0.21969787776470184
1789620122139697000,47.76969677734375,-0.1794029325246811,-0.09777417033910751,-0.27841177582740784
1789620122149670000,47.779669921875,-0.11834944784641266,-0.03190864995121956,-0.29163065552711487
1789620122159641900,47.78964184570312,-0.08312568068504333,0.007237685844302177,-0.26440995931625366
1789620122169613800,47.79961376953125,-0.08135611563920975,-0.0019066449021920562,-0.20176589488983154
1789620122179586000,47.8095859375,-0.09541334956884384,-0.035390302538871765,-0.11467067897319794
1789620122189557800,47.81955786132813,-0.12366575747728348,-0.072926364839077,-0.024327807128429413
1789620122199530000,47.829530029296876,-0.14724059402942657,-0.12145901471376419,0.0518479198217392
1789620122209503000,47.8395029296875,-0.16143953800201416,-0.16943493485450745,0.09875138103961945
1789620122219474700,47.849474609375,-0.1462147831916809,-0.18440349400043488,0.12135389447212219
1789620122229447000,47.85944702148438,-0.10869378596544266,-0.128472238779068,0.14376485347747803
1789620122239419000,47.8694189453125,-0.08066268265247345,-0.05071379989385605,0.17849034070968628
1789620122249390800,47.87939086914062,-0.08403069525957108,-0.017690151929855347,0.20414999127388
1789620122259363800,47.88936376953125,-0.09845224767923355,-0.049160994589328766,0.20761582255363464
1789620122269336000,47.89933618164063,-0.13667505979537964,-0.11480876803398132,0.1847827434539795
1789620122279307800,47.909307861328124,-0.18190085887908936,-0.16604213416576385,0.14820341765880585
1789620122289280000,47.91928002929688,-0.21393388509750366,-0.1752590835094452,0.09588481485843658
1789620122299251700,47.929251708984374,-0.23435287177562714,-0.15985269844532013,0.03672109916806221
1789620122309224000,47.93922387695312,-0.23346123099327087,-0.1414245367050171,-0.024775948375463486
1789620122319197000,47.94919702148437,-0.2117340862751007,-0.11971817165613174,-0.07128512859344482
1789620122329169000,47.9591689453125,-0.17839273810386658,-0.06836961209774017,-0.0902608335018158
1789620122339140900,47.969140869140624,-0.14024774730205536,0.007222347892820835,-0.06850574910640717
1789620122349113000,47.97911303710937,-0.1179911345243454,0.058020588010549545,-0.006542024202644825
1789620122359084800,47.989084716796874,-0.1298978626728058,0.024392321705818176,0.08078036457300186
1789620122369057800,47.999057861328126,-0.15839849412441254,-0.08352527767419815,0.15914008021354675
1789620122379030000,48.00903002929687,-0.19000248610973358,-0.2258283495903015,0.18653735518455505
1789620122389001700,48.019001708984376,-0.21148040890693665,-0.33290016651153564,0.14222580194473267
1789620122398974000,48.028973876953124,-0.20036810636520386,-0.3398241400718689,0.04050848260521889
1789620122408946000,48.03894580078125,-0.17692585289478302,-0.2673669457435608,-0.06646302342414856
1789620122418918000,48.04891796875,-0.15750688314437866,-0.1582564413547516,-0.1445988267660141
1789620122428891000,48.058890869140626,-0.1586429327726364,-0.07675086706876755,-0.17182864248752594
1789620122438862800,48.06886279296875,-0.17888988554477692,-0.049894221127033234,-0.14636802673339844
1789620122448834800,48.07883471679688,-0.21159037947654724,-0.05519995465874672,-0.08535429835319519
1789620122458807000,48.08880712890625,-0.2395554482936859,-0.05804767459630966,-0.01609107293188572
1789620122468778800,48.09877880859375,-0.2629862129688263,-0.03780046105384827,0.048679400235414505
1789620122478752000,48.108751953125,-0.2733781039714813,-0.03358529135584831,0.08995980769395828
1789620122488724000,48.118723876953126,-0.2559177875518799,-0.051375411450862885,0.1059989184141159
1789620122498696400,48.128696533203126,-0.2252967357635498,-0.05562768131494522,0.1171618178486824
1789620122508668400,48.13866845703125,-0.1940445750951767,-0.04499359801411629,0.12856914103031158
1789620122518640600,48.148640625,-0.17130304872989655,-0.039200689643621445,0.1428236961364746
1789620122528612400,48.1586123046875,-0.17778562009334564,-0.06659325957298279,0.1651669144630432
1789620122538585300,48.16858544921875,-0.20068320631980896,-0.11972811818122864,0.18179889023303986
1789620122548557600,48.1785576171875,-0.2133551687002182,-0.16462485492229462,0.18254254758358002
1789620122558529300,48.188529296875,-0.21428541839122772,-0.21346937119960785,0.16761313378810883
1789620122568501500,48.19850146484375,-0.19655321538448334,-0.2596973478794098,0.13210947811603546
1789620122578473200,48.20847314453125,-0.16400139033794403,-0.2780361473560333,0.08860594779253006
1789620122588446500,48.21844653320313,-0.13525305688381195,-0.2676534950733185,0.05555287003517151
1789620122598418400,48.22841845703125,-0.12416524440050125,-0.22926373779773712,0.04539530724287033
1789620122608390400,48.23839038085937,-0.13326053321361542,-0.15616902709007263,0.052313923835754395
1789620122618362400,48.2483623046875,-0.1590937376022339,-0.09530140459537506,0.056110259145498276
1789620122628334600,48.25833447265625,-0.1922377347946167,-0.11293014138936996,0.04567728191614151
1789620122638306300,48.26830639648438,-0.21095548570156097,-0.21271586418151855,0.0035785662475973368
1789620122648279600,48.27827954101563,-0.2149210423231125,-0.3349158465862274,-0.07101520895957947
1789620122658251500,48.28825146484375,-0.19376783072948456,-0.3588086664676666,-0.15728697180747986
1789620122668223500,48.29822338867187,-0.1542748659849167,-0.27746349573135376,-0.22853901982307434
1789620122678195500,48.30819555664063,-0.11754561960697174,-0.15504810214042664,-0.26498544216156006
1789620122688167400,48.31816748046875,-0.09597259759902954,-0.04784823954105377,-0.25603288412094116
1789620122698140400,48.328140380859374,-0.09180901199579239,0.013814058154821396,-0.19785985350608826
1789620122708112400,48.3381123046875,-0.11026559770107269,0.02631661668419838,-0.11129628121852875
1789620122718084400,48.34808447265625,-0.13958939909934998,0.0037884055636823177,-0.028128422796726227
1789620122728056300,48.35805639648437,-0.16880759596824646,-0.058249425143003464,0.026353757828474045
1789620122738028500,48.36802856445313,-0.17915983498096466,-0.14883656799793243,0.03928367421030998
1789620122748000300,48.37800024414062,-0.16015149652957916,-0.24652361869812012,0.003439003834500909
1789620122757973500,48.387973388671874,-0.11498134583234787,-0.30517762899398804,-0.06777045875787735
1789620122767945500,48.39794555664062,-0.06073891744017601,-0.2788335382938385,-0.13813205063343048
1789620122777917400,48.40791748046875,-0.014927487820386887,-0.186094269156456,-0.16425606608390808
1789620122787889400,48.41788940429687,0.010736681520938873,-0.10350994765758514,-0.13704891502857208
1789620122797861400,48.427861328125,0.012482384219765663,-0.07831830531358719,-0.05510585382580757
1789620122807833300,48.43783325195312,-0.009451470337808132,-0.10179784148931503,0.059219442307949066
1789620122817806600,48.447806640625,-0.04736875742673874,-0.131100594997406,0.18136027455329895
1789620122827778300,48.4577783203125,-0.09343446046113968,-0.1478428989648819,0.2917768657207489
1789620122837750500,48.46775048828125,-0.14291226863861084,-0.11730523407459259,0.3736773133277893
1789620122847722500,48.47772241210937,-0.19746387004852295,-0.06190624460577965,0.41525599360466003
1789620122857694500,48.48769458007813,-0.24075143039226532,-0.041379932314157486,0.410966694355011
1789620122867667500,48.49766748046875,-0.26236221194267273,-0.06990517675876617,0.3581177592277527
1789620122877639400,48.507639404296874,-0.2726776897907257,-0.11017163842916489,0.28937143087387085
1789620122887611400,48.517611328125,-0.28131186962127686,-0.12105013430118561,0.2353508174419403
1789620122897583400,48.527583251953125,-0.30713894963264465,-0.13050782680511475,0.19659996032714844
1789620122907555300,48.53755541992187,-0.3273743689060211,-0.21215668320655823,0.13380564749240875
1789620122917528300,48.5475283203125,-0.33505359292030334,-0.341389000415802,0.023663964122533798
1789620122927500500,48.55750048828125,-0.34233835339546204,-0.4197111129760742,-0.13401366770267487
1789620122937472300,48.56747216796875,-0.3673776686191559,-0.39769235253334045,-0.3385455012321472
1789620122947444500,48.57744458007812,-0.3843643367290497,-0.27243417501449585,-0.586742103099823
1789620122957416400,48.58741650390625,-0.3811275362968445,-0.04714617505669594,-0.8272977471351624
1789620122967388400,48.59738842773437,-0.36515888571739197,0.1871558427810669,-0.985264003276825
1789620122977361400,48.607361328125,-0.3423856496810913,0.38724660873413086,-0.9599168300628662
1789620122987333600,48.61733374023437,-0.3046734929084778,0.3660927414894104,-0.7464739680290222
1789620122997305300,48.627305419921875,-0.20518682897090912,0.04854565113782883,-0.5044810175895691
1789620123007277600,48.63727758789062,-0.0571635365486145,-0.35676681995391846,-0.2530957758426666
1789620123017249300,48.647249267578125,0.05484156310558319,-0.665372908115387,-0.05376748740673065
1789620123027222300,48.65722216796875,0.11189374327659607,-0.7895867228507996,0.03510301560163498
1789620123037194500,48.667194580078124,0.119792141020298,-0.7505703568458557,0.04298650100827217
1789620123047166500,48.67716650390625,0.06985513120889664,-0.5613031983375549,0.04090362787246704
1789620123057138400,48.687138427734375,-0.009469782002270222,-0.2996358871459961,0.042727626860141754
