time,seconds_elapsed,z,y,x
1789033866735712000,0.0807119140625,9.896714210510254,2.3162522315979004,1.0289137363433838
1789033866745637000,0.09063720703125,9.987641334533691,2.352144718170166,1.28255295753479
1789033866755562500,0.1005625,10.183853149414062,2.2444677352905273,1.552941918373108
1789033866765487600,0.110487548828125,10.451848983764648,2.2851455211639404,1.7324036359786987
1789033866775413000,0.1204130859375,10.600204467773438,2.706282377243042,2.0554347038269043
1789033866785338000,0.130338134765625,10.581061363220215,2.967100143432617,2.0003998279571533
1789033866795263500,0.140263427734375,10.581061363220215,2.9934210777282715,1.6558332443237305
1789033866805188600,0.150188720703125,10.619346618652344,3.022135019302368,1.6342978477478027
1789033866815114000,0.160114013671875,10.444670677185059,3.1202406883239746,1.6342978477478027
1789033866825039000,0.1700390625,10.212567329406738,3.1561331748962402,1.6630117893218994
1789033866834964500,0.179964599609375,9.982855796813965,3.084348440170288,1.6223337650299072
1789033866844889600,0.1898896484375,9.674181938171387,3.1106693744659424,1.545763373374939
1789033866854815000,0.19981494140625,9.370293617248535,3.2063822746276855,1.4691931009292603
1789033866864740000,0.209739990234375,9.21715259552002,3.2925238609313965,1.301695466041565
1789033866874665200,0.219665283203125,9.32004451751709,3.2685956954956055,1.5026925802230835
1789033866884590600,0.229590576171875,9.664610862731934,3.0891339778900146,1.950150489807129
1789033866894515700,0.239515625,10.155138969421387,2.926422119140625,2.4646072387695312
1789033866904441000,0.249441162109375,10.607382774353027,2.7493531703948975,2.9168508052825928
1789033866914366500,0.259366455078125,10.695917129516602,2.754138946533203,3.060420274734497
1789033866924291600,0.26929150390625,10.38485050201416,2.3545374870300293,2.9383862018585205
1789033866934216700,0.279216796875,9.540184020996094,2.1750757694244385,2.8450660705566406
1789033866944142000,0.28914208984375,8.930013656616211,2.517249345779419,2.66560435295105
1789033866954067200,0.299067138671875,8.094919204711914,2.8666014671325684,2.3952155113220215
1789033866963992600,0.30899267578125,7.465606689453125,2.9383862018585205,2.091326951980591
1789033866973917700,0.318917724609375,7.245467185974121,2.730210542678833,1.6342978477478027
1789033866983843000,0.328843017578125,7.154539585113525,2.675175666809082,1.6606189012527466
1789033866993768200,0.338768310546875,7.018148899078369,2.651247501373291,1.9621145725250244
1789033867003693300,0.348693359375,6.893722057342529,2.620140790939331,2.4191436767578125
1789033867013618700,0.35861865234375,6.692724704742432,2.799602508544922,2.991028308868408
1789033867023544000,0.3685439453125,6.69990348815918,2.816352367401123,3.5294134616851807
1789033867033469200,0.37846923828125,6.829115867614746,2.785245656967163,3.8500516414642334
1789033867043394600,0.38839453125,6.941578388214111,2.754138946533203,3.94097900390625
1789033867053319700,0.398319580078125,7.137789726257324,2.7900311946868896,3.799802303314209
1789033867063244800,0.408244873046875,7.343572616577148,2.744567632675171,3.383451223373413
1789033867073170200,0.418170166015625,7.642675399780273,2.7565317153930664,2.8498518466949463
1789033867083095300,0.42809521484375,7.936992645263672,2.8450660705566406,2.2923240661621094
1789033867093020700,0.438020751953125,8.015955924987793,2.794816732406616,1.8161523342132568
1789033867102945800,0.44794580078125,7.850851058959961,2.809173822402954,1.5385849475860596
1789033867112871200,0.45787109375,7.690532207489014,2.8905298709869385,1.306481122970581
1789033867122796300,0.46779638671875,7.441678524017334,2.902493953704834,0.9308080077171326
1789033867132721700,0.4777216796875,7.204789161682129,2.9455647468566895,0.4450650215148926
1789033867142646800,0.487646728515625,6.953542709350586,3.022135019302368,-0.02392822690308094
1789033867152572200,0.497572265625,6.994220733642578,2.998206853866577,0.15314064919948578
1789033867162497300,0.507497314453125,7.475177764892578,3.0077781677246094,1.1078768968582153
1789033867172422400,0.51742236328125,8.300702095031738,2.8929226398468018,1.5146567821502686
1789033867182347800,0.52734765625,9.312865257263184,2.792423963546753,1.2658032178878784
1789033867192273000,0.53727294921875,9.4061861038208,2.799602508544922,1.3543375730514526
1789033867202198300,0.5471982421875,9.087940216064453,2.806781053543091,1.1437692642211914
1789033867212123400,0.557123291015625,8.987442016601562,2.9001009464263916,0.6317051649093628
1789033867222048800,0.567048828125,8.82951545715332,3.0173492431640625,-0.39960137009620667
1789033867231974000,0.576973876953125,9.796216011047363,2.9288148880004883,-2.053041934967041
1789033867241899300,0.586899169921875,10.777273178100586,2.6560330390930176,-2.6368906497955322
1789033867251824400,0.596824462890625,10.868200302124023,2.943171739578247,-2.7182464599609375
1789033867261749800,0.606749755859375,10.514062881469727,2.926422119140625,-2.1511476039886475
1789033867271675000,0.6166748046875,9.559326171875,2.0410776138305664,0.25363919138908386
1789033867281600000,0.62660009765625,9.181260108947754,2.9862427711486816,2.390429735183716
1789033867291525400,0.636525390625,8.662017822265625,3.373879909515381,2.912065267562866
1789033867301450500,0.646450439453125,5.20678186416626,4.225724697113037,1.2849457263946533
1789033867311376000,0.6563759765625,3.2231321334838867,9.53779125213623,-7.975277900695801
1789033867321301200,0.66630126953125,14.7206449508667,4.278367042541504,-7.941778182983398
1789033867331226400,0.676226318359375,13.00499153137207,2.462214469909668,-5.522634506225586
1789033867341151500,0.6861513671875,11.95454216003418,2.0267207622528076,-3.2159535884857178
1789033867351076900,0.696076904296875,10.861021995544434,3.421736478805542,-2.3952155113220215
1789033867361002000,0.706001953125,10.805987358093262,4.163511276245117,-3.2159535884857178
1789033867370927400,0.71592724609375,9.92542839050293,3.352344512939453,-3.3714871406555176
1789033867380852500,0.7258525390625,9.463613510131836,2.3401806354522705,-3.2207393646240234
1789033867390777600,0.735777587890625,10.717453002929688,2.1511476039886475,-2.8594231605529785
1789033867400703000,0.745702880859375,11.722437858581543,3.10109806060791,-0.7561319470405579
1789033867410628000,0.755628173828125,11.672188758850098,4.266402721405029,1.7276179790496826
1789033867420553500,0.765553466796875,11.25344467163086,5.520241737365723,1.31365966796875
1789033867430478800,0.775478759765625,8.918049812316895,6.798008918762207,0.4331009089946747
1789033867440404000,0.785404052734375,6.604190349578857,4.962714195251465,-0.10767702013254166
1789033867450329000,0.7953291015625,6.491727828979492,4.924428939819336,-0.30149564146995544
1789033867460254500,0.80525439453125,8.69791030883789,4.7401814460754395,0.6843472719192505
1789033867470179600,0.8151796875,9.200403213500977,4.232903480529785,1.0839486122131348
1789033867480105000,0.82510498046875,9.65503978729248,4.1036906242370605,-0.08135596662759781
1789033867490030000,0.835030029296875,11.035697937011719,3.8883368968963623,-1.368694543838501
1789033867499955200,0.844955078125,11.373085975646973,3.0556344985961914,-1.5792629718780518
1789033867509880600,0.854880615234375,10.63370418548584,2.1367905139923096,-1.495514154434204
1789033867519805700,0.8648056640625,10.451848983764648,2.234896421432495,-1.7922241687774658
1789033867529731000,0.87473095703125,9.695717811584473,2.194218397140503,-2.060220241546631
1789033867539656200,0.88465625,8.575876235961914,2.227717876434326,-2.550748825073242
1789033867549581600,0.89458154296875,7.3914289474487305,2.2540390491485596,-3.1178479194641113
1789033867559506700,0.904506591796875,6.750152587890625,2.170290231704712,-3.436093330383301
1789033867569432000,0.91443212890625,6.8554368019104,2.1918256282806396,-3.139383316040039
1789033867579357200,0.924357177734375,7.630711555480957,2.447857618331909,-2.1990039348602295
1789033867589282600,0.934282470703125,8.563912391662598,2.833101987838745,-1.098305583000183
1789033867599207700,0.944207763671875,9.023334503173828,3.1657042503356934,-0.41874396800994873
1789033867609132800,0.9541328125,9.513862609863281,3.4265220165252686,0.14356936514377594
1789033867619058200,0.96405810546875,9.44447135925293,3.326023578643799,0.36610186100006104
1789033867628983300,0.9739833984375,9.470791816711426,3.0077781677246094,-0.1818545162677765
1789033867638908700,0.98390869140625,10.53081226348877,2.5698914527893066,-0.794417142868042
1789033867648833800,0.993833740234375,8.126026153564453,2.2707886695861816,-0.729810893535614
1789033867658759200,1.00375927734375,8.61176872253418,2.562713146209717,-0.8877372145652771
1789033867668684300,1.013684326171875,9.53061294555664,2.620140790939331,0.06939185410737991
1789033867678609700,1.023609619140625,10.296316146850586,2.957528829574585,1.576870083808899
1789033867688534800,1.03353466796875,10.114460945129395,3.4887354373931885,1.911865234375
1789033867698460200,1.043460205078125,9.810572624206543,3.6705899238586426,1.8783657550811768
1789033867708385300,1.05338525390625,9.131011009216309,3.5605201721191406,1.6079767942428589
1789033867718310400,1.063310302734375,8.293522834777832,3.589233875274658,1.0887342691421509
1789033867728235800,1.07323583984375,7.812565803527832,3.383451223373413,0.6436693072319031
1789033867738161200,1.0831611328125,7.70967435836792,3.105883836746216,0.6269195079803467
1789033867748086300,1.093086181640625,7.623532772064209,3.014956474304199,1.074377417564392
1789033867758011400,1.103011474609375,7.652246952056885,3.0891339778900146,1.34476637840271
1789033867767936800,1.112936767578125,8.434700012207031,3.0005996227264404,1.3782658576965332
1789033867777862000,1.12286181640625,9.611968994140625,2.8354947566986084,1.8735800981521606
1789033867787787300,1.132787353515625,10.351350784301758,2.7397818565368652,2.723032236099243
1789033867797712400,1.14271240234375,10.98305606842041,2.792423963546753,3.1920254230499268
1789033867807637500,1.152637451171875,11.282158851623535,2.9838497638702393,3.6299118995666504
1789033867817563000,1.16256298828125,11.227124214172363,3.022135019302368,3.5437703132629395
1789033867827488000,1.172488037109375,11.052447319030762,2.8761727809906006,3.16331148147583
1789033867837413400,1.182413330078125,10.992627143859863,2.8139593601226807,2.8977081775665283
1789033867847338500,1.19233837890625,10.978270530700684,2.6273193359375,2.612962245941162
1789033867857263900,1.202263916015625,10.74855899810791,2.1678972244262695,2.1655044555664062
1789033867867189000,1.21218896484375,10.48534870147705,2.021935224533081,1.698904037475586
1789033867877114400,1.2221142578125,10.236495018005371,2.1607189178466797,1.6845471858978271
1789033867887039500,1.23203955078125,10.241280555725098,2.0099709033966064,1.8496519327163696
1789033867896964900,1.24196484375,10.403992652893066,2.203789710998535,1.7491533756256104
1789033867906890000,1.251889892578125,10.241280555725098,2.495713949203491,1.8400806188583374
1789033867916815000,1.261815185546875,9.810572624206543,2.541177749633789,2.0099709033966064
1789033867926740500,1.271740478515625,9.573683738708496,2.4670002460479736,1.9357935190200806
1789033867936665600,1.28166552734375,9.480362892150879,2.478964328765869,1.9022940397262573
1789033867946591000,1.291591064453125,9.784252166748047,2.3712873458862305,1.7874385118484497
1789033867956516000,1.30151611328125,10.126425743103027,2.287538528442383,2.0721843242645264
1789033867966441200,1.311441162109375,10.236495018005371,2.60339093208313,2.0745773315429688
1789033867976366600,1.32136669921875,10.15035343170166,2.4670002460479736,1.8137595653533936
1789033867986292000,1.3312919921875,10.317851066589355,1.8376877307891846,1.4189438819885254
1789033867996217000,1.341217041015625,10.365707397460938,1.4428720474243164,1.3423734903335571
1789033868006142200,1.35114208984375,10.071390151977539,1.6271194219589233,1.679761528968811
1789033868016067600,1.361067626953125,9.355937004089355,1.8831514120101929,1.1198409795761108
1789033868025992700,1.37099267578125,8.353343963623047,2.1990039348602295,1.2011969089508057
1789033868035918000,1.38091796875,7.451249599456787,2.447857618331909,1.1700903177261353
1789033868045843200,1.39084326171875,7.087540626525879,2.500499725341797,1.2059825658798218
1789033868055768600,1.4007685546875,7.176074981689453,2.6177480220794678,1.4787644147872925
1789033868065693700,1.410693603515625,7.255038261413574,2.7397818565368652,1.612762451171875
1789033868075618800,1.420618896484375,6.783652305603027,2.6057839393615723,1.4691931009292603
1789033868085544200,1.430544189453125,6.278766632080078,2.445464849472046,1.3567304611206055
1789033868095469300,1.44046923828125,6.0849480628967285,2.3306093215942383,1.550549030303955
1789033868105394700,1.450394775390625,6.228517532348633,2.337787628173828,1.7156537771224976
1789033868115319800,1.46031982421875,6.247660160064697,2.1415762901306152,1.8903298377990723
1789033868125245200,1.4702451171875,6.2428741455078125,1.8376877307891846,2.062613010406494
1789033868135170300,1.48017041015625,6.0777692794799805,1.550549030303955,2.462214469909668
1789033868145095700,1.490095703125,5.606383323669434,0.729810893535614,2.3473589420318604
1789033868155020800,1.500020751953125,4.862215518951416,0.19621145725250244,2.2468605041503906
1789033868164946000,1.50994580078125,3.9146578311920166,-0.2991028428077698,3.0963125228881836
1789033868174871300,1.519871337890625,3.1130621433258057,-0.727418065071106,3.5341989994049072
1789033868184796700,1.529796630859375,2.7876384258270264,-1.9932212829589844,3.7016966342926025
1789033868194721800,1.5397216796875,2.9862427711486816,-1.7467604875564575,4.1419758796691895
1789033868204647000,1.54964697265625,1.892722725868225,-0.6532405614852905,4.242474555969238
1789033868214572300,1.559572265625,1.2873386144638062,-0.9930213689804077,4.752145767211914
1789033868224497400,1.569497314453125,2.172683000564575,-2.1678972244262695,4.122833251953125
1789033868234422800,1.5794228515625,2.5292134284973145,-3.8907296657562256,3.1561331748962402
1789033868244348000,1.589347900390625,2.3952155113220215,-4.752145767211914,3.2542388439178467
1789033868254273000,1.59927294921875,2.1032910346984863,-4.890929698944092,4.914857864379883
1789033868264198400,1.609198486328125,2.737389087677002,-4.096512317657471,4.474578380584717
1789033868274123500,1.61912353515625,3.5341989994049072,-5.515456199645996,4.632504463195801
1789033868284049000,1.629048828125,3.486342668533325,-6.252445697784424,5.670989513397217
1789033868293974000,1.63897412109375,2.7876384258270264,-6.113661766052246,5.91505765914917
1789033868303899400,1.6488994140625,2.03629207611084,-6.6831536293029785,6.302694797515869
1789033868313824500,1.658824462890625,2.4023938179016113,-7.379465103149414,7.188039302825928
1789033868323750000,1.66875,3.594019651412964,-7.396214962005615,8.839086532592773
1789033868333675000,1.678675048828125,4.73300313949585,-7.259823799133301,10.028319358825684
1789033868343600400,1.688600341796875,5.800201892852783,-7.1856465339660645,11.722437858581543
1789033868353525500,1.698525390625,6.874579429626465,-6.104090690612793,13.902299880981445
1789033868363450600,1.70845068359375,7.3746795654296875,-5.1804609298706055,15.012569427490234
1789033868373376000,1.7183759765625,6.563512325286865,-4.60139799118042,17.491533279418945
1789033868383301000,1.728301025390625,4.6372904777526855,-3.737588882446289,18.486948013305664
1789033868393226500,1.7382265625,2.8809585571289062,-3.438486099243164,19.49911117553711
1789033868403151600,1.748151611328125,2.1750757694244385,-3.596412420272827,20.654844284057617
1789033868413076700,1.75807666015625,1.4787644147872925,-2.691925525665283,22.12643051147461
1789033868423002000,1.768002197265625,2.414358139038086,-2.297109842300415,22.279571533203125
1789033868432927500,1.777927490234375,4.47697114944458,-1.4739787578582764,22.423141479492188
1789033868442852600,1.7878525390625,6.03948450088501,-0.6891329288482666,22.67917251586914
1789033868452777700,1.79777783203125,6.92482852935791,-1.0863415002822876,22.652851104736328
1789033868462703000,1.807703125,6.448657035827637,-0.6197410821914673,22.62653160095215
1789033868472628200,1.817628173828125,4.783252239227295,-0.9619147181510925,21.992433547973633
1789033868482553600,1.8275537109375,2.1439690589904785,-1.4213366508483887,21.262622833251953
1789033868492478700,1.837478759765625,1.789831280708313,-0.7513462901115417,20.21456527709961
1789033868502403800,1.84740380859375,0.7585247755050659,-1.8735800981521606,19.109081268310547
1789033868512329200,1.8573291015625,4.06540584564209,-3.0005996227264404,18.163917541503906
1789033868522254300,1.86725439453125,3.0484559535980225,-1.8161523342132568,18.372093200683594
1789033868532179700,1.8771796875,1.6319050788879395,-2.155933141708374,16.950756072998047
1789033868542104800,1.887104736328125,0.7010970115661621,-2.59621262550354,15.833307266235352
1789033868552030200,1.8970302734375,-1.3423734903335571,-2.1343977451324463,14.344971656799316
1789033868561955300,1.906955322265625,-3.4911282062530518,-2.6799614429473877,12.851850509643555
1789033868571880700,1.916880615234375,-3.586841106414795,-2.3784656524658203,12.2799654006958
1789033868581805800,1.926805908203125,-3.88594388961792,-2.1439690589904785,11.72004508972168
1789033868591731000,1.93673095703125,-10.829915046691895,-0.7465606927871704,9.032905578613281
1789033868601656300,1.94665625,-9.994820594787598,-1.4572290182113647,8.49452018737793
1789033868611581400,1.95658154296875,-2.3545374870300293,-2.7876384258270264,10.51645565032959
1789033868621506800,1.9665068359375,0.2512463629245758,-1.4644074440002441,10.052248001098633
1789033868631432000,1.976431884765625,-12.131610870361328,0.0933200865983963,7.334001541137695
1789033868641357000,1.986357177734375,-0.763310432434082,-2.0721843242645264,6.898507595062256
1789033868651282400,1.996282470703125,0.698704183101654,-1.2801600694656372,6.154339790344238
1789033868661207800,2.006207763671875,-2.6943182945251465,-0.30149564146995544,7.04207706451416
1789033868671133000,2.0161328125,14.68953800201416,-0.2392822653055191,9.980463027954102
1789033868681058000,2.02605810546875,-3.2518460750579834,1.332802176475525,3.421736478805542
1789033868690983400,2.0359833984375,10.15753173828125,1.1030912399291992,1.828116536140442
1789033868700908500,2.045908447265625,-1.5361921787261963,1.7539390325546265,-2.0243279933929443
1789033868710834000,2.055833984375,-4.381258487701416,4.792823791503906,0.02153540402650833
1789033868720759000,2.065759033203125,1.4189438819885254,5.642275810241699,4.505684852600098
1789033868730684200,2.07568408203125,-15.414563179016113,5.78345251083374,0.39960137009620667
1789033868740609500,2.085609619140625,-2.65842604637146,6.03948450088501,3.452843189239502
1789033868750534700,2.09553466796875,-2.2995026111602783,7.984848976135254,5.72841739654541
1789033868760460000,2.1054599609375,-4.1036906242370605,7.3292155265808105,6.166304111480713
1789033868770385200,2.11538525390625,-6.013163089752197,5.934200286865234,3.105883836746216
1789033868780310500,2.125310546875,-5.974878311157227,5.709274768829346,4.67078971862793
1789033868790235600,2.135235595703125,-3.6227335929870605,5.589633464813232,6.463014125823975
1789033868800161000,2.1451611328125,-1.373480200767517,2.012363910675049,6.888936519622803
1789033868810086100,2.155086181640625,-6.0849480628967285,2.8115665912628174,8.72901725769043
1789033868820011300,2.16501123046875,3.1680972576141357,-3.25663161277771,9.169296264648438
1789033868833704700,2.17870458984375,25.129423141479492,-13.926227569580078,13.76351547241211
1789033868843629300,2.18862939453125,1.5696916580200195,-12.227323532104492,7.135396957397461
1789033868853554400,2.198554443359375,-7.575676441192627,-16.237693786621094,13.596017837524414
1789033868863479800,2.208479736328125,-8.422736167907715,-12.074183464050293,16.01276969909668
1789033868873405000,2.218405029296875,-6.900900363922119,-11.729616165161133,13.107882499694824
1789033868883330000,2.228330078125,-12.509676933288574,8.432307243347168,0.7178468108177185
1789033868893255400,2.23825537109375,10.643275260925293,-34.0355110168457,20.549560546875
1789033868903180500,2.2481806640625,1.5074782371520996,-8.441878318786621,15.165709495544434
1789033868913106000,2.25810595703125,-0.1818545162677765,-13.816158294677734,13.103096961975098
1789033868923031000,2.268031005859375,-2.60339093208313,-11.045269012451172,12.313465118408203
1789033868932956400,2.277956298828125,-1.6079767942428589,-10.53799057006836,10.801201820373535
1789033868942881500,2.287881591796875,-2.8426733016967773,-12.045469284057617,6.97268533706665
1789033868952807000,2.297806884765625,-2.1056840419769287,-10.877771377563477,5.340780258178711
1789033868962732000,2.30773193359375,-2.8139593601226807,-9.681360244750977,3.2542388439178467
1789033868972657200,2.3176572265625,-2.2301106452941895,-9.753145217895508,0.8566305041313171
1789033868982582500,2.32758251953125,-3.2207393646240234,-8.915657043457031,0.8470591902732849
1789033868992507600,2.337507568359375,-2.2779672145843506,-8.571090698242188,0.7800601720809937
1789033869002433000,2.34743310546875,3.211168050765991,-9.418149948120117,-0.20099709928035736
1789033869012358100,2.357358154296875,4.661218643188477,-4.417150497436523,8.365307807922363
1789033869022283500,2.367283447265625,0.8662018179893494,-5.54177713394165,6.503692150115967
1789033869032208600,2.377208740234375,-1.674975872039795,-3.7806596755981445,9.001798629760742
1789033869042134000,2.387134033203125,1.4213366508483887,-3.249453067779541,10.561919212341309
1789033869052059100,2.39705908203125,-1.0241280794143677,-0.9667003750801086,16.807186126708984
1789033869061984300,2.406984375,-0.5599204897880554,7.89631462097168,31.42254638671875
1789033869071909600,2.41690966796875,-7.479963779449463,5.3312087059021,24.69392967224121
1789033869081834800,2.426834716796875,-5.594419479370117,-1.6893328428268433,8.82951545715332
1789033869091760000,2.436760009765625,1.4691931009292603,-1.794616937637329,7.427321434020996
1789033869101685200,2.446685302734375,3.005385160446167,-1.5744773149490356,8.551948547363281
1789033869111610600,2.456610595703125,1.9094724655151367,-1.3160524368286133,8.46580696105957
1789033869121535700,2.46653564453125,-2.50289249420166,-1.6223337650299072,-0.6699903607368469
1789033869131460900,2.4764609375,-0.8757730722427368,4.187439441680908,12.098111152648926
1789033869141386200,2.48638623046875,0.8566305041313171,2.6847469806671143,14.835500717163086
1789033869151311400,2.496311279296875,-1.4691931009292603,-1.2346965074539185,14.261222839355469
1789033869161236700,2.50623681640625,1.2729816436767578,-7.843672752380371,7.81974458694458
1789033869171161900,2.516161865234375,3.4121651649475098,-11.854043006896973,6.317051887512207
1789033869181087000,2.5260869140625,0.5886343717575073,-11.590832710266113,7.073183536529541
1789033869191012000,2.53601220703125,-1.2921242713928223,-14.376078605651855,7.70967435836792
1789033869200937500,2.5459375,-0.1818545162677765,-15.433706283569336,4.934000492095947
1789033869210862800,2.55586279296875,-2.3258235454559326,-17.434104919433594,2.9766714572906494
1789033869220788000,2.5657880859375,-0.2727817893028259,-17.883956909179688,2.6321048736572266
1789033869230713000,2.575713134765625,-0.02871387079358101,-14.438291549682617,6.144768714904785
1789033869240638500,2.585638427734375,-1.2442678213119507,-13.509876251220703,7.0923261642456055
1789033869250563600,2.5955634765625,-1.770688772201538,-12.796815872192383,7.168896675109863
1789033869260489000,2.605489013671875,-3.0723843574523926,-11.868400573730469,7.240681171417236
1789033869270414000,2.6154140625,-4.264009952545166,-9.997213363647461,6.546762943267822
1789033869280339500,2.62533935546875,-4.40757942199707,-8.532805442810059,8.207381248474121
1789033869290264600,2.6352646484375,-4.364508628845215,-8.504091262817383,5.72841739654541
1789033869300190000,2.64518994140625,-4.450650215148926,-8.475378036499023,3.3547372817993164
1789033869310115000,2.655114990234375,-3.996013879776001,-7.09711217880249,1.9716858863830566
1789033869320040200,2.665040283203125,-2.6847469806671143,-9.34157943725586,1.6845471858978271
1789033869329965600,2.674965576171875,2.761317253112793,-8.221738815307617,2.407179594039917
1789033869339890700,2.684890625,5.340780258178711,-6.288337707519531,7.489534854888916
1789033869349816000,2.694816162109375,5.589633464813232,-6.833901405334473,6.819544315338135
1789033869359741200,2.7047412109375,5.034498691558838,-6.436692714691162,7.944170951843262
1789033869369666300,2.714666259765625,2.5603201389312744,-3.4025938510894775,12.519248008728027
1789033869379591700,2.724591796875,-0.8231309652328491,-1.277767300605774,15.582060813903809
1789033869389516800,2.734516845703125,-2.9527430534362793,-0.363709032535553,16.40519142150879
1789033869399442200,2.744442138671875,-5.7858452796936035,-1.1629117727279663,14.988640785217285
1789033869409367300,2.7543671875,-8.011170387268066,-1.7228323221206665,13.619946479797363
1789033869419292400,2.76429248046875,-9.638289451599121,-2.4741785526275635,11.710474014282227
1789033869429217800,2.7742177734375,-8.293522834777832,-3.5988051891326904,10.01156997680664
1789033869439143000,2.784142822265625,-4.934000492095947,-2.9527430534362793,10.279565811157227
1789033869449068300,2.794068359375,-1.8711873292922974,-1.8376877307891846,10.939985275268555
1789033869458993400,2.803993408203125,-1.6941183805465698,-1.2394821643829346,11.021341323852539
1789033869468918800,2.813918701171875,-1.4739787578582764,-1.0911271572113037,10.829915046691895
1789033869478844000,2.823843994140625,1.8616160154342651,-0.17706887423992157,12.131610870361328
1789033869488769000,2.83376904296875,1.8999011516571045,3.713660717010498,13.88794231414795
1789033869498694400,2.8436943359375,0.31106695532798767,2.163111686706543,12.868599891662598
1789033869508619500,2.85361962890625,-1.2873386144638062,-0.2871387302875519,11.303693771362305
1789033869518545000,2.863544921875,0.48813581466674805,-4.364508628845215,4.321437835693359
1789033869528470000,2.873469970703125,-1.7228323221206665,-5.465207099914551,2.1535403728485107
1789033869538395100,2.88339501953125,-25.478775024414062,10.6624174118042,21.7938289642334
1789033869548320500,2.893320556640625,14.82114315032959,-15.247065544128418,5.776273727416992
1789033869558245600,2.90324560546875,4.527220249176025,-12.112467765808105,-6.537191390991211
1789033869568171000,2.9131708984375,5.383851051330566,-16.017555236816406,-8.489734649658203
1789033869578096000,2.92309619140625,-0.5216353535652161,-12.390035629272461,-5.3312087059021
1789033869588021500,2.933021484375,3.2542388439178467,-7.599604606628418,5.72841739654541
1789033869597946600,2.942946533203125,4.158725738525391,-14.385649681091309,-0.7130611538887024
1789033869607872000,2.9528720703125,-0.7130611538887024,-11.672188758850098,1.1485549211502075
1789033869617797000,2.962797119140625,-5.115854740142822,-19.04686737060547,0.5120640397071838
1789033869627722200,2.97272216796875,-3.335594654083252,-10.652846336364746,4.527220249176025
1789033869637647600,2.982647705078125,-5.838487148284912,-9.729216575622559,7.891529083251953
1789033869647572700,2.99257275390625,-5.2977094650268555,-10.643275260925293,8.81515884399414
1789033869657497900,3.002497802734375,-4.886143684387207,-10.41356372833252,10.360921859741211
1789033869667423200,3.01242333984375,-5.201996326446533,-10.313065528869629,11.676974296569824
1789033869677348400,3.022348388671875,-5.201996326446533,-9.973284721374512,11.988041877746582
1789033869687273700,3.032273681640625,-5.814558982849121,-7.992027759552002,13.064811706542969
1789033869697198800,3.04219873046875,-6.565905570983887,-6.3122663497924805,13.37587833404541
1789033869707124200,3.052124267578125,-5.589633464813232,-4.957928657531738,13.505090713500977
1789033869717049300,3.06204931640625,-4.900500774383545,-6.049055576324463,11.097911834716797
1789033869726974700,3.071974609375,-5.742774486541748,-5.326423168182373,10.581061363220215
1789033869736899800,3.08189990234375,-5.3312087059021,3.1202406883239746,6.8243303298950195
1789033869746825200,3.0918251953125,-7.4464640617370605,0.3206382393836975,6.293123722076416
1789033869756750300,3.101750244140625,-7.489534854888916,-3.359523057937622,5.661418437957764
1789033869766675700,3.11167578125,-5.637490272521973,-4.019941806793213,7.269395351409912
1789033869776600800,3.121600830078125,-4.934000492095947,-5.651846885681152,6.642475605010986
1789033869786526000,3.13152587890625,-3.2207393646240234,-7.264609336853027,6.9822564125061035
1789033869796451300,3.141451416015625,-2.833101987838745,-6.32662296295166,7.747959613800049
1789033869806376400,3.15137646484375,-3.211168050765991,-4.311866283416748,6.379265308380127
1789033869816301600,3.161301513671875,-3.5270206928253174,-5.3694939613342285,4.579862594604492
1789033869826227000,3.17122705078125,-3.1202406883239746,-5.8337016105651855,4.192225456237793
1789033869836152000,3.181152099609375,-3.139383316040039,-4.7234320640563965,4.7952165603637695
1789033869846077200,3.1910771484375,-3.1680972576141357,-2.7278177738189697,4.7234320640563965
1789033869856002600,3.20100244140625,-3.7806596755981445,-0.40677985548973083,4.077369689941406
1789033869865927700,3.210927734375,-2.641676187515259,-0.5120640397071838,3.895515203475952
1789033869875852800,3.220852783203125,-4.910071849822998,-1.8807586431503296,3.4887354373931885
1789033869885778200,3.230778076171875,-4.321437835693359,1.2681959867477417,4.689932346343994
1789033869895703300,3.240703369140625,-3.3882367610931396,3.2685956954956055,4.570291042327881
1789033869905628400,3.25062841796875,-5.034498691558838,3.3020951747894287,4.086941242218018
1789033869915553800,3.2605537109375,-2.9766714572906494,4.59421968460083,4.522434711456299
1789033869925479000,3.27047900390625,-8.331808090209961,-2.785245656967163,8.250452041625977
1789033869935404000,3.280404052734375,-7.977670669555664,-8.475378036499023,7.23589563369751
1789033869945329400,3.290329345703125,-4.599005222320557,-5.134997367858887,5.900700569152832
1789033869955254500,3.300254638671875,-0.2584248483181,3.34995174407959,0.641276478767395
1789033869965180000,3.310179931640625,-5.283352375030518,-1.2921242713928223,3.924229145050049
1789033869975105000,3.32010498046875,-5.06799840927124,-0.397208571434021,4.311866283416748
1789033869985030400,3.330030517578125,-13.629517555236816,-11.542976379394531,3.091526746749878
1789033869994955500,3.33995556640625,-13.825729370117188,16.366907119750977,10.643275260925293
1789033870004881000,3.349880859375,-25.493131637573242,-2.139183521270752,2.9479575157165527
1789033870014806000,3.359805908203125,17.883956909179688,-28.024738311767578,-1.4500504732131958
1789033870024731400,3.3697314453125,10.293923377990723,-35.08356475830078,-5.302495002746582
1789033870034656800,3.37965673828125,-15.376277923583984,-12.882957458496094,10.676774978637695
1789033870044582000,3.389581787109375,-13.476377487182617,-7.585247993469238,10.102497100830078
1789033870054507300,3.39950732421875,1.038485050201416,-21.473190307617188,12.466606140136719
1789033870064432400,3.409432373046875,-2.7900311946868896,-14.883357048034668,11.155339241027832
1789033870074357500,3.419357421875,-7.302894592285156,-14.567503929138184,11.80618667602539
1789033870084283000,3.429282958984375,-5.522634506225586,-14.490934371948242,7.83410120010376
1789033870094208000,3.4392080078125,-6.896114826202393,-8.628518104553223,4.694717884063721
1789033870104133000,3.449133056640625,-5.594419479370117,-5.781059741973877,2.823530673980713
1789033870114058500,3.45905859375,-5.493920803070068,-4.9435715675354,2.713460922241211
1789033870123983600,3.468983642578125,-5.948556900024414,-4.780859470367432,3.2207393646240234
1789033870133908700,3.47890869140625,-6.269195556640625,-4.977071285247803,2.981456995010376
1789033870143834000,3.488834228515625,-5.733202934265137,-5.278566837310791,3.2446675300598145
1789033870153759200,3.49875927734375,-5.465207099914551,-2.0578274726867676,5.249852657318115
1789033870163684400,3.508684326171875,-3.8811583518981934,0.9906286001205444,4.972285270690918
1789033870173609700,3.518609619140625,-4.01037073135376,0.8614161610603333,4.460221290588379
1789033870183534800,3.528534912109375,-3.211168050765991,2.368894338607788,4.7712883949279785
1789033870193460000,3.5384599609375,-3.1441688537597656,2.6560330390930176,5.31685209274292
1789033870203385300,3.54838525390625,-4.967499732971191,1.5840486288070679,6.364908218383789
1789033870213310500,3.558310546875,-0.3732803463935852,-3.0340991020202637,7.6666035652160645
1789033870223235600,3.568235595703125,-0.0526420995593071,-7.226324558258057,9.422935485839844
1789033870233161000,3.578160888671875,-4.101297855377197,-6.920042991638184,9.250652313232422
1789033870243086000,3.588086181640625,-4.785645484924316,-7.613961696624756,8.733802795410156
1789033870253011500,3.598011474609375,-5.584847927093506,-8.437092781066895,8.585447311401367
1789033870262936600,3.6079365234375,-5.91505765914917,-8.949156761169434,7.738388538360596
1789033870272862000,3.617862060546875,-5.647061347961426,-7.8628153800964355,5.996413707733154
1789033870282787000,3.627787109375,-3.7232320308685303,-6.082555294036865,4.977071285247803
1789033870292712400,3.63771240234375,-2.794816732406616,-5.7619171142578125,7.83410120010376
1789033870302637600,3.647637451171875,-3.4504501819610596,-7.250252723693848,8.13081169128418
1789033870312563000,3.65756298828125,-3.78544545173645,-10.801201820373535,8.590232849121094
1789033870322488000,3.667488037109375,-3.728017568588257,-10.021141052246094,8.944371223449707
1789033870332413400,3.677413330078125,-3.6610186100006104,-10.021141052246094,9.906285285949707
1789033870342338600,3.687338623046875,-3.493520975112915,-7.781459331512451,9.241081237792969
1789033870352264000,3.697263916015625,-3.84765887260437,-6.819544315338135,8.863015174865723
1789033870362189000,3.70718896484375,-4.996213912963867,-6.479763507843018,8.599804878234863
1789033870372114400,3.717114501953125,-5.048855781555176,-5.431707382202148,8.614161491394043
1789033870382039600,3.72703955078125,-4.957928657531738,-5.661418437957764,8.403593063354492
1789033870391964700,3.736964599609375,-4.369294166564941,-4.986642360687256,8.504091262817383
1789033870401890000,3.74689013671875,-4.3310089111328125,-4.302295207977295,8.877371788024902
1789033870411815200,3.756815185546875,-3.7423746585845947,-3.3020951747894287,7.829315662384033
1789033870421740300,3.766740234375,-4.2209391593933105,-3.7710886001586914,9.193224906921387
1789033870431665700,3.776665771484375,-4.488935470581055,-4.728217601776123,10.442277908325195
1789033870441590800,3.7865908203125,-4.73300313949585,-5.771488189697266,10.241280555725098
1789033870451516000,3.796515869140625,-5.536991596221924,-6.350551128387451,9.647860527038574
1789033870461441300,3.806441162109375,-5.402993679046631,-7.025327205657959,9.571290969848633
1789033870471366700,3.81636669921875,-4.618147850036621,-7.523034572601318,10.322636604309082
1789033870481291800,3.826291748046875,-4.048655986785889,-7.690532207489014,10.561919212341309
1789033870491217200,3.836217041015625,-4.383651256561279,-7.149754047393799,9.978070259094238
1789033870501142300,3.846142333984375,-4.536791801452637,-7.6666035652160645,9.686145782470703
1789033870511067600,3.856067626953125,-5.020142078399658,-7.307680130004883,8.896514892578125
1789033870520992800,3.86599267578125,-4.73300313949585,-7.082755088806152,9.279366493225098
1789033870530918100,3.875918212890625,-3.761517286300659,-6.795616149902344,9.154939651489258
1789033870540843300,3.88584326171875,-3.383451223373413,-6.001199245452881,9.394221305847168
1789033870550768600,3.8957685546875,-3.579662561416626,-6.273981094360352,10.188638687133789
1789033870560693800,3.90569384765625,-2.550748825073242,-6.503692150115967,9.56650447845459
1789033870570619100,3.915619140625,-3.5030922889709473,-5.953342914581299,9.45164966583252
1789033870580544500,3.92554443359375,-3.737588882446289,-3.579662561416626,6.058627128601074
1789033870590469600,3.9354697265625,-2.9144580364227295,-1.5026925802230835,4.54636287689209
1789033870600395000,3.94539501953125,-2.6464617252349854,-0.97148597240448,4.383651256561279
1789033870610320100,3.955320068359375,-1.7084753513336182,-1.612762451171875,4.560719966888428
1789033870620245500,3.96524560546875,-2.431107759475708,-1.9046868085861206,5.240281581878662
1789033870630170600,3.975170654296875,-3.4648072719573975,-1.9764715433120728,6.996613502502441
1789033870640096000,3.985095947265625,-3.8668015003204346,-3.589233875274658,8.537590980529785
1789033870650021000,3.995021240234375,-4.876572608947754,-2.359323024749756,10.456634521484375
1789033870659946500,4.004946533203125,-3.541377544403076,-2.344966173171997,12.342179298400879
1789033870669871600,4.01487158203125,-3.493520975112915,-3.16331148147583,13.5242338180542
1789033870679796700,4.024796630859375,-4.029513359069824,-3.7423746585845947,13.50030517578125
1789033870689722000,4.03472216796875,-4.292723655700684,-3.751945972442627,13.782658576965332
1789033870699647200,4.044647216796875,-4.493721008300781,-4.144368648529053,12.361321449279785
1789033870709572600,4.054572509765625,-4.402793884277344,-4.517649173736572,11.117053985595703
1789033870719497700,4.064497802734375,-4.1491546630859375,-4.326223373413086,10.389636039733887
1789033870729422800,4.0744228515625,-3.704089403152466,-3.799802303314209,9.982855796813965
1789033870739348200,4.08434814453125,-3.6705899238586426,-3.6131622791290283,9.633503913879395
1789033870749273300,4.0942734375,-3.407379388809204,-3.6466617584228516,9.068798065185547
1789033870759198500,4.104198486328125,-3.2159535884857178,-3.728017568588257,8.886942863464355
1789033870769123800,4.114123779296875,-3.4504501819610596,-3.713660717010498,8.642875671386719
1789033870779049000,4.124049072265625,-3.627519130706787,-3.8811583518981934,8.240880966186523
1789033870788974000,4.13397412109375,-3.0388846397399902,-3.761517286300659,7.499105930328369
1789033870798899500,4.1438994140625,-2.3401806354522705,-3.7232320308685303,6.599404811859131
1789033870808824600,4.153824462890625,-1.8903298377990723,-3.067598581314087,5.742774486541748
1789033870818749700,4.163749755859375,-1.7228323221206665,-1.8137595653533936,5.637490272521973
1789033870828675000,4.173675048828125,-1.3351950645446777,-1.0097711086273193,5.422136306762695
1789033870838600200,4.18360009765625,-2.8809585571289062,-0.9332008361816406,4.73300313949585
1789033870848525300,4.193525390625,-3.7806596755981445,-0.8949156403541565,4.565505504608154
1789033870858450700,4.20345068359375,-2.857030153274536,-1.0336993932724,4.847858905792236
1789033870868375800,4.213375732421875,-1.5649060010910034,-1.3591232299804688,4.455435752868652
1789033870878301200,4.22330126953125,-2.00518536567688,-1.2729816436767578,4.206582069396973
1789033870888226600,4.2332265625,-3.10109806060791,-0.8614161610603333,4.431507587432861
1789033870898151700,4.243151611328125,-4.2209391593933105,-0.48813581466674805,5.13021183013916
1789033870908077000,4.2530771484375,-4.000799655914307,-0.6891329288482666,5.077569484710693
1789033870918002200,4.263002197265625,-3.2542388439178467,-1.0336993932724,4.752145767211914
1789033870927927600,4.272927490234375,-3.5844483375549316,-1.0767701864242554,5.058426856994629
1789033870937852700,4.282852783203125,-4.168296813964844,-1.0336993932724,5.431707382202148
1789033870947778000,4.292778076171875,-3.9768712520599365,-0.9667003750801086,5.584847927093506
1789033870957703200,4.302703125,-3.799802303314209,-0.760917603969574,5.632704734802246
1789033870967628500,4.312628662109375,-4.1491546630859375,-0.4833501875400543,5.867201328277588
1789033870977553700,4.3225537109375,-4.125226020812988,-0.3924229145050049,6.015556335449219
1789033870987478800,4.332478759765625,-4.053441524505615,-0.3206382393836975,6.508477687835693
1789033870997404200,4.342404052734375,-3.675375461578369,-0.6795616149902344,7.221538543701172
1789033871007329300,4.352329345703125,-3.373879909515381,-1.0289137363433838,7.417750358581543
1789033871017254400,4.36225439453125,-3.814159393310547,-1.28255295753479,7.436892986297607
1789033871027179800,4.3721796875,-4.599005222320557,-1.3830515146255493,7.637889862060547
1789033871037105000,4.38210498046875,-4.814359188079834,-1.454836130142212,8.197810173034668
1789033871047030000,4.392030029296875,-4.273581027984619,-1.588834285736084,8.327022552490234
1789033871056955400,4.401955322265625,-4.015156269073486,-1.8664016723632812,8.25523853302002
1789033871066880500,4.411880615234375,-3.8524444103240967,-2.100898265838623,8.437092781066895
1789033871076806000,4.421805908203125,-3.8907296657562256,-2.4598217010498047,8.791230201721191
1789033871086731000,4.43173095703125,-3.4408788681030273,-3.1585259437561035,9.159725189208984
1789033871096656400,4.441656494140625,-3.5222349166870117,-3.7471601963043213,9.418149948120117
1789033871106581800,4.451581787109375,-4.048655986785889,-4.168296813964844,9.561718940734863
1789033871116507000,4.4615068359375,-4.48414945602417,-4.321437835693359,9.915857315063477
1789033871126432300,4.471432373046875,-4.216153621673584,-4.627718925476074,10.250852584838867
1789033871136357400,4.481357421875,-3.594019651412964,-5.149354457855225,10.2747802734375
1789033871146282800,4.49128271484375,-3.5365917682647705,-5.599205017089844,10.188638687133789
1789033871156207900,4.501207763671875,-3.4887354373931885,-5.800201892852783,10.188638687133789
1789033871166133200,4.51113330078125,-3.091526746749878,-6.159125328063965,9.308079719543457
1789033871176058400,4.521058349609375,-3.78544545173645,-6.063412666320801,9.17886734008789
1789033871185983500,4.5309833984375,-3.871587038040161,-5.675775527954102,9.34157943725586
1789033871195908900,4.540908935546875,-3.321237802505493,-5.972485542297363,8.37966537475586
1789033871205834000,4.550833984375,-3.7710886001586914,-5.776273727416992,8.944371223449707
1789033871215759000,4.560759033203125,-3.7184464931488037,-5.058426856994629,10.112068176269531
1789033871225684500,4.5706845703125,-3.6945180892944336,-4.9435715675354,10.169496536254883
1789033871235609600,4.580609619140625,-3.4265220165252686,-5.06799840927124,9.90149974822998
1789033871245534700,4.59053466796875,-4.2831525802612305,-4.972285270690918,9.791430473327637
1789033871255460000,4.600460205078125,-3.9864425659179688,-5.278566837310791,9.920642852783203
1789033871265385200,4.61038525390625,-3.9529430866241455,-5.560919761657715,9.743574142456055
1789033871275310300,4.620310302734375,-4.340580463409424,-5.66620397567749,9.57607650756836
1789033871285235700,4.630235595703125,-4.3788652420043945,-5.446064472198486,9.56650447845459
1789033871295160800,4.640160888671875,-4.479363918304443,-5.292923450469971,9.422935485839844
1789033871305086000,4.6500859375,-4.40757942199707,-5.048855781555176,9.183652877807617
1789033871315011300,4.66001123046875,-3.6131622791290283,-5.230710506439209,8.877371788024902
1789033871324936400,4.6699365234375,-3.7806596755981445,-5.173282623291016,8.97787094116211
1789033871334861800,4.67986181640625,-3.814159393310547,-5.230710506439209,9.322437286376953
1789033871344787000,4.689786865234375,-3.84765887260437,-5.5034918785095215,9.781859397888184
1789033871354712000,4.699712158203125,-4.847858905792236,-5.781059741973877,10.078569412231445
1789033871364637400,4.709637451171875,-5.819344520568848,-6.010770320892334,9.958928108215332
1789033871374562600,4.7195625,-5.063212871551514,-5.594419479370117,9.772287368774414
1789033871384488000,4.729488037109375,-3.5461630821228027,-4.962714195251465,9.475577354431152
1789033871394413000,4.7394130859375,-1.947757601737976,-4.512863636016846,8.575876235961914
1789033871404338400,4.74933837890625,-1.5649060010910034,-4.383651256561279,8.188239097595215
1789033871414263800,4.759263916015625,-1.765903115272522,-4.40757942199707,8.13081169128418
1789033871424189000,4.76918896484375,-2.6560330390930176,-4.479363918304443,8.408378601074219
1789033871434114300,4.7791142578125,-3.483949661254883,-4.785645484924316,8.451449394226074
1789033871444039400,4.789039306640625,-3.871587038040161,-5.010570526123047,8.614161491394043
1789033871453964800,4.79896484375,-3.996013879776001,-4.957928657531738,8.810373306274414
1789033871463890000,4.808889892578125,-3.4504501819610596,-4.756931304931641,8.685946464538574
1789033871473815000,4.81881494140625,-3.019742250442505,-4.40757942199707,9.068798065185547
1789033871483740400,4.828740478515625,-2.4023938179016113,-4.268795490264893,9.193224906921387
1789033871493665500,4.83866552734375,-2.1056840419769287,-4.2209391593933105,9.131011009216309
1789033871503590700,4.848590576171875,-1.7467604875564575,-4.177868366241455,9.494720458984375
1789033871513516000,4.85851611328125,-1.5026925802230835,-3.9433717727661133,10.839486122131348
1789033871523441200,4.868441162109375,-1.8616160154342651,-4.230510234832764,11.825329780578613
1789033871533366300,4.8783662109375,-2.66560435295105,-4.2831525802612305,12.959527015686035
1789033871543291600,4.888291748046875,-3.627519130706787,-4.326223373413086,13.390235900878906
1789033871553216800,4.898216796875,-3.94815731048584,-5.144568920135498,11.394621849060059
1789033871563142100,4.90814208984375,-4.823930263519287,-5.307280540466309,9.073583602905273
1789033871573067300,4.9180673828125,-6.436692714691162,-4.910071849822998,7.77188777923584
1789033871582992600,4.92799267578125,-6.398407936096191,-4.67078971862793,7.637889862060547
1789033871592917800,4.937917724609375,-3.981656789779663,-4.53200626373291,8.183453559875488
1789033871602843100,4.947843017578125,-1.7467604875564575,-4.766502857208252,9.001798629760742
1789033871612768300,4.957768310546875,-0.8566305041313171,-4.895715236663818,9.829715728759766
1789033871622693600,4.967693603515625,-1.6414763927459717,-4.761716842651367,10.705488204956055
1789033871632619000,4.977618896484375,-3.838087558746338,-4.54636287689209,10.84427261352539
1789033871642544000,4.987544189453125,-5.838487148284912,-4.713860511779785,10.04985523223877
1789033871652469500,4.997469482421875,-6.082555294036865,-4.843072891235352,9.274580955505371
1789033871662394600,5.00739453125,-4.278367042541504,-4.934000492095947,8.46580696105957
1789033871672319700,5.01731982421875,-2.1104695796966553,-4.948357105255127,7.800601959228516
1789033871682245000,5.0272451171875,-1.129412293434143,-4.823930263519287,7.073183536529541
1789033871692170200,5.037170166015625,-1.545763373374939,-3.981656789779663,6.436692714691162
1789033871702095400,5.047095458984375,-2.6703901290893555,-2.699103832244873,6.269195556640625
1789033871712020700,5.057020751953125,-3.6610186100006104,-1.7180466651916504,6.068198204040527
1789033871721945900,5.06694580078125,-4.230510234832764,-1.1772687435150146,6.293123722076416
1789033871731871000,5.07687109375,-3.0628130435943604,-1.828116536140442,5.570491313934326
1789033871741796400,5.08679638671875,-0.9332008361816406,-2.2923240661621094,3.895515203475952
1789033871751721500,5.096721435546875,-0.5120640397071838,-1.8807586431503296,3.153740167617798
1789033871761646800,5.106646728515625,-1.9046868085861206,-1.0480563640594482,3.345165967941284
1789033871771572000,5.116572021484375,-2.4406790733337402,-0.4785645306110382,3.077169895172119
1789033871781497300,5.126497314453125,-2.4502503871917725,-0.12921242415905,2.6799614429473877
1789033871791422500,5.13642236328125,-2.359323024749756,-0.4737788736820221,2.3880369663238525
1789033871801347800,5.146347900390625,-1.765903115272522,-1.3495519161224365,1.9142581224441528
1789033871811273000,5.15627294921875,-2.943171739578247,-1.2969099283218384,2.7182464599609375
1789033871821198300,5.1661982421875,-4.110869407653809,-1.0719845294952393,4.115654945373535
1789033871831123500,5.17612353515625,-3.0628130435943604,-1.3208380937576294,4.9052863121032715
1789033871841048800,5.186048828125,-2.4885356426239014,-1.3208380937576294,5.618347644805908
1789033871850974200,5.19597412109375,-2.9958138465881348,-1.4787644147872925,6.398407936096191
1789033871860899300,5.2058994140625,-3.3882367610931396,-1.6701902151107788,7.11146879196167
1789033871870824400,5.215824462890625,-3.2303106784820557,-2.196611166000366,7.6666035652160645
1789033871880749800,5.225749755859375,-3.2159535884857178,-2.7661030292510986,7.776673793792725
1789033871890675000,5.235675048828125,-4.177868366241455,-2.885744094848633,8.097311973571777
1789033871900600000,5.24560009765625,-4.618147850036621,-2.8905298709869385,8.585447311401367
1789033871910525400,5.255525390625,-4.53200626373291,-2.9240293502807617,8.824729919433594
1789033871920450600,5.265450439453125,-4.144368648529053,-3.3308091163635254,9.001798629760742
1789033871930375700,5.275375732421875,-3.5748770236968994,-3.555734395980835,8.839086532592773
1789033871940301000,5.285301025390625,-3.7950167655944824,-3.5988051891326904,9.375079154968262
1789033871950226200,5.29522607421875,-4.07258415222168,-3.6705899238586426,9.762716293334961
1789033871960151600,5.305151611328125,-3.713660717010498,-4.01037073135376,9.853643417358398
1789033871970076700,5.31507666015625,-3.326023578643799,-4.402793884277344,9.848857879638672
1789033871980002000,5.325001953125,-2.919243574142456,-4.493721008300781,9.724431037902832
1789033871989927200,5.33492724609375,-2.1056840419769287,-4.618147850036621,9.346364974975586
1789033871999852500,5.3448525390625,-2.612962245941162,-4.551148891448975,9.09272575378418
1789033872009777700,5.354777587890625,-3.1441688537597656,-4.60857629776001,8.695517539978027
1789033872019703000,5.364703125,-3.16331148147583,-4.957928657531738,8.48016357421875
1789033872029628200,5.374628173828125,-3.2063822746276855,-5.350351333618164,8.709874153137207
1789033872039553500,5.384553466796875,-3.924229145050049,-5.54177713394165,9.571290969848633
1789033872049478700,5.394478759765625,-3.641875982284546,-5.948556900024414,10.408778190612793
1789033872059404000,5.404404052734375,-3.053241729736328,-6.580262184143066,10.60977554321289
1789033872069329400,5.414329345703125,-3.2207393646240234,-7.0301127433776855,10.849058151245117
1789033872079254500,5.424254638671875,-2.9001009464263916,-6.786045074462891,11.504691123962402
1789033872089180000,5.434179931640625,-3.5988051891326904,-6.3361945152282715,11.117053985595703
1789033872099105000,5.44410498046875,-3.541377544403076,-5.675775527954102,10.71984577178955
1789033872109030400,5.454030517578125,-3.0101709365844727,-5.101497650146484,10.06421184539795
1789033872118955500,5.46395556640625,-3.067598581314087,-4.651647090911865,10.293923377990723
1789033872128881000,5.473880859375,-3.0101709365844727,-4.541577339172363,10.183853149414062
1789033872138806000,5.483805908203125,-3.129812002182007,-4.613361835479736,9.982855796813965
1789033872148731400,5.4937314453125,-3.2590243816375732,-4.9052863121032715,9.781859397888184
1789033872158656500,5.503656494140625,-3.3643085956573486,-5.407779216766357,9.523433685302734
1789033872168581600,5.51358154296875,-3.728017568588257,-5.608776092529297,9.34157943725586
1789033872178506800,5.5235068359375,-4.039084434509277,-5.714060306549072,9.183652877807617
1789033872188432100,5.53343212890625,-4.589433670043945,-5.474778175354004,9.245866775512695
1789033872198357200,5.543357177734375,-4.9435715675354,-5.2737812995910645,9.370293617248535
1789033872208282400,5.553282470703125,-5.292923450469971,-5.2977094650268555,9.743574142456055
1789033872218207500,5.56320751953125,-5.4173502922058105,-5.3694939613342285,10.360921859741211
1789033872228132600,5.573132568359375,-4.60857629776001,-5.517848968505859,10.901700019836426
1789033872238057700,5.5830576171875,-3.5365917682647705,-5.527420520782471,11.23190975189209
1789033872247982800,5.59298291015625,-2.9862427711486816,-5.359922885894775,10.442277908325195
1789033872257908200,5.602908203125,-1.3208380937576294,-5.54177713394165,9.006584167480469
1789033872267833300,5.612833251953125,0.12921242415905,-5.402993679046631,8.733802795410156
1789033872277758700,5.6227587890625,-0.1339980661869049,-5.015356063842773,9.121439933776855
1789033872287684000,5.63268408203125,-1.100698471069336,-4.852644443511963,8.872586250305176
1789033872297609200,5.642609130859375,-2.3018953800201416,-5.111069202423096,8.930013656616211
1789033872307534600,5.65253466796875,-3.7663028240203857,-5.245067119598389,9.485149383544922
1789033872317459700,5.662459716796875,-4.536791801452637,-5.19242525100708,9.772287368774414
1789033872327385000,5.672385009765625,-4.455435752868652,-4.713860511779785,10.159924507141113
1789033872337310200,5.682310302734375,-3.933800458908081,-4.34536600112915,10.222138404846191
1789033872347235600,5.692235595703125,-3.1489546298980713,-4.426722049713135,9.91107177734375
1789033872357160700,5.70216064453125,-2.148754835128784,-4.46979284286499,9.657432556152344
1789033872367086000,5.712086181640625,-1.277767300605774,-4.517649173736572,10.322636604309082
1789033872377011200,5.72201123046875,-1.3256237506866455,-4.934000492095947,10.782058715820312
1789033872386936300,5.731936279296875,-1.9334007501602173,-4.934000492095947,11.69133186340332
1789033872396861700,5.74186181640625,-1.8903298377990723,-5.020142078399658,11.533405303955078
1789033872406786800,5.751786865234375,-2.0817556381225586,-5.197210788726807,10.269994735717773
1789033872416712200,5.761712158203125,-3.7423746585845947,-5.139782905578613,8.638090133666992
1789033872426637300,5.77163720703125,-6.044270038604736,-4.53200626373291,8.250452041625977
1789033872436562400,5.7815625,-6.240481376647949,-4.426722049713135,8.236095428466797
1789033872446487800,5.79148779296875,-4.517649173736572,-4.2831525802612305,9.207581520080566
1789033872456413000,5.801412841796875,-2.5986053943634033,-4.599005222320557,9.858428955078125
1789033872466338000,5.811338134765625,-1.124626636505127,-4.6372904777526855,10.327422142028809
1789033872476263400,5.821263427734375,-0.7465606927871704,-4.828716278076172,10.164710998535156
1789033872486188800,5.831188720703125,-2.091326951980591,-4.737788677215576,9.628718376159668
1789033872496114000,5.841114013671875,-4.1730828285217285,-4.3310089111328125,8.863015174865723
1789033872506039300,5.851039306640625,-5.058426856994629,-3.8668015003204346,8.398807525634766
1789033872515964400,5.86096435546875,-4.211368083953857,-3.728017568588257,8.159524917602539
1789033872525889800,5.870889892578125,-2.478964328765869,-3.5461630821228027,7.843672752380371
1789033872535815000,5.88081494140625,-1.1198409795761108,-3.3930225372314453,7.240681171417236
1789033872545740300,5.890740234375,-1.3160524368286133,-2.9718856811523438,6.417550563812256
1789033872555665400,5.90066552734375,-1.703689694404602,-2.3306093215942383,5.292923450469971
1789033872565590800,5.9105908203125,-2.0865414142608643,-1.5936198234558105,4.340580463409424
1789033872575516000,5.920515869140625,-3.129812002182007,-1.3160524368286133,4.01037073135376
1789033872585441300,5.930441162109375,-3.5509488582611084,-1.2442678213119507,4.48414945602417
1789033872595366700,5.94036669921875,-2.2396819591522217,-0.6125625967979431,4.398007869720459
1789033872605291800,5.950291748046875,-1.215553879737854,-1.5361921787261963,2.6177480220794678
1789033872615217200,5.960217041015625,-1.1629117727279663,-1.4644074440002441,2.861815929412842
1789033872625142300,5.970142333984375,-1.8089739084243774,-0.760917603969574,3.737588882446289
1789033872635067600,5.980067626953125,-2.857030153274536,-0.8087740540504456,4.287938117980957
1789033872644992800,5.98999267578125,-3.1920254230499268,-1.2681959867477417,4.3788652420043945
1789033872654918100,5.999918212890625,-3.1106693744659424,-1.4883357286453247,4.2209391593933105
1789033872664843300,6.00984326171875,-3.0963125228881836,-1.7515461444854736,3.7088751792907715
1789033872674768400,6.019768310546875,-3.431307554244995,-1.6366907358169556,4.125226020812988
1789033872684693500,6.029693603515625,-3.1968109607696533,-1.545763373374939,4.7473602294921875
1789033872694618600,6.03961865234375,-2.885744094848633,-1.6462619304656982,5.034498691558838
1789033872704544000,6.0495439453125,-2.857030153274536,-1.8424733877182007,5.584847927093506
1789033872714469000,6.05946923828125,-3.0388846397399902,-2.1822543144226074,6.374479293823242
1789033872724394200,6.069394287109375,-2.919243574142456,-2.66560435295105,6.86261510848999
1789033872734319400,6.0793193359375,-3.1920254230499268,-3.0005996227264404,7.4847493171691895
1789033872744244500,6.089244384765625,-3.1585259437561035,-3.139383316040039,7.561319351196289
1789033872754169600,6.099169677734375,-3.397808074951172,-3.2159535884857178,8.111668586730957
1789033872764095000,6.109094970703125,-3.28773832321167,-3.445664644241333,7.858029365539551
1789033872774020000,6.11902001953125,-3.7663028240203857,-3.5844483375549316,8.0350980758667
1789033872783945500,6.128945556640625,-3.9912281036376953,-3.5365917682647705,8.695517539978027
1789033872793870600,6.13887060546875,-3.6945180892944336,-3.383451223373413,9.633503913879395
1789033872803796000,6.1487958984375,-3.28773832321167,-3.8524444103240967,9.958928108215332
1789033872813721300,6.158721435546875,-2.392822742462158,-4.886143684387207,9.681360244750977
1789033872823646500,6.168646484375,-2.1439690589904785,-5.465207099914551,10.054640769958496
1789033872833571800,6.17857177734375,-2.163111686706543,-5.723631858825684,10.313065528869629
1789033872843497000,6.1884970703125,-2.5938198566436768,-5.560919761657715,10.456634521484375
1789033872853422300,6.19842236328125,-2.531606435775757,-5.709274768829346,10.351350784301758
1789033872863347500,6.208347412109375,-3.0245277881622314,-5.9198431968688965,10.41356372833252
1789033872873272600,6.2182724609375,-2.981456995010376,-6.235695838928223,10.332208633422852
1789033872883198000,6.228197998046875,-2.431107759475708,-6.254838466644287,9.834501266479492
1789033872893123000,6.238123046875,-2.445464849472046,-5.900700569152832,10.255638122558594
1789033872903048200,6.248048095703125,-2.861815929412842,-5.508277893066406,10.767702102661133
1789033872912973600,6.2579736328125,-3.335594654083252,-5.642275810241699,11.021341323852539
1789033872922898700,6.267898681640625,-2.833101987838745,-5.929414749145508,11.140982627868652
1789033872932824000,6.277823974609375,-2.4023938179016113,-6.197410583496094,11.294122695922852
1789033872942749200,6.287749267578125,-2.895315408706665,-5.8719868659973145,11.193624496459961
1789033872952674300,6.29767431640625,-2.526820659637451,-5.867201328277588,10.250852584838867
1789033872962599700,6.307599609375,-2.4741785526275635,-5.517848968505859,9.604789733886719
1789033872972524800,6.31752490234375,-3.067598581314087,-4.776073932647705,9.384650230407715
1789033872982450000,6.327449951171875,-3.0963125228881836,-4.766502857208252,9.087940216064453
1789033872992375300,6.337375244140625,-3.407379388809204,-4.6995038986206055,9.78664493560791
1789033873002300400,6.347300537109375,-3.2350962162017822,-4.9052863121032715,10.308279991149902
1789033873012225500,6.3572255859375,-3.153740167617798,-5.374279499053955,10.040284156799316
1789033873022151000,6.36715087890625,-3.493520975112915,-5.589633464813232,9.671789169311523
1789033873032076000,6.377075927734375,-3.862015724182129,-5.54177713394165,9.470791816711426
1789033873042001200,6.387001220703125,-4.756931304931641,-5.3312087059021,9.982855796813965
1789033873051926500,6.396926513671875,-5.015356063842773,-5.489135265350342,10.49970531463623
1789033873061851600,6.4068515625,-4.718646049499512,-5.953342914581299,10.839486122131348
1789033873071777000,6.416777099609375,-3.838087558746338,-6.125626087188721,10.920842170715332
1789033873081702100,6.4267021484375,-2.100898265838623,-5.742774486541748,10.64806079864502
1789033873091627500,6.43662744140625,-0.8087740540504456,-5.2737812995910645,9.81535816192627
1789033873101552600,6.446552734375,0.28235307335853577,-5.039284706115723,8.365307807922363
1789033873111478000,6.45647802734375,0.19142581522464752,-4.981856822967529,7.460821151733398
1789033873121403100,6.466403076171875,-0.22971096634864807,-4.776073932647705,7.499105930328369
1789033873131328500,6.47632861328125,-1.8472590446472168,-5.254638671875,7.776673793792725
1789033873141254000,6.48625390625,-3.4025938510894775,-5.742774486541748,8.470592498779297
1789033873151179000,6.496178955078125,-3.9864425659179688,-5.2977094650268555,9.595218658447266
1789033873161104100,6.506104248046875,-4.60857629776001,-4.752145767211914,10.87298583984375
1789033873171029500,6.516029541015625,-3.9385859966278076,-4.297509670257568,11.787044525146484
1789033873180954600,6.52595458984375,-3.0005996227264404,-4.3788652420043945,11.796615600585938
1789033873190880000,6.5358798828125,-1.5840486288070679,-4.7234320640563965,11.413763999938965
1789033873200805000,6.54580517578125,-0.5694918036460876,-4.972285270690918,11.810972213745117
1789033873210730200,6.555730224609375,-1.1102696657180786,-5.364708423614502,12.155538558959961
1789033873220655600,6.565655517578125,-1.430907964706421,-4.756931304931641,13.299307823181152
1789033873230580700,6.575580810546875,-1.765903115272522,-4.627718925476074,13.490734100341797
1789033873240505900,6.585505859375,-1.4165509939193726,-4.8191447257995605,11.150553703308105
1789033873250431200,6.59543115234375,-2.359323024749756,-3.7663028240203857,9.623932838439941
1789033873260356400,6.6053564453125,-4.934000492095947,-2.770888566970825,9.475577354431152
1789033873270281500,6.615281494140625,-6.628118515014648,-3.091526746749878,8.86780071258545
1789033873280206800,6.625206787109375,-5.632704734802246,-3.5365917682647705,8.915657043457031
1789033873290132000,6.635132080078125,-3.28773832321167,-4.024727821350098,9.025727272033691
1789033873300057000,6.64505712890625,-1.2299108505249023,-4.273581027984619,9.475577354431152
1789033873309982500,6.654982421875,-0.5934200286865234,-4.8574299812316895,9.657432556152344
1789033873319907600,6.664907470703125,-0.5455635786056519,-4.60857629776001,9.260223388671875
1789033873329832700,6.674832763671875,-1.521835207939148,-3.680161237716675,9.183652877807617
1789033873339758000,6.684758056640625,-2.4406790733337402,-3.3164522647857666,8.499305725097656
1789033873349683200,6.69468310546875,-2.201396942138672,-3.005385160446167,7.609176158905029
1789033873359608600,6.704608642578125,-1.5409778356552124,-3.1680972576141357,6.498906135559082
1789033873369533700,6.71453369140625,-0.9858429431915283,-3.3643085956573486,5.670989513397217
1789033873379459000,6.724458984375,-0.9332008361816406,-3.28773832321167,4.646861553192139
1789033873389384200,6.73438427734375,-0.8997012972831726,-2.4023938179016113,3.957728624343872
1789033873399309600,6.7443095703125,-1.7371892929077148,-1.3304094076156616,3.90987229347229
1789033873409234700,6.754234619140625,-2.7517459392547607,-1.1629117727279663,3.6370904445648193
1789033873419160000,6.76416015625,-2.9001009464263916,-1.0815558433532715,3.8763725757598877
1789033873429085200,6.774085205078125,-2.359323024749756,-0.7657032608985901,4.000799655914307
1789033873439010600,6.784010498046875,-1.4069796800613403,-0.2967100143432617,4.163511276245117
1789033873448936000,6.79393603515625,-0.7657032608985901,-1.5744773149490356,3.531806230545044
1789033873458861000,6.803861083984375,-1.430907964706421,-1.7994025945663452,4.240081787109375
1789033873468786200,6.8137861328125,-3.019742250442505,-1.2059825658798218,5.2737812995910645
1789033873478711600,6.823711669921875,-2.785245656967163,-1.3878371715545654,4.776073932647705
1789033873488636700,6.83363671875,-2.775674343109131,-1.215553879737854,4.321437835693359
1789033873498561800,6.843561767578125,-3.16331148147583,-1.1868400573730469,4.182653903961182
1789033873508487200,6.853487060546875,-2.6608188152313232,-1.3208380937576294,4.59421968460083
1789033873518412300,6.863412353515625,-2.7326035499572754,-1.3112667798995972,4.776073932647705
1789033873528337400,6.87333740234375,-3.0101709365844727,-1.1724830865859985,6.125626087188721
1789033873538262800,6.8832626953125,-2.651247501373291,-1.3351950645446777,7.063612461090088
1789033873548188000,6.89318798828125,-2.306680917739868,-2.1343977451324463,7.963313579559326
1789033873558113300,6.90311328125,-2.1200408935546875,-2.8139593601226807,7.63310432434082
1789033873568038400,6.913038330078125,-2.3306093215942383,-3.187239646911621,7.652246952056885
1789033873577963800,6.9229638671875,-3.1489546298980713,-3.2590243816375732,7.9728851318359375
1789033873587889000,6.932888916015625,-3.177668571472168,-3.4025938510894775,8.111668586730957
1789033873597814300,6.942814208984375,-3.1250264644622803,-3.8333017826080322,8.164310455322266
1789033873607739400,6.952739501953125,-2.871387243270874,-3.996013879776001,8.197810173034668
1789033873617664800,6.962664794921875,-2.445464849472046,-4.019941806793213,8.767302513122559
1789033873627590000,6.97258984375,-2.1918256282806396,-4.043870449066162,9.068798065185547
1789033873637515300,6.982515380859375,-1.3112667798995972,-4.426722049713135,9.145368576049805
1789033873647440400,6.9924404296875,-1.6941183805465698,-4.876572608947754,9.791430473327637
1789033873657365800,7.00236572265625,-1.7802600860595703,-5.221138954162598,10.236495018005371
1789033873667291000,7.012290771484375,-1.4165509939193726,-5.661418437957764,10.475777626037598
1789033873677216000,7.022216064453125,-2.1200408935546875,-6.049055576324463,10.705488204956055
1789033873687141000,7.03214111328125,-2.555534601211548,-6.283552169799805,10.643275260925293
1789033873697066500,7.04206640625,-3.105883836746216,-6.498906135559082,10.466206550598145
1789033873706991600,7.05199169921875,-2.895315408706665,-6.206982135772705,10.557133674621582
1789033873716916700,7.061916748046875,-2.0721843242645264,-5.407779216766357,11.327622413635254
1789033873726841900,7.071841796875,-2.847458839416504,-5.154139995574951,12.136396408081055
1789033873736767000,7.08176708984375,-2.287538528442383,-5.551348686218262,13.241880416870117
1789033873746692000,7.091692138671875,-1.7276179790496826,-6.144768714904785,13.184453010559082
1789033873756617200,7.1016171875,-2.1104695796966553,-6.235695838928223,12.581461906433105
1789033873766542600,7.11154248046875,-2.2396819591522217,-5.694917678833008,11.854043006896973
1789033873776468000,7.121468017578125,-1.7850457429885864,-4.924428939819336,10.528419494628906
1789033873786393000,7.13139306640625,-1.5074782371520996,-4.201796531677246,9.193224906921387
1789033873796318500,7.141318359375,-2.043470621109009,-4.096512317657471,8.681160926818848
1789033873806243600,7.15124365234375,-2.431107759475708,-3.972085475921631,8.858229637145996
1789033873816169000,7.1611689453125,-2.885744094848633,-4.230510234832764,9.958928108215332
1789033873826094000,7.171093994140625,-2.2923240661621094,-4.823930263519287,10.63370418548584
1789033873836019500,7.18101953125,-2.60339093208313,-5.4556355476379395,11.035697937011719
1789033873845944600,7.190944580078125,-2.8187451362609863,-5.527420520782471,11.117053985595703
1789033873855870000,7.200869873046875,-2.469393014907837,-5.422136306762695,10.514062881469727
1789033873865795000,7.210795166015625,-2.8043880462646484,-5.2115678787231445,10.447063446044922
1789033873875720400,7.220720458984375,-2.6608188152313232,-5.398207664489746,11.045269012451172
1789033873885645600,7.2306455078125,-2.4837498664855957,-5.201996326446533,11.179266929626465
1789033873895570700,7.24057080078125,-2.555534601211548,-5.020142078399658,10.963912963867188
1789033873905496000,7.25049609375,-2.3736801147460938,-4.886143684387207,9.810572624206543
1789033873915421200,7.260421142578125,-1.5649060010910034,-4.709074974060059,9.221938133239746
1789033873925346300,7.27034619140625,-0.37806597352027893,-4.508078098297119,9.159725189208984
1789033873935271700,7.280271728515625,-0.4546363055706024,-4.445864677429199,9.41336441040039
1789033873945196800,7.29019677734375,-0.9954141974449158,-4.503292083740234,9.628718376159668
1789033873955122000,7.300121826171875,-2.0338993072509766,-4.661218643188477,10.183853149414062
1789033873965047300,7.31004736328125,-1.9669002294540405,-4.852644443511963,10.097711563110352
1789033873974972400,7.319972412109375,-2.0099709033966064,-4.713860511779785,10.040284156799316
1789033873984897500,7.3298974609375,-2.1104695796966553,-4.436293125152588,10.097711563110352
1789033873994823000,7.339822998046875,-2.641676187515259,-3.9912281036376953,10.207781791687012
1789033874004748000,7.349748046875,-2.957528829574585,-3.8572301864624023,10.092926025390625
1789033874014673200,7.359673095703125,-3.0005996227264404,-4.024727821350098,10.145567893981934
1789033874024598500,7.3695986328125,-1.9908283948898315,-4.551148891448975,10.198209762573242
1789033874034523600,7.379523681640625,-1.923829436302185,-4.756931304931641,11.050054550170898
1789033874044448800,7.38944873046875,-2.4598217010498047,-4.287938117980957,12.002398490905762
1789033874054374100,7.3993740234375,-3.1489546298980713,-3.88594388961792,12.748958587646484
1789033874064299300,7.40929931640625,-2.6799614429473877,-3.8285162448883057,12.026326179504395
1789033874074224600,7.419224609375,-1.6271194219589233,-3.8189449310302734,10.619346618652344
1789033874084149800,7.429149658203125,-1.0767701864242554,-4.024727821350098,9.829715728759766
1789033874094075100,7.4390751953125,-1.277767300605774,-4.187439441680908,10.054640769958496
1789033874104000500,7.44900048828125,-2.282752752304077,-4.1970109939575195,10.313065528869629
1789033874113925600,7.458925537109375,-2.9766714572906494,-3.8668015003204346,10.571490287780762
1789033874123851000,7.46885107421875,-3.4791641235351562,-3.407379388809204,10.619346618652344
1789033874133776100,7.478776123046875,-3.8763725757598877,-3.603590965270996,10.083354949951172
1789033874143701500,7.488701416015625,-2.861815929412842,-3.5222349166870117,9.753145217895508
1789033874153626600,7.498626708984375,-1.301695466041565,-3.6083765029907227,9.126225471496582
1789033874163551700,7.5085517578125,-0.009571290574967861,-3.627519130706787,8.14516830444336
1789033874173477000,7.51847705078125,0.038285162299871445,-4.206582069396973,6.120840549468994
1789033874183402200,7.52840234375,-0.5790630578994751,-3.689732551574707,5.06799840927124
1789033874193327400,7.538327392578125,-1.4069796800613403,-2.5698914527893066,4.560719966888428
1789033874203252500,7.54825244140625,-2.1583259105682373,-1.588834285736084,4.077369689941406
1789033874213177600,7.558177490234375,-2.493321180343628,-1.2346965074539185,4.058227062225342
1789033874223102700,7.568102783203125,-2.297109842300415,-1.2681959867477417,4.015156269073486
1789033874233027800,7.57802783203125,-1.521835207939148,-1.210768222808838,3.88594388961792
1789033874242953200,7.587953125,-0.7561319470405579,-1.430907964706421,3.6705899238586426
1789033874252878300,7.59787841796875,-1.34476637840271,-1.1724830865859985,3.2159535884857178
1789033874262803500,7.607803466796875,-2.0961127281188965,-0.4833501875400543,3.1106693744659424
1789033874272728600,7.617728515625,-2.3880369663238525,0.019142581149935722,3.483949661254883
1789033874282654000,7.627654052734375,-1.8711873292922974,-0.5359922647476196,3.594019651412964
1789033874292579000,7.6375791015625,-1.6654045581817627,-0.7752745151519775,3.9290146827697754
1789033874302504200,7.647504150390625,-1.7371892929077148,-1.100698471069336,4.240081787109375
1789033874312429600,7.6574296875,-1.8137595653533936,-1.2586246728897095,4.59421968460083
1789033874322354700,7.667354736328125,-1.8951154947280884,-1.5649060010910034,4.622933387756348
1789033874332279800,7.67727978515625,-2.421536445617676,-1.6701902151107788,4.704289436340332
1789033874342205200,7.687205078125,-2.861815929412842,-1.5792629718780518,5.4795637130737305
1789033874352130300,7.69713037109375,-2.1678972244262695,-1.7371892929077148,6.393621921539307
1789033874362055700,7.7070556640625,-2.029113531112671,-2.196611166000366,6.8865437507629395
1789033874371980800,7.716980712890625,-2.2444677352905273,-2.5459632873535156,7.427321434020996
1789033874381906000,7.726906005859375,-2.359323024749756,-2.5842485427856445,8.283951759338379
1789033874391831300,7.736831298828125,-2.3162522315979004,-2.9144580364227295,8.96829891204834
1789033874401756400,7.74675634765625,-2.5938198566436768,-3.383451223373413,9.006584167480469
1789033874411681500,7.756681640625,-2.4358935356140137,-3.799802303314209,9.212367057800293
1789033874421607000,7.76660693359375,-2.0338993072509766,-4.086941242218018,9.781859397888184
1789033874431532000,7.776531982421875,-1.4835500717163086,-4.3310089111328125,10.2747802734375
1789033874441457200,7.78645703125,-1.4835500717163086,-4.694717884063721,10.590633392333984
1789033874451382500,7.796382568359375,-1.3926228284835815,-5.087141036987305,10.657631874084473
1789033874461307600,7.8063076171875,-1.301695466041565,-5.450850009918213,10.710273742675781
1789033874471233000,7.81623291015625,-1.5936198234558105,-5.5034918785095215,11.088339805603027
1789033874481158100,7.826158203125,-1.3830515146255493,-6.245266914367676,11.064412117004395
1789033874491083500,7.83608349609375,-1.9716858863830566,-6.561119556427002,11.385049819946289
1789033874501008600,7.846008544921875,-1.9908283948898315,-6.675975322723389,11.571690559387207
1789033874510934000,7.85593408203125,-1.4500504732131958,-6.230910301208496,11.83011531829834
1789033874520859100,7.865859130859375,-2.871387243270874,-5.972485542297363,12.05504035949707
1789033874530784500,7.875784423828125,-2.5938198566436768,-4.986642360687256,12.863814353942871
1789033874540710000,7.8857099609375,-1.4261223077774048,-4.8813581466674805,12.658031463623047
1789033874550635000,7.895635009765625,-0.27756741642951965,-5.063212871551514,12.236894607543945
1789033874560560400,7.905560302734375,-0.6317051649093628,-5.2977094650268555,11.739188194274902
1789033874570485500,7.915485595703125,-1.5840486288070679,-5.4795637130737305,11.399407386779785
1789033874580411000,7.925410888671875,-2.359323024749756,-5.292923450469971,11.073983192443848
1789033874590336000,7.9353359375,-2.344966173171997,-4.919643402099609,10.786844253540039
1789033874600261400,7.945261474609375,-2.1918256282806396,-4.364508628845215,10.676774978637695
1789033874610186500,7.9551865234375,-2.3641088008880615,-3.924229145050049,10.2747802734375
1789033874620112000,7.96511181640625,-1.6558332443237305,-3.7902309894561768,9.284152030944824
1789033874630037000,7.975037109375,-1.7084753513336182,-4.034298896789551,8.901300430297852
1789033874639962400,7.98496240234375,-2.2205393314361572,-4.244867324829102,9.207581520080566
1789033874649887700,7.9948876953125,-2.909672260284424,-4.53200626373291,10.193424224853516
1789033874659812900,8.004812744140626,-3.34995174407959,-4.828716278076172,11.145768165588379
1789033874669738000,8.014738037109375,-3.1920254230499268,-5.063212871551514,11.729616165161133
1789033874679663000,8.0246630859375,-2.5746772289276123,-5.2115678787231445,11.949756622314453
1789033874689588200,8.034588134765626,-2.043470621109009,-5.20678186416626,11.772686958312988
1789033874699513300,8.044513427734374,-0.9475577473640442,-5.259424209594727,10.52363395690918
1789033874709438500,8.0544384765625,-0.6652047038078308,-5.144568920135498,9.025727272033691
1789033874719363800,8.06436376953125,-0.44027936458587646,-5.063212871551514,7.800601959228516
1789033874729289000,8.0742890625,-0.6029912829399109,-4.7234320640563965,7.676175117492676
1789033874739214000,8.084214111328125,-0.8566305041313171,-4.3788652420043945,7.747959613800049
1789033874749139200,8.09413916015625,-1.5553346872329712,-4.450650215148926,8.135597229003906
1789033874759064600,8.104064697265626,-1.8999011516571045,-4.9292144775390625,9.078369140625
1789033874768989700,8.11398974609375,-2.00518536567688,-5.326423168182373,9.973284721374512
1789033874778915000,8.1239150390625,-2.66560435295105,-5.082355499267578,11.284551620483398
1789033874788840200,8.133840087890626,-2.8187451362609863,-4.536791801452637,12.208181381225586
1789033874798765300,8.143765380859374,-2.2157537937164307,-3.9768712520599365,12.370893478393555
1789033874808690400,8.1536904296875,-1.210768222808838,-4.053441524505615,11.710474014282227
1789033874818615800,8.16361572265625,-1.1629117727279663,-4.752145767211914,10.75813102722168
1789033874828541000,8.173541015625,-1.6558332443237305,-5.225924491882324,10.001998901367188
1789033874838466000,8.183466064453125,-2.9240293502807617,-4.814359188079834,9.81535816192627
1789033874848391400,8.193391357421875,-4.216153621673584,-4.115654945373535,11.13619613647461
1789033874858316500,8.203316650390626,-3.431307554244995,-3.8189449310302734,12.256037712097168
1789033874868241700,8.21324169921875,-1.9046868085861206,-4.115654945373535,12.31825065612793
1789033874878167000,8.2231669921875,-0.9092726111412048,-4.541577339172363,12.457035064697266
1789033874888092200,8.233092041015626,-0.3924229145050049,-5.182853698730469,12.088540077209473
1789033874898017300,8.243017333984374,-0.6699903607368469,-5.230710506439209,11.069197654724121
1789033874907942700,8.252942626953125,-1.9908283948898315,-4.6372904777526855,10.131211280822754
1789033874917867800,8.26286767578125,-2.957528829574585,-3.5988051891326904,9.355937004089355
1789033874927793000,8.27279296875,-3.115455150604248,-3.0867412090301514,8.566305160522461
1789033874937718300,8.28271826171875,-2.7326035499572754,-3.3068809509277344,8.384450912475586
1789033874947643400,8.292643310546875,-1.9142581224441528,-3.4408788681030273,8.518448829650879
1789033874957568500,8.302568603515626,-0.7034898400306702,-3.407379388809204,8.63330364227295
1789033874967494000,8.312493896484375,-0.16749759018421173,-3.8907296657562256,8.212167739868164
1789033874977419000,8.3224189453125,-0.06699903309345245,-4.460221290588379,6.4941205978393555
1789033874987344100,8.33234423828125,-0.3732803463935852,-3.6945180892944336,5.412564754486084
1789033874997269500,8.34226953125,-0.8374879360198975,-2.7278177738189697,4.7712883949279785
1789033875007194600,8.352194580078125,-1.1485549211502075,-2.1535403728485107,4.086941242218018
1789033875017120000,8.3621201171875,-1.923829436302185,-1.306481122970581,4.139583110809326
1789033875027045000,8.372045166015624,-1.9764715433120728,-2.0099709033966064,3.594019651412964
1789033875036970200,8.38197021484375,-1.1198409795761108,-1.521835207939148,3.641875982284546
1789033875046895600,8.3918955078125,-0.7322037220001221,-0.31106695532798767,3.8572301864624023
1789033875056820700,8.40182080078125,-0.6317051649093628,-0.35892340540885925,3.493520975112915
1789033875066745900,8.411745849609375,-1.2203395366668701,-1.0432707071304321,3.8763725757598877
1789033875076671200,8.421671142578125,-2.163111686706543,-1.454836130142212,4.034298896789551
1789033875086596400,8.431596435546876,-2.139183521270752,-1.1820544004440308,4.153940200805664
1789033875096521500,8.441521484375,-2.0243279933929443,-0.7034898400306702,4.364508628845215
1789033875106446600,8.451446533203125,-1.9621145725250244,-0.4450650215148926,4.335794448852539
1789033875116372000,8.4613720703125,-1.6319050788879395,-0.4259224236011505,4.852644443511963
1789033875126297000,8.471297119140624,-1.4452649354934692,-0.8901300430297852,4.886143684387207
1789033875136222200,8.48122216796875,-1.7324036359786987,-1.191625714302063,5.412564754486084
1789033875146147600,8.491147705078125,-2.124826431274414,-1.373480200767517,6.570691108703613
1789033875156072700,8.50107275390625,-1.9573289155960083,-2.0003998279571533,7.417750358581543
1789033875165997800,8.510997802734375,-1.7228323221206665,-2.746960401535034,7.288537979125977
1789033875175923200,8.520923095703125,-2.148754835128784,-3.029313564300537,7.499105930328369
1789033875185848300,8.530848388671876,-2.4263222217559814,-3.091526746749878,8.188239097595215
1789033875195773400,8.5407734375,-2.0817556381225586,-3.345165967941284,8.446663856506348
1789033875205698800,8.55069873046875,-1.8472590446472168,-3.84765887260437,8.475378036499023
1789033875215624000,8.5606240234375,-1.6845471858978271,-4.402793884277344,8.504091262817383
1789033875225549000,8.570549072265624,-1.3543375730514526,-4.599005222320557,9.020941734313965
1789033875235474400,8.580474365234375,-1.679761528968811,-4.934000492095947,9.370293617248535
1789033875245399600,8.590399658203125,-1.8233308792114258,-5.383851051330566,9.877572059631348
1789033875255324700,8.60032470703125,-1.397408366203308,-5.723631858825684,10.241280555725098
1789033875265250000,8.61025,-1.28255295753479,-6.32662296295166,10.533205032348633
1789033875275175200,8.620175048828125,-1.057627558708191,-6.671189308166504,10.963912963867188
1789033875285100300,8.630100341796876,-1.2394821643829346,-6.5419769287109375,11.050054550170898
1789033875295025700,8.640025634765625,-1.6462619304656982,-6.709474563598633,10.954341888427734
1789033875304950800,8.64995068359375,-1.8137595653533936,-6.3601226806640625,11.509476661682129
1789033875314876000,8.6598759765625,-2.0721843242645264,-5.565705299377441,11.921042442321777
1789033875324801300,8.66980126953125,-2.4119651317596436,-5.493920803070068,12.433106422424316
1789033875334726400,8.679726318359375,-1.1150553226470947,-5.7619171142578125,12.77767276763916
1789033875344651500,8.689651611328125,-0.4211367964744568,-6.130411624908447,12.686745643615723
1789033875354576600,8.69957666015625,-0.794417142868042,-6.111268997192383,12.835101127624512
1789033875364502000,8.709501953125,-1.2011969089508057,-6.211767673492432,11.796615600585938
1789033875374427100,8.71942724609375,-2.172683000564575,-6.120840549468994,10.954341888427734
1789033875384352300,8.729352294921876,-1.947757601737976,-5.982056617736816,10.403992652893066
1789033875394277600,8.739277587890625,-2.0003998279571533,-5.484349727630615,10.6624174118042
1789033875404202800,8.74920263671875,-2.1583259105682373,-5.058426856994629,10.935199737548828
1789033875414128000,8.759128173828126,-2.321038007736206,-4.800002098083496,11.011770248413086
1789033875424053200,8.76905322265625,-2.3018953800201416,-4.508078098297119,10.695917129516602
1789033875433978400,8.778978271484375,-2.837887763977051,-4.230510234832764,10.48534870147705
1789033875443903700,8.78890380859375,-2.0578274726867676,-4.034298896789551,9.729216575622559
1789033875453828900,8.798828857421874,-1.1341979503631592,-4.431507587432861,8.805587768554688
1789033875463754000,8.80875390625,-1.430907964706421,-4.527220249176025,8.159524917602539
1789033875473679400,8.818679443359375,-2.029113531112671,-4.752145767211914,8.46580696105957
1789033875483604500,8.8286044921875,-1.6558332443237305,-4.948357105255127,8.652446746826172
1789033875493529600,8.838529541015625,-1.373480200767517,-5.087141036987305,8.547162055969238
1789033875503454700,8.848454833984375,-1.34476637840271,-5.077569484710693,8.140382766723633
1789033875513380000,8.858380126953126,-1.153340458869934,-4.780859470367432,7.795815944671631
1789033875523305200,8.86830517578125,-1.153340458869934,-4.359723091125488,8.116454124450684
1789033875533230300,8.878230224609375,-0.8949156403541565,-4.086941242218018,8.882157325744629
1789033875543155700,8.88815576171875,-0.8279166221618652,-4.398007869720459,9.461220741271973
1789033875553080800,8.898080810546874,-0.7752745151519775,-5.144568920135498,9.480362892150879
1789033875563006000,8.908005859375,-0.7992027401924133,-5.771488189697266,9.518648147583008
1789033875572931300,8.917931396484375,-1.7276179790496826,-6.125626087188721,9.781859397888184
1789033875582856400,8.9278564453125,-2.9623143672943115,-6.120840549468994,10.753344535827637
1789033875592781600,8.937781494140625,-3.3403804302215576,-6.001199245452881,11.528619766235352
1789033875602707000,8.94770703125,-3.0963125228881836,-5.8097734451293945,12.337393760681152
1789033875612632000,8.957632080078126,-2.3018953800201416,-5.288137912750244,12.557533264160156
1789033875622557200,8.96755712890625,-1.2873386144638062,-5.091926574707031,12.19382381439209
1789033875632482600,8.977482666015625,-0.2967100143432617,-5.015356063842773,11.270195007324219
1789033875642407700,8.98740771484375,0.12442677468061447,-5.015356063842773,9.80100154876709
1789033875652332800,8.997332763671874,-0.4450650215148926,-4.761716842651367,8.508877754211426
1789033875662258200,9.007258056640625,-1.6558332443237305,-4.536791801452637,8.087740898132324
1789033875672183300,9.017183349609375,-2.344966173171997,-3.924229145050049,8.015955924987793
1789033875682108400,9.0271083984375,-3.4887354373931885,-3.1585259437561035,8.451449394226074
1789033875692033500,9.037033447265625,-3.115455150604248,-2.612962245941162,8.901300430297852
1789033875701959000,9.046958984375,-2.6321048736572266,-2.493321180343628,9.403793334960938
1789033875711884000,9.056884033203126,-3.0580272674560547,-2.991028308868408,10.13599681854248
1789033875721809200,9.06680908203125,-3.115455150604248,-3.6705899238586426,11.69133186340332
1789033875731734500,9.076734619140625,-2.00518536567688,-4.240081787109375,12.337393760681152
1789033875741659600,9.08665966796875,-0.6795616149902344,-5.024927616119385,11.241480827331543
1789033875751584800,9.096584716796874,-0.15314064919948578,-5.216353416442871,9.868000984191895
1789033875761510100,9.10651025390625,-0.9619147181510925,-4.9531426429748535,8.85344409942627
1789033875771435300,9.116435302734375,-1.8951154947280884,-4.3788652420043945,8.556734085083008
1789033875781360400,9.1263603515625,-2.8283164501190186,-3.8045880794525146,8.666803359985352
1789033875791285500,9.136285400390625,-3.249453067779541,-3.4408788681030273,8.748159408569336
1789033875801211000,9.1462109375,-2.857030153274536,-3.1824541091918945,8.987442016601562
1789033875811136000,9.156135986328126,-2.4406790733337402,-2.9766714572906494,9.09272575378418
1789033875821061000,9.16606103515625,-2.0003998279571533,-3.1106693744659424,9.226723670959473
1789033875830986500,9.175986572265625,-1.674975872039795,-3.4983067512512207,9.126225471496582
1789033875840911600,9.18591162109375,-1.210768222808838,-2.7804598808288574,8.508877754211426
1789033875850836700,9.195836669921874,-1.3926228284835815,-2.991028308868408,7.613961696624756
1789033875860762000,9.20576220703125,-1.0863415002822876,-2.445464849472046,7.312466144561768
1789033875870687200,9.215687255859375,-1.062413215637207,-2.306680917739868,6.599404811859131
1789033875880612400,9.2256123046875,-1.1772687435150146,-2.297109842300415,6.049055576324463
1789033875890537500,9.235537353515625,-1.4979069232940674,-2.3306093215942383,5.814558982849121
1789033875900462800,9.245462890625,-1.124626636505127,-1.2490534782409668,5.800201892852783
1789033875910388000,9.255387939453126,-1.6606189012527466,-2.1678972244262695,4.661218643188477
1789033875920313000,9.26531298828125,-2.0961127281188965,-1.545763373374939,5.029713153839111
1789033875930238500,9.275238525390625,-2.2205393314361572,-1.5696916580200195,5.096712112426758
1789033875940163600,9.28516357421875,-1.196411371231079,-2.062613010406494,5.460421085357666
1789033875950089000,9.2950888671875,-0.6939185857772827,-1.8999011516571045,6.116054534912109
1789033875960014000,9.30501416015625,-1.7371892929077148,-1.5122638940811157,6.4941205978393555
1789033875969939200,9.314939208984375,-2.5603201389312744,-1.2969099283218384,6.460621356964111
1789033875979864300,9.3248642578125,-2.8666014671325684,-1.3351950645446777,6.5180487632751465
1789033875989789400,9.33478955078125,-2.699103832244873,-1.3639088869094849,6.97268533706665
1789033875999714800,9.34471484375,-2.478964328765869,-1.6941183805465698,7.274180889129639
1789033876009640000,9.354639892578126,-2.651247501373291,-1.698904037475586,7.590033531188965
1789033876019565300,9.3645654296875,-2.5363919734954834,-1.7515461444854736,7.623532772064209
1789033876029490400,9.374490478515625,-2.555534601211548,-1.7611174583435059,7.379465103149414
1789033876039415600,9.38441552734375,-2.392822742462158,-1.789831280708313,7.432106971740723
1789033876049340700,9.394340576171874,-1.9525432586669922,-2.0243279933929443,7.293323516845703
1789033876059266000,9.40426611328125,-1.7180466651916504,-2.249253273010254,6.896114826202393
1789033876069191200,9.414191162109375,-1.919043779373169,-2.3162522315979004,6.771687984466553
1789033876079116300,9.4241162109375,-2.0099709033966064,-2.091326951980591,6.900900363922119
1789033876089041700,9.434041748046875,-2.0673987865448,-1.765903115272522,7.3986077308654785
1789033876098966800,9.443966796875,-1.9334007501602173,-1.6606189012527466,7.982456207275391
1789033876108892000,9.453891845703126,-1.9334007501602173,-1.9142581224441528,8.518448829650879
1789033876118817000,9.463817138671875,-1.7228323221206665,-2.478964328765869,9.250652313232422
1789033876128742400,9.473742431640625,-1.5361921787261963,-3.153740167617798,9.868000984191895
1789033876138667500,9.48366748046875,-1.5122638940811157,-3.713660717010498,10.394421577453613
1789033876148592600,9.493592529296874,-1.3304094076156616,-4.163511276245117,10.576275825500488
1789033876158518000,9.50351806640625,-1.4835500717163086,-4.800002098083496,10.365707397460938
1789033876168443100,9.513443115234375,-1.7611174583435059,-5.1876397132873535,10.380064964294434
1789033876178368300,9.5233681640625,-1.7180466651916504,-5.4173502922058105,10.193424224853516
1789033876188293600,9.533293701171875,-1.5122638940811157,-5.359922885894775,10.212567329406738
1789033876198218800,9.54321875,-1.1868400573730469,-5.508277893066406,10.054640769958496
1789033876208144000,9.553143798828126,-0.9954141974449158,-6.063412666320801,9.743574142456055
1789033876218069000,9.563069091796875,-1.0767701864242554,-5.982056617736816,9.863214492797852
1789033876227994400,9.572994384765625,-1.7084753513336182,-5.742774486541748,10.088140487670898
1789033876237919500,9.58291943359375,-1.5936198234558105,-5.13021183013916,10.293923377990723
1789033876247844600,9.5928447265625,-1.0049854516983032,-5.1876397132873535,9.791430473327637
1789033876257769700,9.602769775390625,-1.2394821643829346,-4.977071285247803,9.968499183654785
1789033876267695000,9.612695068359375,-1.2538390159606934,-4.867001056671143,10.327422142028809
1789033876277620200,9.6226201171875,-0.9619147181510925,-5.249852657318115,9.896714210510254
1789033876287545300,9.63254541015625,-0.6939185857772827,-5.302495002746582,9.585647583007812
1789033876297470700,9.642470703125,-1.4404792785644531,-5.326423168182373,9.944570541381836
1789033876307395800,9.652395751953126,-1.2299108505249023,-5.570491313934326,10.083354949951172
1789033876317321000,9.662321044921875,-1.3830515146255493,-5.948556900024414,10.164710998535156
1789033876327246300,9.672246337890625,-1.5122638940811157,-5.675775527954102,10.863414764404297
1789033876337171500,9.68217138671875,-1.1820544004440308,-5.498706340789795,10.959127426147461
1789033876347096600,9.6920966796875,-1.0863415002822876,-5.460421085357666,10.60977554321289
1789033876357021700,9.702021728515625,-1.0815558433532715,-5.000999450683594,10.279565811157227
1789033876366947000,9.711947021484375,-1.1724830865859985,-4.962714195251465,9.571290969848633
1789033876376872200,9.7218720703125,-1.6845471858978271,-5.048855781555176,9.073583602905273
1789033876386797300,9.73179736328125,-2.029113531112671,-5.307280540466309,8.800801277160645
1789033876396722400,9.741722412109375,-2.4741785526275635,-5.570491313934326,9.221938133239746
1789033876406647800,9.751647705078126,-3.2542388439178467,-5.60399055480957,10.006784439086914
1789033876416573000,9.761572998046875,-2.837887763977051,-5.680561065673828,10.542776107788086
1789033876426498000,9.771498046875,-1.6223337650299072,-5.9198431968688965,10.332208633422852
1789033876436423400,9.78142333984375,-1.3639088869094849,-5.828916072845459,9.920642852783203
1789033876446348500,9.7913486328125,-1.0959128141403198,-5.752345561981201,9.384650230407715
1789033876456273700,9.801273681640625,-1.5122638940811157,-5.19242525100708,8.96829891204834
1789033876466198800,9.81119873046875,-1.0863415002822876,-5.469992637634277,8.183453559875488
1789033876476124200,9.821124267578124,-0.9906286001205444,-5.3216376304626465,8.039883613586426
1789033876486049300,9.83104931640625,-1.0480563640594482,-5.158925533294678,8.193024635314941
1789033876495974400,9.840974365234375,-1.4931213855743408,-5.044070243835449,8.949156761169434
1789033876505899800,9.850899658203126,-1.6558332443237305,-5.044070243835449,9.7005033493042
1789033876515825000,9.860824951171875,-1.9716858863830566,-5.134997367858887,10.346565246582031
1789033876525750000,9.87075,-1.7754744291305542,-5.245067119598389,10.370492935180664
1789033876535675100,9.880675048828126,-1.521835207939148,-5.288137912750244,10.380064964294434
1789033876545600500,9.8906005859375,-1.1437692642211914,-5.4173502922058105,10.02592658996582
1789033876555525600,9.900525634765625,-1.0336993932724,-5.4556355476379395,9.734002113342285
1789033876565450800,9.91045068359375,-1.0241280794143677,-5.264209747314453,9.485149383544922
1789033876575376000,9.9203759765625,-1.521835207939148,-4.7234320640563965,9.485149383544922
1789033876585301200,9.93030126953125,-1.521835207939148,-4.264009952545166,9.604789733886719
1789033876595226400,9.940226318359375,-1.459621787071228,-4.498506546020508,9.872786521911621
1789033876605151500,9.9501513671875,-1.4979069232940674,-4.436293125152588,10.212567329406738
1789033876615076900,9.960076904296875,-1.4021940231323242,-4.1970109939575195,10.351350784301758
1789033876625002000,9.970001953125,-1.153340458869934,-3.7710886001586914,10.045069694519043
1789033876634927000,9.979927001953126,-0.9906286001205444,-3.90987229347229,9.346364974975586
1789033876644852200,9.989852294921874,-1.3926228284835815,-4.718646049499512,8.561519622802734
1789033876654777300,9.99977734375,-2.1678972244262695,-5.2354960441589355,8.666803359985352
1789033876664702500,10.009702392578125,-2.5076780319213867,-5.54177713394165,9.236295700073242
1789033876674627800,10.0196279296875,-2.344966173171997,-5.168497085571289,9.705288887023926
1789033876684553000,10.029552978515625,-1.9046868085861206,-4.718646049499512,10.17428207397461
1789033876694478300,10.039478271484375,-1.3782658576965332,-4.192225456237793,9.944570541381836
1789033876704403500,10.049403564453126,-1.679761528968811,-3.94815731048584,10.01156997680664
1789033876714328600,10.05932861328125,-1.8759729862213135,-4.029513359069824,9.997213363647461
1789033876724254000,10.06925390625,-1.8424733877182007,-3.9912281036376953,10.021141052246094
1789033876734179000,10.079178955078126,-1.9669002294540405,-3.737588882446289,9.934999465942383
1789033876744104200,10.089104248046874,-2.1439690589904785,-3.6323046684265137,9.891928672790527
1789033876754029300,10.099029296875,-1.832902193069458,-3.751945972442627,9.619147300720215
1789033876763954700,10.10895458984375,-0.9858429431915283,-3.8572301864624023,9.332008361816406
1789033876773879800,10.1188798828125,-1.1389836072921753,-4.01037073135376,9.087940216064453
1789033876783805000,10.128804931640625,-1.5026925802230835,-3.7232320308685303,8.614161491394043
1789033876793730000,10.13872998046875,-2.1343977451324463,-3.2303106784820557,8.374878883361816
1789033876803655200,10.1486552734375,-2.612962245941162,-3.0005996227264404,7.848458290100098
1789033876813580500,10.15858056640625,-2.6847469806671143,-2.761317253112793,7.0923261642456055
1789033876823505700,10.168505615234375,-2.416750907897949,-2.2301106452941895,7.0301127433776855
1789033876833430800,10.1784306640625,-1.3830515146255493,-1.674975872039795,7.226324558258057
1789033876843356000,10.18835595703125,-0.44027936458587646,-1.6223337650299072,6.996613502502441
1789033876853281300,10.19828125,-0.37806597352027893,-2.091326951980591,6.996613502502441
1789033876863206400,10.208206298828125,-0.8327022790908813,-2.225325107574463,6.379265308380127
1789033876873131800,10.2181318359375,-1.28255295753479,-2.775674343109131,5.532206058502197
1789033876883057000,10.228056884765625,-1.6414763927459717,-1.852044701576233,4.977071285247803
1789033876892982000,10.23798193359375,-1.8472590446472168,-1.124626636505127,4.211368083953857
1789033876902907100,10.2479072265625,-2.526820659637451,-0.6652047038078308,4.436293125152588
1789033876912832300,10.257832275390625,-2.5459632873535156,-0.40677985548973083,5.670989513397217
1789033876922757600,10.267757568359375,-1.2873386144638062,-0.9619147181510925,6.3361945152282715
1789033876932682800,10.277682861328126,-1.1724830865859985,-1.5314065217971802,6.537191390991211
1789033876942608000,10.28760791015625,-1.7994025945663452,-1.9956140518188477,6.192625045776367
1789033876952533000,10.297532958984375,-1.9381862878799438,-2.258824586868286,5.450850009918213
1789033876962458400,10.307458251953125,-2.258824586868286,-1.459621787071228,5.848058700561523
1789033876972383500,10.317383544921874,-2.5842485427856445,-1.1437692642211914,6.4941205978393555
1789033876982308600,10.32730859375,-2.2061824798583984,-1.3495519161224365,6.570691108703613
1789033876992233700,10.337233642578125,-1.9046868085861206,-1.7371892929077148,6.604190349578857
1789033877002159000,10.3471591796875,-2.115255117416382,-1.9094724655151367,6.900900363922119
1789033877012084200,10.357084228515625,-2.029113531112671,-1.8807586431503296,7.09711217880249
1789033877022009300,10.36700927734375,-2.00518536567688,-1.8233308792114258,7.312466144561768
1789033877031934700,10.376934814453126,-1.7515461444854736,-1.9286150932312012,7.379465103149414
1789033877041859800,10.38685986328125,-1.4787644147872925,-2.139183521270752,7.546962738037109
1789033877051785000,10.396784912109375,-1.5409778356552124,-2.407179594039917,7.9489569664001465
1789033877061710000,10.4067099609375,-1.8089739084243774,-2.392822742462158,8.638090133666992
1789033877071635500,10.416635498046874,-1.8185452222824097,-2.6081767082214355,8.97787094116211
1789033877081560600,10.426560546875,-1.5074782371520996,-3.2207393646240234,8.93958568572998
1789033877091485700,10.436485595703125,-1.7324036359786987,-3.924229145050049,8.934800148010254
1789033877101410800,10.446410888671876,-1.8616160154342651,-4.211368083953857,9.245866775512695
1789033877111336200,10.456336181640625,-2.4502503871917725,-4.034298896789551,9.738788604736328
1789033877121261300,10.46626123046875,-2.3976082801818848,-3.7902309894561768,10.250852584838867
1789033877131186400,10.4761865234375,-1.9573289155960083,-4.1491546630859375,10.01156997680664
1789033877141111600,10.486111572265624,-1.5601203441619873,-4.9435715675354,9.868000984191895
1789033877151037000,10.496036865234375,-1.062413215637207,-5.450850009918213,10.164710998535156
1789033877160962000,10.505962158203126,-0.7082754969596863,-5.627918720245361,10.456634521484375
1789033877170887200,10.51588720703125,-1.5026925802230835,-5.709274768829346,11.011770248413086
1789033877180812300,10.525812255859375,-1.5792629718780518,-5.891129493713379,11.26062297821045
1789033877190737700,10.535737548828125,-1.521835207939148,-6.072983741760254,10.935199737548828
1789033877200662800,10.545662841796876,-1.4261223077774048,-5.9676995277404785,10.461421012878418
1789033877210588000,10.555587890625,-0.8231309652328491,-5.929414749145508,9.432506561279297
1789033877220513000,10.565512939453125,-1.0145567655563354,-5.776273727416992,8.609375953674316
1789033877230438400,10.5754384765625,-1.0432707071304321,-5.115854740142822,8.422736167907715
1789033877240363500,10.585363525390624,-1.4021940231323242,-4.651647090911865,8.70508861541748
1789033877250288600,10.59528857421875,-1.2538390159606934,-4.474578380584717,9.30329418182373
1789033877260213800,10.6052138671875,-0.9092726111412048,-4.522434711456299,10.370492935180664
1789033877270139100,10.61513916015625,-0.5359922647476196,-4.618147850036621,10.815558433532715
1789033877280064300,10.625064208984375,-0.6460621356964111,-4.675575256347656,10.863414764404297
1789033877289989400,10.6349892578125,-0.9810572862625122,-5.364708423614502,10.380064964294434
1789033877299914500,10.64491455078125,-1.28255295753479,-5.651846885681152,10.250852584838867
1789033877309840000,10.65483984375,-1.3351950645446777,-5.565705299377441,10.786844253540039
1789033877319765000,10.664764892578125,-1.5074782371520996,-5.134997367858887,11.322836875915527
1789033877329690000,10.674690185546876,-0.8470591902732849,-5.029713153839111,10.466206550598145
1789033877339615200,10.684615234375,-0.5168496966362,-5.312066078186035,9.078369140625
1789033877349540600,10.69454052734375,-0.7513462901115417,-5.340780258178711,8.169096946716309
1789033877359465700,10.7044658203125,-1.368694543838501,-5.254638671875,7.671389579772949
1789033877369390800,10.714390869140624,-1.9860427379608154,-5.182853698730469,8.011170387268066
1789033877379316000,10.72431591796875,-2.249253273010254,-5.493920803070068,8.719446182250977
1789033877389241300,10.734241455078125,-2.5986053943634033,-6.058627128601074,9.375079154968262
1789033877399166500,10.74416650390625,-3.0388846397399902,-6.168696880340576,10.112068176269531
1789033877409091600,10.754091552734375,-2.6799614429473877,-6.245266914367676,10.528419494628906
1789033877419016700,10.7640166015625,-2.014756679534912,-6.297909259796143,10.671989440917969
1789033877428942000,10.773942138671876,-1.7324036359786987,-6.10169792175293,10.84427261352539
1789033877438867200,10.7838671875,-1.5553346872329712,-5.85284423828125,11.054841041564941
1789033877448792300,10.793792236328125,-0.6269195079803467,-5.924628734588623,10.64806079864502
1789033877458717400,10.803717529296875,-0.30628129839897156,-5.326423168182373,9.710074424743652
1789033877468642800,10.813642822265624,0.16749759018421173,-5.19242525100708,8.848658561706543
1789033877478568000,10.82356787109375,0.5264210104942322,-5.201996326446533,8.724231719970703
1789033877488493000,10.8334931640625,0.6460621356964111,-5.2977094650268555,8.437092781066895
1789033877498418200,10.843418212890626,-0.5790630578994751,-5.125426292419434,8.394021987915039
1789033877508343300,10.85334326171875,-1.3495519161224365,-5.053641319274902,8.422736167907715
1789033877518268700,10.8632685546875,-2.2683959007263184,-4.981856822967529,8.891729354858398
1789033877528193800,10.87319384765625,-2.2444677352905273,-5.015356063842773,9.542576789855957
1789033877538119000,10.883118896484374,-2.5220351219177246,-5.096712112426758,10.365707397460938
1789033877548044000,10.8930439453125,-2.139183521270752,-4.9292144775390625,10.753344535827637
1789033877557969400,10.902969482421875,-0.8997012972831726,-4.541577339172363,10.542776107788086
1789033877567894500,10.91289453125,-1.4261223077774048,-4.101297855377197,10.317851066589355
1789033877577819600,10.922819580078125,-1.3208380937576294,-4.876572608947754,9.667003631591797
1789033877587744800,10.932744873046875,-1.6893328428268433,-5.436492919921875,9.781859397888184
1789033877597670000,10.942669921875,-1.0671988725662231,-5.627918720245361,9.269794464111328
1789033877607595300,10.95259521484375,-0.5455635786056519,-4.919643402099609,8.58066177368164
1789033877617520400,10.962520263671875,-0.7513462901115417,-4.843072891235352,7.83410120010376
1789033877627445500,10.972445556640626,-0.7848458290100098,-5.058426856994629,8.159524917602539
1789033877637370600,10.98237060546875,-1.5744773149490356,-4.412364959716797,9.67657470703125
1789033877647296000,10.9922958984375,-2.68953275680542,-3.8428730964660645,10.04985523223877
1789033877657221000,11.00222119140625,-3.043670415878296,-4.34536600112915,8.891729354858398
1789033877667146200,11.012146240234374,-3.809373617172241,-4.240081787109375,8.322237014770508
1789033877677071400,11.0220712890625,-4.6995038986206055,-3.924229145050049,8.724231719970703
1789033877686996700,11.031996826171875,-3.4169507026672363,-4.115654945373535,9.078369140625
1789033877696921900,11.041921875,-1.454836130142212,-4.086941242218018,9.121439933776855
1789033877706847000,11.051846923828125,0.8566305041313171,-4.034298896789551,8.925228118896484
1789033877716772000,11.061772216796875,1.129412293434143,-4.043870449066162,9.647860527038574
1789033877726697500,11.071697509765626,-0.0526420995593071,-3.9433717727661133,9.753145217895508
1789033877736622600,11.08162255859375,-1.301695466041565,-3.053241729736328,12.480962753295898
1789033877746547700,11.091547607421875,-2.445464849472046,-3.201596736907959,12.710674285888672
1789033877756472800,11.101472900390625,-2.9144580364227295,-3.5988051891326904,11.609975814819336
1789033877766398000,11.11139794921875,-2.7278177738189697,-3.9768712520599365,9.126225471496582
1789033877776323300,11.1213232421875,-3.067598581314087,-3.8668015003204346,7.8819580078125
1789033877786248400,11.13124853515625,-2.2061824798583984,-3.469592809677124,7.106683254241943
1789033877796173600,11.141173583984376,-1.5744773149490356,-2.9383862018585205,6.953542709350586
1789033877806098700,11.1510986328125,-1.2203395366668701,-2.297109842300415,6.920042991638184
1789033877816024000,11.161024169921875,-1.1581261157989502,-1.9908283948898315,7.054041385650635
1789033877825949200,11.17094921875,-0.9092726111412048,-2.3018953800201416,6.891329288482666
1789033877835874300,11.180874267578124,-0.12442677468061447,-2.6081767082214355,6.044270038604736
1789033877845799400,11.19079931640625,-0.6029912829399109,-2.2683959007263184,5.546562671661377
1789033877855724500,11.200724609375,-1.7324036359786987,-2.0865414142608643,5.120640277862549
1789033877865650000,11.21064990234375,-2.2540390491485596,-2.3497519493103027,4.694717884063721
1789033877875575000,11.220574951171875,-2.6464617252349854,-2.287538528442383,4.603790760040283
1789033877885500200,11.230500244140625,-2.837887763977051,-1.679761528968811,5.149354457855225
1789033877895425300,11.24042529296875,-2.273181438446045,-1.5026925802230835,5.221138954162598
1789033877905350700,11.2503505859375,-1.832902193069458,-1.4261223077774048,5.532206058502197
1789033877915275800,11.26027587890625,-1.0911271572113037,-1.679761528968811,5.72841739654541
1789033877925201000,11.270200927734376,-0.9284151792526245,-1.6558332443237305,5.876772403717041
1789033877935126000,11.2801259765625,-1.4931213855743408,-1.521835207939148,6.436692714691162
1789033877945051400,11.290051513671875,-2.258824586868286,-1.3639088869094849,7.269395351409912
1789033877954976500,11.2999765625,-1.9908283948898315,-1.5314065217971802,7.566105365753174
1789033877964901600,11.309901611328126,-1.6414763927459717,-1.8472590446472168,7.417750358581543
1789033877974826800,11.31982666015625,-1.6606189012527466,-2.225325107574463,6.967899322509766
1789033877984751900,11.329751953125,-1.459621787071228,-2.2444677352905273,6.843472957611084
1789033877994677200,11.33967724609375,-1.8424733877182007,-2.00518536567688,7.365108013153076
1789033878004602400,11.349602294921874,-2.3306093215942383,-2.0338993072509766,7.963313579559326
1789033878014527500,11.359527587890625,-2.258824586868286,-2.3258235454559326,8.528019905090332
1789033878024452600,11.36945263671875,-2.0482561588287354,-3.029313564300537,8.461020469665527
1789033878034378000,11.3793779296875,-1.794616937637329,-3.627519130706787,8.303094863891602
1789033878044303000,11.38930322265625,-1.794616937637329,-3.728017568588257,8.733802795410156
1789033878054228200,11.399228271484375,-2.0195422172546387,-3.8285162448883057,9.18843936920166
1789033878064153300,11.4091533203125,-2.2779672145843506,-3.957728624343872,9.293723106384277
1789033878074078500,11.419078369140625,-2.0721843242645264,-4.264009952545166,9.09272575378418
1789033878084003800,11.42900390625,-1.7180466651916504,-4.450650215148926,8.652446746826172
1789033878093929000,11.438928955078126,-1.674975872039795,-4.570291042327881,8.886942863464355
1789033878103854000,11.44885400390625,-0.9092726111412048,-4.503292083740234,9.30329418182373
1789033878113779200,11.458779296875,-1.153340458869934,-4.48414945602417,9.853643417358398
1789033878123704300,11.468704345703125,-1.2059825658798218,-4.7473602294921875,10.222138404846191
1789033878133629400,11.47862939453125,-1.5984054803848267,-5.163711071014404,10.308279991149902
1789033878143554800,11.488554931640625,-1.4644074440002441,-5.527420520782471,10.097711563110352
1789033878153480000,11.49847998046875,-1.4835500717163086,-5.8719868659973145,9.8871431350708
1789033878163405000,11.508405029296876,-0.9906286001205444,-6.297909259796143,9.4660062789917
1789033878173330200,11.518330078125,-0.7848458290100098,-6.297909259796143,9.068798065185547
1789033878183255300,11.52825537109375,-0.397208571434021,-6.369693756103516,8.614161491394043
1789033878193180400,11.538180419921876,-1.1581261157989502,-6.297909259796143,8.925228118896484
1789033878203105500,11.54810546875,-1.5936198234558105,-5.962913990020752,9.571290969848633
1789033878213031000,11.558031005859375,-1.2681959867477417,-5.7619171142578125,9.891928672790527
1789033878222956000,11.5679560546875,-0.8231309652328491,-5.532206058502197,9.92542839050293
1789033878232881200,11.577881103515624,-0.16271193325519562,-5.828916072845459,9.686145782470703
1789033878242806300,11.58780615234375,-0.7465606927871704,-5.9437713623046875,9.767501831054688
1789033878252731400,11.5977314453125,-1.2729816436767578,-5.651846885681152,10.207781791687012
1789033878262656500,11.607656494140626,-1.1054840087890625,-5.398207664489746,10.380064964294434
1789033878272581600,11.61758154296875,-0.20578274130821228,-4.996213912963867,10.17428207397461
1789033878282507000,11.627507080078125,0.09571290761232376,-5.120640277862549,9.355937004089355
1789033878292432100,11.63743212890625,-0.8470591902732849,-5.446064472198486,8.973084449768066
1789033878302357200,11.647357177734374,-1.6558332443237305,-5.201996326446533,8.915657043457031
1789033878312282400,11.657282470703125,-1.679761528968811,-5.044070243835449,8.623732566833496
1789033878322207500,11.66720751953125,-0.7034898400306702,-4.7473602294921875,8.188239097595215
1789033878332132600,11.677132568359376,-0.7130611538887024,-5.37906551361084,8.00638484954834
1789033878342058000,11.68705810546875,-1.7850457429885864,-5.953342914581299,8.901300430297852
1789033878351983000,11.696983154296875,-2.493321180343628,-6.254838466644287,10.107282638549805
1789033878361908200,11.706908203125,-2.187039852142334,-6.498906135559082,10.638489723205566
1789033878371833600,11.71683349609375,-1.4069796800613403,-6.556334018707275,10.518848419189453
1789033878381758700,11.7267587890625,-1.2394821643829346,-6.527620315551758,9.982855796813965
1789033878391683800,11.736683837890626,-0.9954141974449158,-6.38883638381958,10.040284156799316
1789033878401609200,11.746609130859374,-1.3830515146255493,-5.958128452301025,10.628918647766113
1789033878411534300,11.756534423828125,-1.3399807214736938,-5.618347644805908,10.877771377563477
1789033878421459500,11.76645947265625,-1.1868400573730469,-5.278566837310791,10.949556350708008
1789033878431384800,11.776384765625,-0.17706887423992157,-5.288137912750244,10.231709480285645
1789033878441310000,11.78631005859375,0.19621145725250244,-5.532206058502197,9.346364974975586
1789033878451235000,11.796235107421875,-0.09092725813388824,-5.776273727416992,8.676374435424805
1789033878461160200,11.80616015625,0.2871387302875519,-5.972485542297363,8.173882484436035
1789033878471085300,11.816085205078124,0.16271193325519562,-5.91505765914917,7.891529083251953
1789033878481010400,11.826010498046875,-0.6508477330207825,-5.704489231109619,8.34138011932373
1789033878490935800,11.835935791015626,-1.397408366203308,-5.632704734802246,8.240880966186523
1789033878500861000,11.84586083984375,-1.5122638940811157,-5.723631858825684,8.551948547363281
1789033878510786000,11.8557861328125,-2.5363919734954834,-5.594419479370117,9.42772102355957
1789033878520711200,11.865711181640625,-2.5842485427856445,-5.19242525100708,10.557133674621582
1789033878530636300,11.87563623046875,-2.038684844970703,-4.6372904777526855,11.054841041564941
1789033878540561400,11.8855615234375,-1.2490534782409668,-4.3310089111328125,11.045269012451172
1789033878550486500,11.895486572265625,-0.5359922647476196,-4.498506546020508,10.619346618652344
1789033878560412000,11.905411865234376,0.14835500717163086,-5.010570526123047,9.719645500183105
1789033878570337000,11.9153369140625,0.4785645306110382,-5.685346603393555,8.662017822265625
1789033878580262100,11.92526220703125,0.05742774158716202,-5.723631858825684,8.25523853302002
1789033878590187300,11.935187255859375,-0.760917603969574,-5.694917678833008,7.575676441192627
1789033878600112400,11.9451123046875,-1.8233308792114258,-5.407779216766357,8.087740898132324
1789033878610037500,11.95503759765625,-2.311466693878174,-5.4173502922058105,8.652446746826172
1789033878619962600,11.964962646484375,-3.0723843574523926,-5.168497085571289,8.97787094116211
1789033878629888000,11.974887939453126,-3.1585259437561035,-4.445864677429199,9.403793334960938
1789033878639813000,11.984813232421875,-2.9240293502807617,-3.8428730964660645,9.600004196166992
1789033878649738200,11.99473828125,-2.837887763977051,-3.603590965270996,9.762716293334961
1789033878659663400,12.004663330078126,-1.7180466651916504,-3.5605201721191406,10.088140487670898
1789033878669588500,12.01458837890625,-0.3732803463935852,-3.814159393310547,10.198209762573242
1789033878679513600,12.024513671875,0.11964113265275955,-4.034298896789551,10.370492935180664
1789033878689438700,12.034438720703125,0.1579262912273407,-4.426722049713135,10.63370418548584
1789033878699364000,12.044364013671874,-0.40677985548973083,-4.67078971862793,10.695917129516602
1789033878709289200,12.054289306640625,-1.430907964706421,-4.886143684387207,10.107282638549805
1789033878719214300,12.06421435546875,-2.335394859313965,-4.579862594604492,9.164510726928711
1789033878729139500,12.074139404296876,-3.105883836746216,-3.972085475921631,8.614161491394043
1789033878739064600,12.084064697265624,-2.7038896083831787,-3.531806230545044,7.920242786407471
1789033878748990000,12.093989990234375,-1.8903298377990723,-3.436093330383301,7.269395351409912
1789033878758915000,12.1039150390625,-1.368694543838501,-3.397808074951172,7.178467750549316
1789033878768840200,12.113840087890624,-0.727418065071106,-3.383451223373413,7.4225358963012695
1789033878778765600,12.123765625,-0.550349235534668,-3.436093330383301,7.044469833374023
1789033878788690700,12.133690673828125,-0.49292147159576416,-2.861815929412842,7.020541667938232
1789033878798615800,12.14361572265625,-0.6891329288482666,-2.3641088008880615,7.0683979988098145
1789033878808541200,12.153541259765625,-0.914058268070221,-2.383251428604126,6.977470874786377
1789033878818466300,12.16346630859375,-1.2442678213119507,-2.7182464599609375,6.4701924324035645
1789033878828391400,12.173391357421876,-1.674975872039795,-3.0963125228881836,6.072983741760254
1789033878838316800,12.18331689453125,-1.4739787578582764,-3.383451223373413,5.637490272521973
1789033878848242000,12.193241943359375,-2.014756679534912,-2.641676187515259,5.72841739654541
1789033878858167000,12.2031669921875,-2.445464849472046,-1.947757601737976,5.37906551361084
1789033878868092200,12.213092041015624,-1.7180466651916504,-1.6414763927459717,5.4556355476379395
1789033878878017300,12.223017333984375,-1.4883357286453247,-1.6271194219589233,6.269195556640625
1789033878887942400,12.2329423828125,-1.588834285736084,-1.6845471858978271,6.412764549255371
1789033878897867500,12.242867431640626,-1.6271194219589233,-1.9812572002410889,6.340980052947998
1789033878907793000,12.25279296875,-1.2634103298187256,-2.7278177738189697,5.910272121429443
1789033878917718000,12.262718017578125,-1.8664016723632812,-2.8283164501190186,6.723831653594971
1789033878927643100,12.27264306640625,-2.823530673980713,-2.50289249420166,7.288537979125977
1789033878937568300,12.282568359375,-2.9001009464263916,-2.321038007736206,6.896114826202393
1789033878947493400,12.292493408203125,-2.091326951980591,-2.4406790733337402,6.345765590667725
1789033878957418500,12.30241845703125,-1.4787644147872925,-2.5986053943634033,5.862415313720703
1789033878967343600,12.312343505859374,-1.4644074440002441,-2.5459632873535156,6.580262184143066
1789033878977269000,12.32226904296875,-1.679761528968811,-2.6081767082214355,7.4847493171691895
1789033878987194000,12.332194091796875,-1.770688772201538,-2.8905298709869385,8.00638484954834
1789033878997119200,12.342119140625,-1.5840486288070679,-3.1250264644622803,8.25523853302002
1789033879007044400,12.35204443359375,-1.368694543838501,-3.517449378967285,7.843672752380371
1789033879016969500,12.361969482421875,-1.100698471069336,-3.7423746585845947,7.858029365539551
1789033879026894600,12.37189453125,-0.9906286001205444,-3.7806596755981445,8.073383331298828
1789033879036819700,12.38181982421875,-1.0528420209884644,-3.7471601963043213,8.135597229003906
1789033879046745000,12.3917451171875,-1.6223337650299072,-3.8668015003204346,8.523234367370605
1789033879056670200,12.401670166015625,-1.919043779373169,-3.6993038654327393,8.886942863464355
1789033879066595300,12.41159521484375,-1.7419748306274414,-3.8572301864624023,9.131011009216309
1789033879076520400,12.4215205078125,-1.3782658576965332,-4.417150497436523,8.93958568572998
1789033879086445600,12.431445556640625,-0.8374879360198975,-5.000999450683594,9.131011009216309
1789033879096370700,12.44137060546875,-0.43549370765686035,-5.154139995574951,9.504291534423828
1789033879106295800,12.4512958984375,-0.7178468108177185,-5.31685209274292,9.930213928222656
1789033879116221200,12.46122119140625,-1.2538390159606934,-5.584847927093506,10.461421012878418
1789033879126146300,12.471146240234376,-1.3830515146255493,-6.0538411140441895,10.595418930053711
1789033879136071400,12.481071533203124,-1.368694543838501,-6.403193473815918,10.963912963867188
1789033879145996500,12.49099658203125,-1.4691931009292603,-6.3122663497924805,11.184053421020508
1789033879155921700,12.500921630859375,-0.05742774158716202,-6.345765590667725,10.447063446044922
1789033879165846800,12.5108466796875,0.24885354936122894,-6.379265308380127,9.422935485839844
1789033879175772000,12.52077197265625,-0.2967100143432617,-6.4319071769714355,9.001798629760742
1789033879185697300,12.530697265625,-0.5551348328590393,-6.058627128601074,8.97787094116211
1789033879195622400,12.540622314453126,-0.7992027401924133,-5.948556900024414,9.044869422912598
1789033879205547500,12.550547607421874,-0.5312066078186035,-5.962913990020752,8.987442016601562
1789033879215472600,12.56047265625,-3.9529430866241455,-5.2977094650268555,10.01156997680664
1789033879225397800,12.570397705078125,1.1820544004440308,-6.403193473815918,9.53779125213623
1789033879235323000,12.580322998046874,-0.7992027401924133,-6.532405853271484,10.403992652893066
1789033879245248300,12.590248291015625,-0.9619147181510925,-6.10169792175293,10.815558433532715
1789033879255173400,12.60017333984375,-0.5168496966362,-5.613562107086182,10.466206550598145
1789033879265098800,12.6100986328125,-0.22971096634864807,-5.589633464813232,9.90149974822998
1789033879275024000,12.62002392578125,-0.7657032608985901,-5.283352375030518,9.274580955505371
1789033879284949000,12.629948974609375,-0.9475577473640442,-4.852644443511963,8.681160926818848
1789033879294874400,12.639874267578126,-1.1629117727279663,-4.967499732971191,8.532805442810059
1789033879304799500,12.649799560546874,-1.0241280794143677,-5.374279499053955,8.427521705627441
1789033879314724600,12.659724609375,-1.3351950645446777,-5.8959150314331055,8.470592498779297
1789033879324650000,12.66964990234375,-1.5936198234558105,-6.4941205978393555,8.757730484008789
1789033879334575000,12.6795751953125,-2.2636101245880127,-6.297909259796143,9.681360244750977
1789033879344500200,12.689500244140625,-1.6654045581817627,-6.379265308380127,9.489934921264648
1789033879354425300,12.69942529296875,-1.459621787071228,-6.154339790344238,8.891729354858398
1789033879364350500,12.7093505859375,-0.8470591902732849,-6.034698486328125,8.078168869018555
1789033879374275600,12.719275634765625,-0.9092726111412048,-6.149554252624512,8.279166221618652
1789033879384200700,12.72920068359375,-1.100698471069336,-6.412764549255371,9.422935485839844
