time,seconds_elapsed,z,y,x
1789453531549694000,0.06569384765625,1.6885773563206194,0.31707448358237744,-0.039050153884291644
1789453531559633000,0.0756328125,1.387418819272518,-0.3741682436794042,-0.23637663360126315
1789453531569572900,0.08557275390625,0.7162777997970581,-1.0715122104257344,-0.6466476526014506
1789453531579511800,0.09551171875,0.018247604352235793,-1.442860135987401,-1.1730154594831168
1789453531589452000,0.1054521484375,-0.38604163682460785,-1.4707558586508034,-1.6620865320190787
1789453531599391000,0.115390869140625,-0.24069851538836953,-1.274354750150442,-1.8712004070982335
1789453531609331000,0.1253310546875,0.2072948429584503,-1.1845406237125395,-1.828929537601769
1789453531619270100,0.135270263671875,0.5345856001287699,-1.059689086163044,-1.3963456375718115
1789453531629210000,0.145210205078125,0.6457581564158201,-0.9137631964027881,-0.7991006791081279
1789453531639149800,0.15514990234375,0.6908259631544351,-0.6514280187457799,-0.1601980146102607
1789453531649089000,0.165089111328125,0.7593588166326284,-0.23464228408932686,0.21755451729670167
1789453531659029000,0.175029052734375,1.0994254687458276,0.41232115646302697,0.4197418079830706
1789453531668968000,0.184968017578125,1.9559628031045198,1.2264695479035377,0.9677940617978572
1789453531678908000,0.194907958984375,2.735258492350578,1.2726046916127205,1.311067108736932
1789453531688847000,0.20484716796875,2.716140534904599,0.8279039450705051,1.1084706527277826
1789453531698787000,0.214787109375,2.289305699920654,-0.1623568000793457,1.0344079299122095
1789453531708726000,0.22472607421875,0.02019698485434055,-1.6932541159600019,1.260875529243797
1789453531718666000,0.234666015625,-3.9210827261328696,-2.9529455499857664,1.2070569914251565
1789453531728605000,0.24460498046875,-4.5253065106332295,-2.460144497141242,0.8233790149919689
1789453531738545000,0.254544921875,-5.925560846081376,-1.8635688893064855,0.14492971832975746
1789453531748483800,0.26448388671875,-5.287258850890398,-1.2851862330272794,-0.11735650561898946
1789453531758424000,0.274424072265625,-1.781315845772624,0.5685010214731097,-0.8165611516706645
1789453531768363000,0.284363037109375,3.6304327236175533,4.115870554217696,-1.88085393223688
1789453531778303000,0.294302978515625,3.769678697222471,3.486175059330463,-2.0673849502384662
1789453531788242200,0.3042421875,-0.22738719839453697,0.8999933219864964,-0.9111689421258866
1789453531798182000,0.314181884765625,-4.004095940384269,-1.7861279222294688,-0.6630072512499988
1789453531808121000,0.32412109375,-5.39493947340846,-3.026875001810491,-1.6271742085918783
1789453531818060800,0.334060791015625,-4.302337128680944,0.791810595165193,-2.915387095963955
1789453531828000000,0.344,-0.8497393447816372,4.587351463396847,-4.587471290384233
1789453531837940000,0.35393994140625,1.9476269364356993,3.2258956451594827,-4.756095041903853
1789453531847879000,0.36387890625,2.638034381917119,-0.694804219135642,-4.21177949039936
1789453531857819100,0.373819091796875,1.2835527866065501,-2.441388358744979,-2.345005959832668
1789453531867759000,0.383759033203125,2.145489349660277,-3.2071807155564427,-0.1147609727004543
1789453531877698000,0.393697998046875,4.620946566745639,-1.9420625803068279,0.48337410300336775
1789453531887638000,0.403637939453125,3.717225456407666,-1.265848495350778,0.5635398919343948
1789453531897577000,0.413576904296875,1.5736685361146925,-1.3763362842440605,0.15191775058619678
1789453531907517000,0.423516845703125,0.05516717594861984,-1.3981237531602382,-0.5142383931487798
1789453531917456000,0.433455810546875,-1.812006167590618,-1.5217571470916271,-0.9836947376977652
1789453531927396400,0.443396240234375,-3.148116824430227,-1.3732286736175416,-0.9640350015252828
1789453531937335300,0.453335205078125,-3.3592163203686476,-0.3357581412643194,-0.7593775213330983
1789453531947275300,0.463275146484375,-3.421680083066225,0.9706409756615757,-0.4702846851319074
1789453531957214500,0.47321435546875,-3.6936744849503036,1.6217305562332271,-0.12142857736349105
1789453531967154200,0.483154296875,-3.743063077497482,0.9738479550093412,-0.1972238230600953
1789453531977093000,0.493093017578125,-2.7092899383574722,-0.23607231689244507,0.23122356168702243
1789453531987033000,0.503033203125,0.07017828259766101,-0.46778234692215914,1.398426535499096
1789453531996972300,0.51297216796875,2.397071078112721,-0.016708558216691018,2.359551787057519
1789453532006912300,0.522912353515625,2.4712065739035607,0.15764759947508572,2.532232412752509
1789453532016851200,0.532851318359375,1.8339765918582678,0.1745604480922222,2.235320281102508
1789453532026791400,0.54279150390625,1.3649994821935891,0.04205985709428787,1.2544668312452734
1789453532036730400,0.55273046875,0.7009691715061664,-0.041104456065595145,0.07831453504115343
1789453532046670000,0.562670166015625,-0.3163561061799526,0.2419578677996993,0.15666691787466405
1789453532056610300,0.5726103515625,-1.6858119832605123,0.9806064893588423,0.44893516924157734
1789453532066549200,0.58254931640625,-2.638656897729635,2.0967542525857685,0.11366963379979132
1789453532076489200,0.5924892578125,-3.0354233421862125,2.7792361657649276,0.16749460135921834
1789453532086428200,0.60242822265625,-2.945476529279351,2.666792566628754,0.5818441949099302
1789453532096368400,0.612368408203125,-1.8260919760882854,2.013233088812232,1.221459610787034
1789453532106307300,0.622307373046875,0.36099604289531706,1.1816110000014304,1.465346400822699
1789453532116247300,0.632247314453125,1.884694971704483,0.5010881119355559,1.0671762270480394
1789453532126186200,0.642186279296875,2.2122505172908307,0.14054127411246298,0.6452797252491116
1789453532136126200,0.652126220703125,1.9703665915101765,0.0054775546282529826,0.07552651175782084
1789453532146065200,0.662065185546875,1.6697803013920782,-0.12351532050967216,-0.6126575585857034
1789453532156005000,0.672005126953125,0.8908727346807718,0.02605126384049654,-0.7601077353037893
1789453532165944300,0.6819443359375,0.48877018989324567,0.28675737899094816,-0.5540162767857313
1789453532175884300,0.69188427734375,0.6352554671019315,0.48876142206490036,-0.12087459674254059
1789453532185824300,0.70182421875,0.9256406812012195,0.899203340652585,0.4376756702110171
1789453532195763500,0.711763427734375,0.7076806518435478,0.9706605571448802,0.5227348572067916
1789453532205703200,0.721703125,0.23766017060577868,0.7612140891104936,0.27164748814254996
1789453532215642000,0.73164208984375,-0.2598778476327658,0.6042120940625667,-0.018540742079913616
1789453532225582000,0.74158203125,-0.8428490007460117,0.7492115166276693,-0.22613427572399378
1789453532235521300,0.751521240234375,-0.869152485781908,0.959472808176279,-0.2638428057409823
1789453532245461200,0.761461181640625,-0.5912251867175102,0.9955576825141906,-0.13648439993709324
1789453532255400200,0.771400146484375,-0.11892857724130153,0.9543073882371187,0.06751943865194916
1789453532265340400,0.78134033203125,0.4728974979788065,0.7756821749240159,0.5020983118914067
1789453532275279400,0.791279296875,1.3845669369727371,0.6287088219374418,0.8187839422866702
1789453532285219000,0.801218994140625,1.3461229322880506,0.3192243550926447,0.5915406824074685
1789453532295158300,0.811158203125,0.587051700425148,0.14607961901724337,0.20459215987101195
1789453532305098200,0.82109814453125,0.09329144715964793,0.02294774486720562,-0.11358297842964529
1789453532315038200,0.8310380859375,-0.2707598916530609,-0.037977556216716765,-0.2504065471932292
1789453532324977200,0.84097705078125,-0.9391676867723464,0.22038930233120918,-0.10207710342258214
1789453532334917400,0.85091748046875,-1.0355915867388248,0.4497995309859514,-0.047804245965182776
1789453532344856300,0.860856201171875,-1.839671588629484,0.5919301201164722,0.09850187528431414
1789453532354796300,0.87079638671875,-1.7816268114179372,0.6550543925493956,0.05050049931183457
1789453532364735200,0.8807353515625,-1.539148426875472,0.4792179331719875,-0.022082798600941894
1789453532374675200,0.89067529296875,-1.2485773348152638,0.1368681385576725,-0.22525924645513296
1789453532384614100,0.9006142578125,-0.8857838871091603,-0.08374211304783821,-0.32597719035372136
1789453532394554000,0.91055419921875,-0.5510726245492696,-0.01972469116747379,-0.26028540552034973
1789453532404493300,0.920493408203125,-0.3759820151031017,0.05647708950340748,-0.20845088112577795
1789453532414433300,0.930433349609375,-0.38154315636157987,0.10371697958409785,-0.13676818531453608
1789453532424373200,0.940373291015625,-0.5173889661341905,0.20986206309795377,-0.01858560413494706
1789453532434312400,0.9503125,-0.59439621796906,0.3710878133207559,0.05318520835116505
1789453532444252200,0.960252197265625,-0.6781587892830372,0.5439648383706808,0.14053221402317284
1789453532454191000,0.970191162109375,-0.7972492790877819,0.7436439456284045,0.4727557514205575
1789453532464131300,0.98013134765625,-0.6329360842436552,0.9522685758858919,0.8664021641604602
1789453532474070300,0.9900703125,-0.21281740577220915,1.0230389791578054,1.0584544298015535
1789453532484010200,1.00001025390625,0.1365150873363018,0.9426473455816506,0.9601450083494186
1789453532493949200,1.00994921875,0.24585750558674335,0.7248088967770338,0.7341321670480072
1789453532503889400,1.019889404296875,0.4022562740445137,0.5733242038458586,0.5453603843823075
1789453532513828400,1.029828369140625,0.5828320369035005,0.4675228192031383,0.47802141686379906
1789453532523768000,1.03976806640625,0.7526467517733574,0.38338381579220293,0.5146441974706948
1789453532533708300,1.049708251953125,1.1350269434809683,0.3561252219885587,0.6424557538695633
1789453532543647200,1.059647216796875,1.594421401286125,0.4098053742498159,0.888760126440972
1789453532553587200,1.069587158203125,1.91213476729393,0.4481289674252271,1.2429253004029392
1789453532563526100,1.079526123046875,1.9652853427231312,0.4826648587554693,1.4272646535791456
1789453532573466400,1.08946630859375,1.6622691951096058,0.4488637114405632,1.431207692116499
1789453532583405300,1.0994052734375,1.2572411182641983,0.5414905572116374,1.4806705189436673
1789453532593345300,1.10934521484375,0.9855711260288953,0.6678408088862896,1.4446509649269281
1789453532603284200,1.1192841796875,0.5920932017236947,0.8272785066485404,1.3808729047603905
1789453532613224200,1.12922412109375,0.28405542655587196,0.908906988543272,1.1240891506854445
1789453532623163100,1.1391630859375,-0.0439583841919899,0.8086404416739941,0.7315951228510588
1789453532633103000,1.14910302734375,-0.3211000858366489,0.575227407118678,0.38087117538414894
1789453532643043300,1.159043212890625,-0.37238954356908793,0.4539005365639925,0.20306648467369376
1789453532652982300,1.168982177734375,-0.38827626400887966,0.42180853125452994,0.16142207651250062
1789453532662922200,1.178922119140625,-0.439380428302288,0.30984745493829247,0.060911491754278534
1789453532672861400,1.188861328125,-0.40145547905564305,0.16403554694652556,-0.05388707301020622
1789453532682801200,1.19880126953125,-0.27784546599984167,0.20731413218080996,0.27254480230845507
1789453532692740000,1.208739990234375,0.17890052312314508,0.3315875775814056,0.8566829533744603
1789453532702680300,1.218680419921875,0.5515799895495176,0.2932072857826948,1.0828099956400692
1789453532712619300,1.228619384765625,0.49298868437111376,0.1277577803850174,1.0464400938156992
1789453532722559200,1.238559326171875,0.18198972131013869,-0.03856383167207241,0.9459588812824338
1789453532732499200,1.248499267578125,-0.18628478815555571,-0.19402853415012358,0.7328358436271548
1789453532742438400,1.2584384765625,-0.5817430726230144,-0.32609540990591046,0.5667946559466421
1789453532752378000,1.268378173828125,-0.8643775264650583,-0.4572001626312732,0.39504458910003304
1789453532762317000,1.278317138671875,-1.079030915492773,-0.6139747786641121,0.297767195843067
1789453532772257300,1.28825732421875,-1.3313695997923611,-0.6572539484202862,0.3749664448523894
1789453532782196200,1.2981962890625,-1.550401642295718,-0.614834610363841,0.5075833922389894
1789453532792136200,1.30813623046875,-1.6768687983483075,-0.7184492986172437,0.5531312375795095
1789453532802075100,1.3180751953125,-1.682319464969635,-0.8775742771685123,0.4647176986545324
1789453532812015400,1.328015380859375,-1.6292238345980643,-1.0029150595396756,0.5485909272687509
1789453532821955300,1.337955322265625,-1.4640098915219306,-0.9633347443014383,0.7618271064423024
1789453532831894300,1.347894287109375,-1.385246151408553,-0.8114332872629165,0.8665001446422189
1789453532841834200,1.357834228515625,-1.6353145526885986,-0.5975467909544706,0.8550511143889278
1789453532851773200,1.367773193359375,-1.9897230338871479,-0.40679684008359906,0.6585702186506242
1789453532861713200,1.377713134765625,-2.1218460237443444,-0.4241454497694969,0.39251678765546527
1789453532871652000,1.387652099609375,-1.972846133366227,-0.5475152243286371,0.1406104577580001
1789453532881592300,1.39759228515625,-1.4651532163381575,-0.74141457914114,-0.2132995632659644
1789453532891531300,1.40753125,-1.0790817688971757,-0.7551280471950769,-0.37941049171444025
1789453532901471200,1.41747119140625,-0.6724339818954468,-0.70381579310894,-0.1745509130788967
1789453532911411200,1.4274111328125,0.022969372177124022,-0.6517693795293569,0.2509284887081012
1789453532921350100,1.43735009765625,0.2938333087265491,-0.5909118829846381,0.6209606920287013
1789453532931291000,1.447290771484375,-0.05946574992537498,-0.1862894643306732,0.7672252391587943
1789453532941229800,1.457229736328125,-0.7536416080296039,0.10332885704934597,0.5702227306991815
1789453532951170000,1.467170166015625,-1.4430530282109975,-0.1645996105700731,0.19452453750614077
1789453532961109000,1.47710888671875,-1.471573604774475,-0.30882161902189253,-0.12741134156752376
1789453532971048700,1.487048583984375,-1.3692261599779127,-0.20322657060623167,-0.54048569101803
1789453532980988000,1.49698779296875,-0.9591723639249801,-0.4523305107682943,-0.8165335330113768
1789453532990928000,1.506927978515625,-0.18040917412042617,-0.7578659477263688,-0.765264241284132
1789453533000867800,1.516867919921875,0.4353133249938488,-0.5829851816385984,-0.5379974543988705
1789453533010806800,1.526806884765625,0.7953694566905498,-0.47876259061992166,-0.27155290519427505
1789453533020747000,1.5367470703125,0.09777823718488216,-0.3816021930724382,-0.0038144163221586493
1789453533030686000,1.54668603515625,-1.0607505779147148,0.44766953321993347,0.27744541556527835
1789453533040626000,1.5566259765625,-1.4644646495521068,0.07919161013662815,-0.20105938263498246
1789453533050565000,1.566565185546875,-2.1216870337903497,0.012938976550102232,-0.26386004913672806
1789453533060504800,1.5765048828125,-2.2554496075481176,0.016460136413574217,-0.035657728117157235
1789453533070444800,1.58644482421875,-1.8665397218108175,-0.26265257304310796,0.007273036910011433
1789453533080384000,1.596384033203125,-1.5429975035190582,-0.33863398896157737,0.1490808649261482
1789453533090324000,1.606323974609375,-1.1910369999945163,-0.31035014376342296,0.3102843485182151
1789453533100263000,1.616262939453125,-1.1079863763421773,-0.36228432914018627,0.18725620873728765
1789453533110203000,1.626202880859375,-1.5830390065282582,-0.4325198948830366,-0.23235928771868347
1789453533120142000,1.63614208984375,-2.0673066243052483,-0.9910387437850237,-0.47619179028384384
1789453533130081800,1.646081787109375,-2.140847661334276,-1.8365841440081596,-0.5608590188199654
1789453533140020700,1.656020751953125,-2.451564884844422,-2.666579508399963,-1.0406193517729638
1789453533149961000,1.6659609375,-2.3579653946489096,-2.448819970050454,-1.115831536884606
1789453533159901000,1.67590087890625,-3.2519074537724255,-3.237373901507258,-0.8117694604147225
1789453533169839900,1.68583984375,-3.700650753703713,-4.458270617714524,1.5953066596880554
1789453533179780000,1.695780029296875,-3.4590813006997108,-4.5549365097433325,0.2880737222865224
1789453533189719000,1.705718994140625,-4.5109956612080335,-4.781102641910314,-0.463181209802255
1789453533199658800,1.71565869140625,-3.592512450546026,-6.4714540221661325,-4.02229502941966
1789453533209598000,1.725597900390625,-3.9666397776931523,-7.4203200961321585,-3.9854251421838995
1789453533219538000,1.735537841796875,-3.6377953613400456,-8.21779616971314,-3.503274078169465
1789453533229478000,1.745477783203125,-3.4636452476143833,-8.202923010230064,-3.6300989616185424
1789453533239416800,1.755416748046875,-4.648441307392716,-8.261226730638741,-4.192106821680069
1789453533249357000,1.765357177734375,-3.3866187065571545,-7.633671170389651,-4.796452771255374
1789453533259296000,1.7752958984375,-1.12243517293334,-7.2010846400111905,-3.9590255032971498
1789453533269236000,1.785236083984375,-0.7345376791089773,-7.469229965251683,-1.9031731699422
1789453533279175000,1.7951748046875,-0.7880331224530935,-8.162957495066523,-0.07717267152965068
1789453533289115000,1.805114990234375,-0.5706733970761299,-9.899923326981067,0.46929333600699896
1789453533299054800,1.815054931640625,0.4130611611753702,-10.646375315767527,0.5918257829591631
1789453533308993800,1.824993896484375,0.7519973479539156,-7.627433152782917,2.196658395883441
1789453533318934000,1.83493408203125,1.000046226105094,-4.050141944505274,4.42853189753294
1789453533328873000,1.844873046875,0.602469634309411,-2.2009952560439703,5.967320258924365
1789453533338813000,1.85481298828125,-1.6862907066881656,-4.766065816298127,4.2086400233298535
1789453533348752100,1.864752197265625,-4.992805948960781,-5.820844334065914,3.127815794679522
1789453533358691800,1.87469189453125,-5.814028808832168,-4.158080633437633,2.3372785804510117
1789453533368630800,1.884630859375,-5.116591318583488,-4.1155967057123775,1.1887217087894677
1789453533378570800,1.89457080078125,-3.0200778890162705,-5.684978066027164,1.4074205738157033
1789453533388511000,1.904510986328125,-1.7916788343548773,-5.966876606810093,3.9330408749520775
1789453533398450000,1.914449951171875,-0.5778676924943924,-4.551841466337442,7.0235448838472365
1789453533408390000,1.924389892578125,0.8659493058264255,-2.491426355111599,9.839069922089577
1789453533418329000,1.9343291015625,3.1219045248091217,-0.017709844213724135,12.157667182946204
1789453533428268800,1.944268798828125,2.0000410142838954,0.22524784827828406,11.676071414726971
1789453533438207700,1.954207763671875,2.712422391164303,0.6429586618904024,11.925844632452726
1789453533448148000,1.96414794921875,1.6345616884946823,3.7882439892217517,13.200844694769382
1789453533458088000,1.974087890625,-1.0281073684632778,2.7278523077473045,11.702116541087626
1789453533468027000,1.98402685546875,-1.7569152717486023,3.5064337112441657,9.198729699069261
1789453533477966800,1.993966796875,-4.224958120924234,5.178634810042381,7.409720376184582
1789453533487906000,2.003906005859375,-4.963413850259781,5.283607927167416,6.681973672389984
1789453533497846000,2.013845947265625,-4.5032443164288996,4.512622385627031,6.756732853037119
1789453533507785700,2.02378564453125,-3.7973686681807037,2.276183475758135,6.562402705591917
1789453533517725000,2.033724853515625,-4.7838779518425465,1.7879311722591518,6.532047314816713
1789453533527665000,2.043664794921875,-2.2807136665336785,1.1411030485242604,6.065860128131509
1789453533537603800,2.053603759765625,-3.068734660157561,1.3242834409236908,5.971054184755682
1789453533547544000,2.0635439453125,-5.004173730671406,0.22629940315783023,6.883582286405563
1789453533557483000,2.07348291015625,-4.5150387991189955,-2.0673618616238234,8.00413705241978
1789453533567423000,2.083423095703125,-1.3969447725087403,-3.129243197134137,8.131046107020973
1789453533577363000,2.093363037109375,1.0202296208254993,-3.53175286141783,6.676109748792648
1789453533587302000,2.103302001953125,3.4466327380150554,-4.0446731577053665,3.0765707606106996
1789453533597241900,2.113241943359375,15.776322959530352,-2.8172020315438506,-1.0027648374140261
1789453533607180800,2.123180908203125,12.579040829914808,-4.926905782073736,-1.7223153752714395
1789453533617121000,2.13312109375,14.35810568189025,-3.118640554577112,-1.5271768340528011
1789453533627060000,2.14306005859375,6.980372097074985,-3.4331951642930507,1.581416958284378
1789453533637000000,2.153,5.3279667088538405,-0.3774070794701576,3.558101062378287
1789453533646940000,2.16293994140625,-3.129256348876655,-1.8898562999904154,7.171759176805615
1789453533656878800,2.17287890625,-4.249007981814444,-6.87713500996232,3.861692964053154
1789453533666818800,2.18281884765625,18.38104953060746,-0.4100596412718296,-2.625169055125117
1789453533676757800,2.1927578125,6.603968641689419,1.4418360536366701,-0.7028489939033985
1789453533686698000,2.202697998046875,4.041386683380604,3.7775644820362326,5.687332520198821
1789453533696637000,2.212636962890625,-5.0880000148713584,8.572634274500608,10.294863725054263
1789453533706577000,2.222576904296875,-20.069727424693106,11.186072559821605,15.021946022963522
1789453533716516900,2.232516845703125,-17.847872043710947,10.502448490869998,14.428168813675642
1789453533726455800,2.242455810546875,-5.918899050104618,7.530546896001696,8.237726028063893
1789453533736395800,2.252395751953125,6.988725499400496,5.449015931510925,6.70641194807589
1789453533746334700,2.262334716796875,-3.3161259511828423,4.042735759902,6.334329278498887
1789453533756275000,2.27227490234375,-13.13827630265355,5.164751246118545,4.356882957860827
1789453533766214000,2.2822138671875,-0.5508250795289874,8.047129221928119,5.360743773818016
1789453533776153900,2.29215380859375,1.8411755634516476,7.990110865154862,3.2542554782032966
1789453533786093800,2.30209375,-2.4349223776012656,6.110228262168168,1.0739788928002119
1789453533796033000,2.312032958984375,-9.036546501991152,6.155242877414822,-0.47586979178786276
1789453533805972700,2.32197265625,-7.504775325885415,7.66789726511836,1.0726660566359758
1789453533815912000,2.331911865234375,-2.0587065537422893,8.142154945534466,2.4433394928127528
1789453533825852000,2.341851806640625,1.4707581967383623,8.577363641110063,2.605217569464445
1789453533835790800,2.351790771484375,1.5701532214701175,7.893168494272231,1.928617700061202
1789453533845731000,2.36173095703125,1.5461229420632123,5.759146879565716,0.3649859893143177
1789453533855671000,2.371671142578125,1.05024781553559,3.0553935325473547,-2.8467548737645147
1789453533865610000,2.38160986328125,0.9472814351230859,0.15177081639617682,-6.583161415982246
1789453533875549700,2.3915498046875,1.6470236951828001,-7.97903709795475,-14.380073183548449
1789453533885489000,2.401489013671875,-0.5410592165896668,-9.194640383929015,-12.897496538722514
1789453533895428900,2.411428955078125,-0.5316706625301391,3.3664059396117922,-0.075538348326087
1789453533905367800,2.421367919921875,1.5411001454651354,5.729942996913194,1.088178683066368
1789453533915308000,2.43130810546875,3.1882325617194174,4.7542511676028365,3.424837085792422
1789453533925247500,2.44124755859375,2.8153204555809497,4.377796566551924,3.253071821376681
1789453533935187500,2.4511875,0.5963442832969129,2.6769340214148163,2.212434057164192
1789453533945126400,2.46112646484375,2.8500585914850234,1.7507374598965049,2.1147849993169308
1789453533955066400,2.47106640625,2.20804093677178,-1.563121130876243,1.1222989793330431
1789453533965005300,2.48100537109375,0.5758839713312686,-3.705384211966395,-2.35140004478395
1789453533974945300,2.4909453125,-0.45091582166478034,-6.981559845554829,-2.1193378403156995
1789453533984885500,2.500885498046875,0.6102187871314585,-2.999600625915825,-2.406687632241845
1789453533994824400,2.510824462890625,8.167748820996284,1.2793839764893054,-1.4700883346527813
1789453534004764400,2.520764404296875,-3.8690933034375306,-2.164248118405044,10.09139633142948
1789453534014703600,2.53070361328125,-0.7270777184918522,2.883844541230798,1.5303373439103365
1789453534024643300,2.540643310546875,-0.2849894925355911,-2.4281080214112998,1.167784719222784
1789453534034582300,2.550582275390625,-0.631520956748724,-2.513367845545709,0.5225175611943006
1789453534044522200,2.560522216796875,-1.006684495075792,-2.7535113573998213,-0.7515028424352407
1789453534054461400,2.57046142578125,-0.9271455328062176,-4.274110566627979,-1.86041802406013
1789453534064401400,2.5804013671875,0.14654665200710296,-4.4634643869653345,-1.4771025973290204
1789453534074341400,2.59034130859375,0.8040633430168033,-2.8408596782460807,0.8241121515721083
1789453534084280600,2.600280517578125,0.09027034577280282,-0.9102657096758484,1.950130443689227
1789453534094220300,2.61022021484375,-0.42763066153675316,-0.07429536252766847,1.526046953240037
1789453534104159200,2.6201591796875,-0.26246084986329077,-0.7193447861522436,0.1515641879081726
1789453534114099500,2.630099365234375,0.45163142258822914,-1.8824480695605277,-0.9811340203642844
1789453534124039400,2.640039306640625,1.2721148622691631,-2.25328161585927,-0.06777589763104916
1789453534133978400,2.649978271484375,1.1637266760036349,1.4766516386911273,4.353367058694363
1789453534143918600,2.659918701171875,1.1010367033347488,2.5888869046494363,7.1189715894699095
1789453534153857500,2.669857421875,-1.3035387590587137,2.1235550196193156,7.159373157963156
1789453534163797500,2.679797607421875,-2.68124457809031,3.2181454694241283,6.296750950732827
1789453534173736400,2.689736328125,-1.7001219559028744,7.715278609496354,8.620831026914715
1789453534183676400,2.699676513671875,1.4600956406876444,-3.7257811033070087,-0.7152455341398716
1789453534193616400,2.709616455078125,0.9256069250620901,-10.743896947842837,-11.080608444309235
1789453534203555300,2.719555419921875,-1.8875044761672615,-6.835660843801498,-9.423684117358922
1789453534213495600,2.72949560546875,-3.6059006321683524,-2.7233716552019116,-3.644223933082819
1789453534223434500,2.7394345703125,-3.001076543687284,-0.5520721569806337,-1.163730475395918
1789453534233374500,2.74937451171875,-1.8401422748811542,-0.8281869997955859,-1.3274714233100413
1789453534243313400,2.7593134765625,-0.8033902660608291,-0.22682021216154097,-0.5970347497791052
1789453534253253400,2.76925341796875,-0.41352687899097795,1.225106588987261,0.14225100063979626
1789453534263193300,2.779193359375,-1.2137436295822261,2.016189308269322,-0.40012335366904733
1789453534273132300,2.78913232421875,-1.4065002441003918,2.2461919498592615,-1.2314888373702764
1789453534283072500,2.799072509765625,-1.1919164131775497,1.7235504700243471,-2.176647288990021
1789453534293011500,2.809011474609375,-0.8929717527866363,0.9873511413134634,-3.368657517930865
1789453534302951400,2.818951416015625,-0.22085458175539968,0.40320466081053014,-3.8062428795099255
1789453534312890400,2.828890380859375,0.29501141259521246,0.08897723722234367,-3.6585073099792003
1789453534322830300,2.838830322265625,0.3465527992621064,0.21957973951399326,-3.5676696857124566
1789453534332770300,2.848770263671875,-0.24469576833099124,0.9114635411582886,-3.1749218292474746
1789453534342709200,2.858709228515625,-0.16520605203062294,0.09962664153054356,-1.8639771778464316
1789453534352649500,2.8686494140625,0.6355775386631488,-1.0008560811832548,-1.0378320591419934
1789453534362588400,2.87858837890625,0.600643880186975,-1.594703871489316,-0.4796054711848497
1789453534372528400,2.8885283203125,0.536237751249969,-1.7898980884179472,0.19322949272692203
1789453534382468400,2.89846826171875,-0.2993891892880201,-1.3023162315264343,-0.16097382128834722
1789453534392407300,2.9084072265625,-1.2236556595265864,-0.3872182793885469,-0.6528706187695265
1789453534402347300,2.91834716796875,-0.11798311308473348,0.5327257976062596,1.201349135172367
1789453534412286500,2.928286376953125,2.236414652210474,1.7671740693040192,4.051275624710321
1789453534422226400,2.938226318359375,2.341082648909092,0.8429341217461973,3.648924073597789
1789453534432165400,2.948165283203125,-3.0729718593358992,-0.62037105557248,2.318345916444063
1789453534442105300,2.958105224609375,-2.2478327028036116,-0.19121347672939298,1.5992413687884806
1789453534452045600,2.968045654296875,2.5907351628646254,0.12888970702439545,-0.51595396489501
1789453534461984500,2.977984619140625,1.6214426792025565,-0.5681653597779571,0.1195703822761774
1789453534471924200,2.98792431640625,-0.48182460853904485,-1.4340864624232053,1.2133166363418102
1789453534481863400,2.997863525390625,-0.17615940772145985,-0.6996941831342876,0.5077466930419207
1789453534491803400,3.007803466796875,0.4714966912701726,-0.3404180228341371,-0.17178163102865218
1789453534501742300,3.017742431640625,0.7005117831274866,-0.5765000574029981,-0.2958469866365194
1789453534511682600,3.0276826171875,0.37075288227796555,-0.3780924313858151,-0.5165121832996606
1789453534521622500,3.03762255859375,0.676161477985978,0.29254728750400244,-0.5859878705859184
1789453534531561500,3.0475615234375,-0.05729483562707901,-0.05236110555194318,-0.013891747230291365
1789453534541501400,3.05750146484375,-0.8273565403208136,-0.3879397985961288,0.4477355841934681
1789453534551440400,3.0674404296875,-0.2989502133488655,-1.1242975327391176,0.21283377238512038
1789453534561380400,3.07738037109375,-0.15157354025840758,-1.4150214042082427,-1.076195984327793
1789453534571320300,3.0873203125,-0.5672293941020965,-0.6174923583310097,-1.43596160864532
1789453534581259500,3.097259521484375,-1.1758731870017944,-0.27380108597986397,-1.1508926211327313
1789453534591199500,3.107199462890625,-1.6031427601411938,-0.26659488092809913,-0.2076215906947851
1789453534601138400,3.117138427734375,-2.661347160704434,-1.4573688460722565,0.6088531978666782
1789453534611078400,3.127078369140625,2.3702704572096467,-5.104484701204299,0.47149873709678647
1789453534621017300,3.137017333984375,3.3727667068153617,-3.7378140709280965,0.5962251869618892
1789453534630957300,3.146957275390625,0.12254501417279243,1.664827355159819,-0.8062082460910082
1789453534640897500,3.1568974609375,-2.2845447691291567,2.2948979669697582,-2.8335306505322455
1789453534650836500,3.16683642578125,0.9391583344221115,-1.0979475051477552,-0.5197404976963996
1789453534660776400,3.1767763671875,0.3955111836984753,-2.729908363494277,1.0747305879503488
1789453534670715400,3.18671533203125,-0.8720891237556934,-1.5025585256248712,0.3931231195181608
1789453534680655400,3.1966552734375,-1.3218038990676402,0.3264912042904645,-0.017591770792007445
1789453534690594600,3.206594482421875,-1.5360647816464303,0.8453007047470659,-0.41151626982092854
1789453534700534300,3.2165341796875,-0.9855492064580321,0.40368689136952157,-0.8095078721582889
1789453534710474500,3.226474609375,-1.149405305184424,-0.07614405913427472,-1.0590981345325707
1789453534720413400,3.236413330078125,-0.8229998064160347,-0.8680820800714194,-1.1721809083551167
1789453534730353400,3.246353515625,-0.17786650390028952,-1.4679150822669267,-0.859613088542223
1789453534740292400,3.256292236328125,0.16921937932521103,-0.864350053936243,-0.33696751705408096
1789453534750232600,3.266232666015625,-1.3038450485289097,-0.3522127247199416,-0.41487493259906766
1789453534760172300,3.27617236328125,-1.2308404564641415,0.3716783265598118,-0.8161316742122173
1789453534770111200,3.286111328125,-0.9151379918873309,1.2193414495892823,-0.9547866961866617
1789453534780051500,3.296051513671875,-0.8772714948296546,1.806328998737037,-0.831315214818716
1789453534789990400,3.305990478515625,-0.9904103827536106,1.9751120324715972,-0.6688572924524545
1789453534799930400,3.315930419921875,-1.7708359528124331,2.9885110766246914,-0.1333294430375099
1789453534809869300,3.325869384765625,-1.4753180519998073,2.2406413299947974,-0.4895815062761307
1789453534819809500,3.3358095703125,1.5023425447866319,-0.0503629905372858,-0.14948328998088836
1789453534829749200,3.345749267578125,2.2254212567701934,0.6724827894732356,0.165858670720458
1789453534839688200,3.355688232421875,-2.212563528762758,1.3617460333555935,-2.3975147302269932
1789453534849628400,3.36562841796875,-3.527720537161827,-1.371848032914102,-1.9443132818430662
1789453534859567400,3.3755673828125,-0.23500030374675987,-1.1564984783157706,-0.46810441848337647
1789453534869507300,3.38550732421875,0.7382292271032929,-0.23873422957807777,-0.6914981633275747
1789453534879446500,3.395446533203125,-0.038088323114812375,1.6434887990549205,0.4303448889315128
1789453534889386500,3.405386474609375,-0.9827660054802894,2.6220582296282053,1.1814075863838196
1789453534899326200,3.415326171875,-1.0177870499789714,2.429791444453597,0.2891279075145721
1789453534909265400,3.425265380859375,-0.7128475330874323,2.233620637577772,-0.3733908295661211
1789453534919205400,3.435205322265625,-0.20919190875142812,1.704828233897686,-0.826264945691824
1789453534929144600,3.44514453125,-0.48976709197610613,1.089896592900157,-1.1676865195453165
1789453534939084800,3.455084716796875,-1.07613665535599,0.6968015304327011,-1.2663310181707144
1789453534949024800,3.465024658203125,-0.3029913054332137,0.39835985112786293,-1.2903279798299074
1789453534958963700,3.474963623046875,-0.007122399225831032,1.242796997848153,-0.02601706930994987
1789453534968903400,3.4849033203125,-0.27464170152246953,1.5930127035319803,1.0445353561729191
1789453534978842600,3.494842529296875,-2.1739415371626616,7.273693364626169,0.02011164465844631
1789453534988782600,3.504782470703125,-0.9989271589472889,9.277373612195253,-3.8229999530434604
1789453534998721500,3.514721435546875,1.6496642728194593,5.8326429084092375,-2.65513398527801
1789453535008661800,3.524661865234375,-1.962952223600447,8.518647248247266,-1.8115034787654876
1789453535018601700,3.534601806640625,-2.276153665141761,6.196672035390138,-0.7770394347518682
1789453535028540700,3.544540771484375,-2.5006346207007764,1.7241975357562302,0.5023351893872022
1789453535038480600,3.554480712890625,-3.8789953965097665,-1.4546739078998565,2.0024071588933468
1789453535048419800,3.564419921875,0.9193804517626761,-4.7926837741106745,3.333299204301834
1789453535058359600,3.574359619140625,2.407968319702148,-7.397935245844721,2.2936229785978792
1789453535068299800,3.5842998046875,1.6576079253003,-6.157935769760608,2.1379829195529223
1789453535078238700,3.59423876953125,-0.35014351723045106,-2.1187761147797106,2.9904782850444316
1789453535088178700,3.6041787109375,-0.7230278585791587,3.839715525522828,-0.35734219656288624
1789453535098117600,3.61411767578125,-1.1731140975520014,7.398201787826419,-1.5754250243932009
1789453535108057900,3.624057861328125,-4.401164874918758,7.3070590431332585,-1.4688497327685355
1789453535117996800,3.633996826171875,1.0189566782802342,11.113250484716891,-0.3526332882195711
1789453535127936500,3.6439365234375,1.237619887471199,15.758878488254545,-2.328738131120801
1789453535137876700,3.653876708984375,-1.8873907866597175,8.230716441562771,-3.6877965328276154
1789453535147815700,3.663815673828125,-0.360177419988811,-7.204333412674069,1.2722463796943426
1789453535157755600,3.673755615234375,0.8592012928709387,-13.650289420968294,3.291469064310193
1789453535167694600,3.683694580078125,2.038858236195147,-8.465707685220242,0.9865846869856119
1789453535177634800,3.693634765625,-2.7510151566699146,-5.3261126054197545,-4.420727361261845
1789453535187574500,3.703574462890625,-1.595225411145389,1.1092916137218474,-4.446768980491161
1789453535197513500,3.713513427734375,-1.9629937246546147,2.0318793370932338,2.1578443888425825
1789453535207453700,3.72345361328125,2.954020193479955,6.181994106218219,0.5133177711725234
1789453535217392600,3.733392578125,4.512039909563958,-4.848555883458256,5.978702069160342
1789453535227332600,3.74333251953125,1.3650579343825577,-1.7070236981153488,3.610990941044688
1789453535237272800,3.75327294921875,0.1616425143301487,-3.624221594017744,-5.547004012054205
1789453535247211800,3.763211669921875,-2.920466591185331,-4.965743169990182,-2.0808771767571566
1789453535257151500,3.7731513671875,4.231483138778805,15.061719230425357,-3.788588272614777
1789453535267090400,3.78309033203125,-4.3322304549023505,0.4033271181464195,-5.340604656630754
1789453535277030700,3.79303076171875,1.729930818711221,-8.720490255540609,-0.8428396483957767
1789453535286969600,3.802969482421875,6.558690991592407,19.903540837192534,-2.3523741505131124
1789453535296909600,3.81290966796875,-5.846288571923971,8.175025534000993,-4.464145354966819
1789453535306849800,3.822849853515625,-1.144858309404552,-12.652635642957687,-1.9397081261351703
1789453535316788700,3.832788818359375,6.018145021754503,-13.673490263813733,3.854245570656657
1789453535326728700,3.842728759765625,3.481355676349997,-4.158185847377776,15.243468128716945
1789453535336667600,3.852667724609375,0.3876785903766751,-3.0604174981892105,4.645407346524298
1789453535346607600,3.862607666015625,-3.0616102151051163,-5.104156784424186,-4.840381344830989
1789453535356547600,3.872547607421875,-1.493975990718603,-5.991588438740372,-4.240855655018985
1789453535366486500,3.882486572265625,0.2678760067798197,-7.260330609706044,0.32841946893930435
1789453535376426800,3.8924267578125,0.15246230579167602,-5.052316122549772,1.8574565439060329
1789453535386365700,3.90236572265625,-0.021505729365348815,-4.402379803666472,1.0502139863312243
1789453535396305700,3.9123056640625,-1.0462497588753699,-4.034517382133007,1.2607473728194831
1789453535406245600,3.92224560546875,-1.9915452808782457,-2.8827111532866954,1.0547510452389717
1789453535416184600,3.9321845703125,-0.526844630613178,-5.432850394129753,0.5238786204144358
1789453535426124500,3.94212451171875,0.9879621128186583,-1.1506184803664683,1.5007175739333032
1789453535436063700,3.952063720703125,-0.07525017903447151,-2.2303642661303282,-0.12315262467712164
1789453535446003700,3.962003662109375,-0.342244434543699,-4.41575600259006,-0.6029030572906137
1789453535455943700,3.971943603515625,-0.5571661191187799,-4.0577404368102545,-1.5529539571270345
1789453535465882600,3.981882568359375,-1.1504770260691641,-4.089915444228053,-1.7948457739531993
1789453535475822600,3.991822509765625,-1.1485329062640666,-3.9812165845781564,-1.3122764845266937
1789453535485761500,4.001761474609375,-0.3418766241446137,-2.978002249830961,-1.1152858857005834
1789453535495701500,4.011701416015625,0.25901041714847084,-1.754985472729802,-1.2692542121410368
1789453535505640700,4.021640625,1.3730077243432401,-0.24227613996863365,-0.6319546719908714
1789453535515580700,4.03158056640625,1.642972958487272,0.28610885195434094,-0.8209466732785106
1789453535525520600,4.041520751953125,1.499338102273643,0.5667652837216853,-0.9974956648394465
1789453535535459800,4.0514599609375,0.9971531350120901,0.36110184135735035,-0.8842562391504645
1789453535545399600,4.061399658203125,0.3843707810029387,-0.18823767578899858,-0.7141001634970306
1789453535555338500,4.07133837890625,0.02839431983530521,-0.6105705231785774,-0.5308876223936677
1789453535565278700,4.08127880859375,0.24495441926717756,-1.1530348938584327,-0.6075386081367731
1789453535575218700,4.09121875,0.3527536997288465,-1.4920599279642104,-0.563591622121632
1789453535585157600,4.10115771484375,-0.9795821147471666,0.24073241765797138,0.01634557012319565
1789453535595097600,4.11109765625,-0.44622810223996634,2.4944313821464776,0.3644321548238396
1789453535605036800,4.121036865234375,1.147555001142621,2.820806778037548,0.5091097980886697
1789453535614976800,4.130976806640625,2.0816417313888667,4.119707355901599,0.7824909781560301
1789453535624916500,4.14091650390625,1.9854297206073999,2.6190005956232545,-0.5582470462232828
1789453535634855700,4.150855712890625,0.47542263254225253,-0.41503626064062116,-1.3890449591696261
1789453535644795600,4.160795654296875,-0.7627835303843021,-2.3304952039211986,-0.3605129355534911
1789453535654734600,4.170734619140625,-0.1768658024251461,-0.6359393577128648,1.9853321054518223
1789453535664674800,4.1806748046875,-0.5203486927226185,-0.2015174286007881,2.449821840569377
1789453535674614800,4.19061474609375,-0.34911563548743724,-0.0030523733079433437,1.9161209143206477
1789453535684553700,4.2005537109375,-0.13443360488712786,0.6543249092310667,1.1383321225062013
1789453535694493700,4.21049365234375,-0.07301204471886158,1.0956418585538863,0.6808171948373317
1789453535704432600,4.2204326171875,-0.16225567779242991,1.170612051603198,0.7828577656418084
1789453535714372600,4.23037255859375,-0.14217676635980606,1.0206529608041048,1.098311370024085
1789453535724312600,4.2403125,0.07930383833944797,1.2715782711744308,1.6814415130913256
1789453535734251800,4.250251708984375,0.2986000847369432,1.5753256556719542,2.3652520445257426
1789453535744191700,4.260191650390625,0.6905103213340044,1.7182921111047267,2.456208034475148
1789453535754130700,4.270130615234375,0.8892056782513856,1.6642682599723337,1.9251041389822958
1789453535764070700,4.280070556640625,0.39417876605093477,1.279918229496479,1.3366434485420584
1789453535774010600,4.2900107421875,-0.20899638617932795,0.8012696206450461,1.0674670266881585
1789453535783949600,4.299949462890625,-0.7450672564297914,0.4755412904858589,1.2279755685523153
1789453535793889800,4.309889892578125,-0.9005711218744515,0.3455313472598791,1.4748475118786095
1789453535803828700,4.319828857421875,-0.5359674098759889,0.5156769015192986,1.646130837996304
1789453535813768700,4.329768798828125,-0.05505962392091751,0.3819733644723892,1.4215925992920995
1789453535823708700,4.339708740234375,0.38721184964776034,0.3844002993583679,0.7451990661159157
1789453535833647600,4.349647705078125,0.5857254202574491,0.6560872427284717,-0.08990414280891418
1789453535843587600,4.359587646484375,0.3299199366301298,1.0441717835575341,-0.39315731404870746
1789453535853526500,4.369526611328125,0.3358072411030531,1.4031664235025643,-0.21597996145635842
1789453535863466800,4.379466796875,0.6270797594308852,1.352571377775073,-0.09464724568277597
1789453535873406700,4.38940673828125,0.45045010384917256,1.1703811654567717,0.14023586142510175
1789453535883345700,4.399345703125,0.02625029354393482,0.7617267148077488,0.5454755351945757
1789453535893285600,4.40928564453125,-0.32242753504812716,0.31975276288092136,1.079359124533832
1789453535903224800,4.419224853515625,-0.3599129238337278,-0.058522331595420835,1.7068617855519055
1789453535913164500,4.42916455078125,-0.3317880685895681,-0.25585516798794267,2.2167530894070864
1789453535923104800,4.439104736328125,0.35898762568235393,-0.07523907311856746,2.3756474740728732
1789453535933043700,4.449043701171875,-0.0017184943556785583,-0.2567307817786932,1.7351663812771438
1789453535942983700,4.458983642578125,-0.17627251270711422,-0.29044249724447724,1.0490861513450742
1789453535952922600,4.468922607421875,-0.23838088609576225,0.0933189196884632,0.6421396736577153
1789453535962862800,4.47886279296875,-0.6498135692864656,-0.1196621522128582,0.07853285396695137
1789453535972802600,4.488802490234375,-0.7232178281933069,-0.5705068083375692,-0.07056055991351604
1789453535982741500,4.498741455078125,-0.1217833821505308,-0.7941974903017281,0.21051731213629243
1789453535992681700,4.508681640625,-0.2552963650614023,-0.3350233972489834,0.16989304080307482
1789453536002620700,4.51862060546875,0.40198330232203006,0.7371569216966629,-0.03939735988676548
1789453536012560600,4.528560546875,0.8784224184304475,1.3184814766466617,-0.46603871812522407
1789453536022500900,4.5385009765625,0.2526227619379759,0.41877836977839467,-1.0768372048407793
1789453536032439800,4.548439697265625,0.2814800231099129,-0.28112697188854213,-0.9191969118893146
1789453536042379500,4.558379638671875,0.7634481317728757,-0.6253150878459215,-0.35419629975259304
1789453536052318500,4.568318359375,-0.2803326066404581,-0.8146510802656411,-0.11104220790565013
1789453536062258700,4.5782587890625,0.14306056345701218,-0.7032575747042894,-0.21066227356493472
1789453536072198700,4.58819873046875,0.9454635720461606,-0.7101940959692001,-0.30159225229024883
1789453536082137600,4.5981376953125,-0.6026064124315976,-1.0107692801713943,-0.680344901150465
1789453536092077800,4.608077880859375,-0.6235369722574949,-0.919337781664729,-0.9229518805086612
1789453536102017500,4.618017578125,-0.14873334839642047,-1.0170894231036305,-0.6234592308461666
1789453536111956500,4.62795654296875,0.3308341288655996,-0.8735770242258906,-0.799992440316081
1789453536121896700,4.637896728515625,0.3149450703382492,-0.4250359688684344,-1.5429963344752788
1789453536131835600,4.647835693359375,0.7800017916887998,0.028270108933746815,-1.9082997191756963
1789453536141775600,4.657775634765625,1.4336960018008946,0.5435705783560871,-1.4974936434507369
1789453536151715800,4.6677158203125,1.4016221166700125,0.4132663283586502,-0.5749994435817003
1789453536161654800,4.67765478515625,-0.6146048932611942,0.08177695045471191,-0.3645885144293308
1789453536171594500,4.687594482421875,-0.06857493905425072,-0.02580985630005598,0.3766635676264763
1789453536181533700,4.69753369140625,0.5013678056597709,-0.9940224357709287,1.12402039629817
1789453536191473700,4.7074736328125,0.6530564967304467,-1.2616174336522816,0.6470049416065216
1789453536201413600,4.71741357421875,1.320133335506916,-0.8489160457000136,-0.9790864401847124
1789453536211352600,4.7273525390625,1.9277163673073052,-0.1509524857506156,-2.3183044153898953
1789453536221292800,4.737292724609375,1.9513579396575689,0.9718921447664499,-2.8847809452980755
1789453536231231700,4.747231689453125,2.040475316002965,1.0888646195039153,-2.66817057698369
1789453536241171700,4.757171630859375,0.021824293795228003,0.4244163756653666,-2.563366386684775
1789453536251111700,4.767111572265625,-0.6340957756727934,-0.14094897813051938,-1.90441323313117
1789453536261050600,4.777050537109375,0.05577683227956295,-0.7028533778175711,-1.6251479634612798
1789453536270990600,4.786990478515625,0.19370003284811974,-0.9527411618337035,-1.3898925159096718
1789453536280929500,4.796929443359375,0.865983792617917,-0.8517959850504994,-1.0721113453626632
1789453536290869800,4.806869873046875,0.8252560609102249,-0.6345572557047009,-0.6027578036010265
1789453536300809700,4.816809814453125,-0.5135860667198896,-0.5213678066372871,-0.6592395692795515
1789453536310748700,4.826748779296875,-0.7550859616190194,-0.5934387711137533,-0.47476329185068605
1789453536320688600,4.836688720703125,-0.342886970230937,-0.457829108184576,-0.05225567241609096
1789453536330628600,4.846628662109375,-0.679319065234065,-0.4081935551390052,0.3141992204070091
1789453536340567600,4.856567626953125,-0.9732008892774582,-0.3004845833092928,0.398695366692543
1789453536350507800,4.8665078125,-0.18368541931211949,-0.4207102146238088,0.5523889678448438
1789453536360446700,4.87644677734375,0.4930997435301542,-0.44993981623947615,-0.3086749040275812
1789453536370386700,4.88638671875,0.5596721105903387,-0.23500702574849128,-1.6121359216749667
1789453536380326700,4.89632666015625,0.5120090266615152,0.06751607765108346,-2.6474323248595
1789453536390265600,4.906265625,0.7980190944164991,0.38750323380976914,-3.2484979375898835
1789453536400205600,4.91620556640625,1.0910662212014197,0.5460413523837924,-2.980940056848526
1789453536410144500,4.92614453125,0.8839648549884557,0.37901743727624415,-2.573609548279643
1789453536420084700,4.936084716796875,1.0696487546414137,0.28109862257689233,-2.4333792398124934
1789453536430024700,4.946024658203125,1.0827093117445707,0.277330209954083,-2.2646137417346237
1789453536439963600,4.955963623046875,0.5649199481159448,0.21408172661960123,-2.0887959870576855
1789453536449903600,4.965903564453125,0.5576818135559558,0.1774234363079071,-1.794051993227005
1789453536459843600,4.975843505859375,0.8414175066381693,0.05573650026917457,-1.5520073239266872
1789453536469782500,4.985782470703125,0.12974690837562083,-0.19552374114394186,-1.5413327851772307
1789453536479722800,4.99572265625,-0.46452889808416364,-0.2185539035975933,-1.2990128060668706
1789453536489661700,5.00566162109375,-0.45018122377991676,-0.1179015722811222,-1.0812754795491695
1789453536499601700,5.0156015625,-0.7681225533246994,0.16428046161830423,-0.8534627492189407
1789453536509541600,5.025541748046875,-0.8565992936789989,0.5692185220927,-0.21561375849246978
1789453536519480800,5.035480712890625,-0.8866922341257333,0.8946551758289336,0.5985784720897674
1789453536529420500,5.045420654296875,-1.3285901982069015,1.0702046349585055,1.3727566721916198
1789453536539360800,5.05536083984375,-1.111722640261054,1.0643658458024263,1.5551678337842225
1789453536549299700,5.0652998046875,-0.8589870655983686,1.0724234800517558,1.384759829196334
1789453536559239700,5.07523974609375,-0.7446165900528431,1.1113321796387434,0.9749044783249496
1789453536569178600,5.0851787109375,-0.3638075931847095,1.2401064435899256,1.0403671305775641
1789453536579118800,5.095118896484375,-0.07508125220835209,1.2672037093520163,1.2416720854714511
1789453536589058600,5.10505859375,-0.12662205435335636,1.2648036624729633,1.1515896634861826
1789453536598997500,5.11499755859375,-0.06644260320067405,1.261997372880578,0.8556371706485748
1789453536608937700,5.124937744140625,0.19365970083773135,1.531559579181671,0.6273793268993496
1789453536618876700,5.134876708984375,0.10075929882228374,1.6385831990957258,0.22542145127952098
1789453536628816600,5.144816650390625,-0.5320294859051704,1.4609008195906876,-0.12231442028731107
1789453536638756900,5.1547568359375,-0.8932792113006115,1.2765028680950403,0.0670876231059432
1789453536648695800,5.16469580078125,-0.6077858608961105,1.0898223586201667,0.5332283403009176
1789453536658635500,5.174635498046875,-0.6626075844079256,0.6796084035694598,0.7036506656751036
1789453536668575700,5.18457568359375,-1.0319465082347392,0.25688918721079823,0.5330319409459829
1789453536678514700,5.1945146484375,-0.7215639235064387,0.011601590466499327,0.340372941583395
1789453536688454700,5.20445458984375,-0.4939309336572885,-0.2368406709164381,-0.23586101222932337
1789453536698393600,5.2143935546875,-0.7929819770321249,-0.30001462770998477,-0.5043319161623716
1789453536708333800,5.224333740234375,-0.9698281979739666,-0.07434183201789855,-0.46176469406783577
1789453536718273500,5.2342734375,-1.2661597532570361,0.08588672386109829,-0.16963789699822662
1789453536728212500,5.24421240234375,-1.8138161396220325,0.2882265747606754,0.48878947911560533
1789453536738152700,5.254152587890625,-1.6096020192831755,0.3748199855864048,1.0869190383940934
1789453536748091600,5.264091552734375,-0.5764294763848186,0.388572032085061,1.3463272226884961
1789453536758031600,5.274031494140625,-0.06243102947175502,0.264041981574893,0.8204094976618885
1789453536767971800,5.283971923828125,-0.5330357403382658,-0.0017880524605512619,0.00029255320578813553
1789453536777910800,5.293910888671875,-0.880200826279819,-0.19857728349566459,-0.23831483512222765
1789453536787850500,5.3038505859375,-1.4695646030396223,-0.3683212712168693,-0.1085819552719593
1789453536797790700,5.313790771484375,-1.3558920466303825,-0.1500052680283785,1.0139902880445122
1789453536807729700,5.323729736328125,-0.6812669844314455,-0.21027298198640346,1.4862614708185196
1789453536817669600,5.333669677734375,-0.7270148823887109,-0.3312637524545193,1.5362518286511302
1789453536827608600,5.343608642578125,-1.0698708729594946,-0.4884411040693521,0.964663070295751
1789453536837548800,5.353548828125,-1.4305781620413065,-0.6259153918266296,0.7407511467963457
1789453536847488800,5.36348876953125,-0.5477183456853032,-0.7325935593038797,0.6133703830301761
1789453536857427700,5.373427734375,-0.09418284304141998,-0.5509522130399942,0.6247469325691462
1789453536867367700,5.38336767578125,-0.327034444321692,-0.5454202978760003,-0.16526421195864677
1789453536877307600,5.3933076171875,-1.0103870028555393,-0.559975477451086,-0.5201496630191803
1789453536887246600,5.40324658203125,-0.8210971876651049,-0.6924690541863441,-0.03920329861938953
1789453536897186800,5.413186767578125,-1.1497434510976074,-0.7450567350357771,0.8446171794623136
1789453536907125800,5.423125732421875,-1.3594415558055042,-0.8350842119634151,0.8690028481781482
1789453536917065700,5.433065673828125,-1.3230419164299965,-0.7267062548309564,0.4131923863396048
1789453536927005700,5.443005615234375,-0.9921753465995192,-0.3324035701394081,0.5763938205495477
1789453536936944600,5.452944580078125,-0.9476806635737418,-0.15881518194973468,0.9157242673426866
1789453536946884600,5.462884521484375,-0.5742535936504602,0.14758417836129664,0.8081506123304366
1789453536956824800,5.472824951171875,-0.46940673325359816,0.23386077832281588,0.46126083619892594
1789453536966763800,5.482763671875,-0.63495063893646,-0.008872457763552666,0.34355303292423484
1789453536976703700,5.492703857421875,-0.835235603132844,-0.31556875519454475,0.623730741263926
1789453536986643000,5.502642822265625,-0.8601523099854588,-0.2550666479587555,0.9289946678042411
1789453536996582700,5.512582763671875,-0.8680702435031533,0.14753624756634234,1.1535057262405752
1789453537006522600,5.522522705078125,-0.7685644518733025,0.015837620601058006,1.3408657424122095
1789453537016461800,5.5324619140625,-0.4988306883975863,-0.06655190879404545,1.08285953387022
1789453537026401800,5.54240185546875,-0.4442047797188163,-0.010551789152622223,0.40652532966583965
1789453537036341800,5.552341796875,-0.4755804534524679,-0.09662672906219959,-0.14932517680972815
1789453537046280700,5.56228076171875,-0.4796189151883125,-0.33122166687846183,-0.26828590275496245
1789453537056220700,5.572220703125,-0.21282383551299572,-0.43259880533814427,-0.2131429844647646
1789453537066159600,5.58215966796875,0.1756979276895523,-0.397608155977726,-0.4054641301751137
1789453537076099600,5.592099609375,0.28751462709903713,-0.42994566048085686,-0.3810921977236867
1789453537086039800,5.602039794921875,0.5893927105933428,-0.29826690725982186,-0.23748802890926599
1789453537095978800,5.611978759765625,0.6643260787636042,-0.3355564812123775,-0.3035714434087276
1789453537105918700,5.621918701171875,0.6194041102364659,-0.21522855856716633,-0.2709963307574391
1789453537115858700,5.631858642578125,0.8529378485620022,-0.2897206127107143,-0.5321837996840477
1789453537125797600,5.641797607421875,0.6682178255051374,-0.36180034501552577,-0.5882099305495619
1789453537135737600,5.651737548828125,0.3302653890669346,-0.4298877928137779,-0.5726321299284696
1789453537145676800,5.6616767578125,-0.20499708741009234,-0.5274678770780563,-0.6154582952201366
1789453537155616800,5.67161669921875,-0.4632072940915823,-0.5657727655529976,-0.3848243699893355
1789453537165556700,5.681556640625,-0.337222953119874,-0.41710955978333947,-0.10898089146167039
1789453537175495700,5.69149560546875,-0.03150514533221722,-0.2812064668655395,-0.18517156621664763
1789453537185435600,5.701435546875,0.10074497803598642,-0.25148294425308704,-0.3890808583900332
1789453537195375600,5.711375732421875,0.10306991385221481,-0.2707850260943174,-0.6353489906042814
1789453537205314600,5.721314453125,-0.20367899054884908,-0.22392332167625426,-0.8838342143461108
1789453537215254800,5.7312548828125,-0.8891308594495058,-0.09334931482672691,-0.5197638785719871
1789453537225193700,5.74119384765625,-0.845880915787816,0.02387888823747635,0.0859083511710167
1789453537235133700,5.7511337890625,-0.47122459633052344,-0.022932547298073768,0.38692338809520005
1789453537245074000,5.761073974609375,-0.4685875258252024,-0.30623627870380876,0.46638972351998087
1789453537255012900,5.771012939453125,-0.6259487095743418,-0.4697761510878801,0.4879162034124136
1789453537264952600,5.78095263671875,-0.7388479435235261,-0.419971378955245,0.7437430220887065
1789453537274892800,5.790892822265625,-0.520717233774066,-0.27270985667705533,0.9941343717128038
1789453537284831700,5.800831787109375,-0.13406126444339753,-0.16167992373108864,0.9925967868819833
1789453537294771700,5.810771728515625,0.2576201318338513,-0.02953822917342186,0.8697843539446591
1789453537304712000,5.8207119140625,-0.02415361352562904,-0.08045826907157898,0.7228025253906846
1789453537314651000,5.83065087890625,-0.5406321868166327,-0.0958592518210411,0.6945777169033884
1789453537324590600,5.840590576171875,-0.7907368284538387,-0.3721002052336931,0.5964198327511548
1789453537334529500,5.850529541015625,-1.1318465598791838,-0.6506675557672977,0.36047348032593723
1789453537344469800,5.8604697265625,-1.036357894936204,-0.625545389470458,0.19704408257901668
1789453537354409700,5.87040966796875,-0.8659022518143057,-0.5122457580268382,0.11807049910724163
1789453537364348700,5.8803486328125,-0.3569841769054532,-0.461057422581315,0.01760813740491867
1789453537374289000,5.890288818359375,0.35001053850054736,0.02570259653329849,0.07542144394814967
1789453537384228600,5.900228515625,0.33976094716489313,0.21973346877098082,0.030206922215223312
1789453537394167600,5.91016748046875,-0.05526596014797687,0.18966098659038544,-0.11296294683516026
1789453537404107800,5.920107666015625,-0.21080723499357698,0.3618032676249742,-0.0012888707667589186
1789453537414046700,5.930046630859375,-0.3776812202364206,0.4355599932312965,0.22327976307570932
1789453537423986700,5.939986572265625,-0.5296563270330429,0.4362999979436397,0.43846389797925944
1789453537433927000,5.949927001953125,-0.38744799649119377,0.2665513340473175,0.5636719938814639
1789453537443865900,5.959865966796875,-0.04595160383582115,0.05243219802677631,0.6790969469159841
1789453537453805600,5.9698056640625,-0.290415024715662,0.011010054314136505,0.4927198043018579
1789453537463745800,5.979745849609375,0.2855576478123665,0.12469897733628749,0.4531500104576349
1789453537473684700,5.989684814453125,0.1430465349316597,0.19846856242418287,0.6157043789356946
1789453537483624700,5.999624755859375,0.06392565194368362,0.24907822119891643,0.6091518885523081
1789453537493565000,6.00956494140625,0.1337701725423336,0.23803251104950904,0.6155009653180837
1789453537503504000,6.01950390625,0.04811199674010277,0.035897827333211896,0.6949947732716798
1789453537513443600,6.029443603515625,-0.1445844120234251,-0.12909750455617905,0.8631716578066349
1789453537523382800,6.0393828125,-0.2614233235090971,-0.09580138415396212,0.8868062158942223
1789453537533322800,6.04932275390625,-0.19111060087680815,0.13100304591655731,0.6821569190084934
1789453537543262700,6.0592626953125,0.12444471031427383,0.0249789584338665,0.7530489028334617
1789453537553201700,6.06920166015625,0.23472119454443455,-0.06695230628848076,0.525648260435462
1789453537563142000,6.079141845703125,0.3265899154245853,-0.2401636778593063,0.1840729573249817
1789453537573081900,6.089081787109375,0.26600772868990896,-0.4678250170201063,-0.013887071055173873
1789453537583020800,6.099020751953125,0.1501660115480423,-0.7510153511792421,0.022101357170939445
1789453537592960800,6.108960693359375,0.020877368333935737,-0.7982061414211988,0.07484042918980122
1789453537602899700,6.118899658203125,-0.01996434514224529,-1.0279092155426741,0.5754758289217948
1789453537612839700,6.128839599609375,0.5790069256573915,-0.9484232986345886,0.8412678690344094
1789453537622780000,6.13877978515625,0.13061609242558478,-1.1743301953434944,0.7794751374661922
1789453537632718800,6.14871875,-0.02510579968392849,-0.9104542179852724,0.01671323439180851
1789453537642658800,6.158658935546875,0.7935235365629195,-0.7230942018136381,-1.0379863729208707
1789453537652598500,6.1685986328125,1.9922896695047616,-0.23239742777198552,-1.3525000661045312
1789453537662537700,6.178537841796875,2.57870599463582,0.012255670461058616,-1.747525804373622
1789453537672477700,6.188477783203125,2.4340257210224867,0.1736734361246228,-1.1281214018762111
1789453537682417700,6.198417724609375,0.9779314249306916,0.056223407003283495,-0.4986082778185606
1789453537692356900,6.20835693359375,1.0052221674382686,-0.10504589010030031,0.118472650167346
1789453537702296800,6.218296875,0.9527245029598473,-0.4135544976502657,0.6566676729649304
1789453537712235800,6.22823583984375,0.8052829479396343,-0.39968993068784475,1.028656819039583
1789453537722175700,6.23817578125,1.748588465169072,-0.6842293413683772,0.7054758352756499
1789453537732115700,6.24811572265625,1.1850649398475885,-0.2763794851005077,-0.4569418039560318
1789453537742054700,6.2580546875,2.719432562187314,0.4132771420136094,-1.3381903857231139
1789453537751995000,6.267994873046875,2.617719908162951,0.6271575008422136,-2.0796143172144888
1789453537761934800,6.277934814453125,2.10406252977252,0.7871788437113165,-1.8990806399315594
1789453537771873800,6.287873779296875,0.7247510291099548,0.3840940098881721,-1.2054086396962405
1789453537781813500,6.2978134765625,-0.06180559104979038,0.19394582430273294,-0.9830191034585237
1789453537791753700,6.307753662109375,1.3001245667010546,0.10023264459967612,-0.8815221380114555
1789453537801692700,6.317692626953125,1.2100029817491769,-0.15318535936921834,-0.9790934544473886
1789453537811632600,6.327632568359375,0.8173094858199358,-0.08057780379801988,-1.046701009774208
1789453537821571800,6.33757177734375,1.0633861871153116,-0.21701398067921399,-0.38074060780704017
1789453537831511800,6.34751171875,0.4794318681836128,-0.5043269477263093,-0.05870587146878242
1789453537841451500,6.357451416015625,0.2815671168714762,-0.4738642971843481,-0.2708738734215498
1789453537851390700,6.367390625,-0.06900105551183223,-0.4086211329013109,-0.5494347942143678
1789453537861330700,6.37733056640625,0.11618600053489207,-0.2856681224495172,-0.304296250551939
1789453537871270700,6.387270751953125,-0.10743921497762203,-0.060765726608037945,-0.6089671796351671
1789453537881209900,6.3972099609375,-0.059870823594927784,0.24883330652713775,-0.6789537390530109
1789453537891149800,6.40714990234375,0.49484161876142024,0.24042115975171327,-0.568327126210928
1789453537901089800,6.41708984375,0.4699631980925798,0.06837181769758463,-1.0638947211593388
1789453537911028700,6.42702880859375,0.5307207413941621,0.0985150270268321,-1.7102338923335074
1789453537920968700,6.43696875,0.6935872445613145,0.05487608404755592,-2.0754449225753544
1789453537930907100,6.4469072265625,0.42588732500076293,0.14828414332419634,-1.9301514854997395
1789453537940847000,6.45684716796875,0.5587830527961254,0.2411667174220085,-1.4674813670247793
1789453537950787000,6.466787109375,0.8687439049810171,-0.012732932583987711,-1.3533645739793776
1789453537960726000,6.47672607421875,0.4897089320480823,-0.11503653823882341,-1.6719108836799859
1789453537970666200,6.486666259765625,0.2378811198800802,-0.128465344132483,-1.8797405641674994
1789453537980606000,6.49660595703125,0.3264385242551565,-0.04698971471190452,-1.5464637183248995
1789453537990545200,6.506545166015625,0.26012685395777224,-0.14922493130564687,-1.0992618026167154
1789453538000485000,6.516485107421875,0.2936819175571203,-0.25398352889716624,-0.7187064882487059
1789453538010425000,6.526425048828125,0.0310918883562088,-0.036519174101948736,-0.6352186422228813
1789453538020364000,6.536364013671875,-0.30481179885864257,-0.039324294650554655,-0.7137070725262165
1789453538030304300,6.54630419921875,-0.14752689521610737,0.30260639776885506,-0.5547521898448466
1789453538040243200,6.5562431640625,0.06115735627412796,0.7774766571253537,-0.3740507547795772
1789453538050183200,6.56618310546875,-0.321347923117876,1.1794903545856474,-0.3318108649432659
1789453538060123100,6.576123046875,-0.022988076877593994,1.4932196193933487,-0.013688333612680435
1789453538070062000,6.58606201171875,0.45244624610245227,1.5751836168527602,0.40776773094236846
1789453538080002000,6.596001953125,-0.2877817536026239,1.5097078128576278,0.7613210566163062
1789453538089942300,6.6059423828125,-0.6251397312790155,1.313083416995406,1.2530845831066368
1789453538099881200,6.615881103515625,0.05911328322589397,1.0524252326399088,1.4283192771986126
1789453538109821200,6.6258212890625,-0.1367021343410015,0.730312170368433,0.8857406324893236
1789453538119761200,6.63576123046875,-0.832020148217678,0.6629699879795312,0.4735363804042339
1789453538129700000,6.6457001953125,-0.5296078117161989,0.8606336637616157,0.47447015412300825
1789453538139640000,6.65564013671875,-0.08496084118783473,0.9658195468544959,0.45047962220460175
1789453538149579000,6.6655791015625,-0.2505827805429697,0.8373556640267371,0.48767450361102815
1789453538159519200,6.675519287109375,-0.41246611789166926,0.6243097101956605,0.4524161432251334
1789453538169459200,6.685459228515625,-0.7709644987523555,0.2989543050020933,0.34101591566205025
1789453538179398100,6.695398193359375,-0.6278782163321972,0.11731705039143561,0.3369698551416397
1789453538189338000,6.705338134765625,0.12763210817873477,0.06067278762757778,0.2160305225998163
1789453538199278000,6.715278076171875,0.01872574325799942,-0.192877026027441,-0.22730098141580818
1789453538209217000,6.725217041015625,-0.7229980479627848,-0.3308049027711153,-0.46611470597088334
1789453538219157200,6.7351572265625,-0.9436901326328515,-0.34017303509712216,-0.36979017472565173
1789453538229097200,6.74509716796875,-0.7644418189853429,-0.32996903646886344,-0.07521569224298
1789453538239036200,6.7550361328125,-0.936279564115405,-0.33902854123711584,0.34379064107239243
1789453538248976100,6.76497607421875,-0.9766279411166906,-0.5648819541931152,0.5579661834552884
1789453538258915000,6.7749150390625,-0.5862000520318746,-0.7073182482719421,0.3719838853776455
1789453538268855000,6.78485498046875,-0.5428358343407511,-0.7686796026855707,-0.12731734314113854
1789453538278795000,6.794794921875,-0.9873083250850438,-0.8095107947677374,-0.7387576348915695
1789453538288734200,6.804734130859375,-0.9581173019140958,-0.6977315047591924,-0.7561296254530548
1789453538298674200,6.814674072265625,-0.6757569888383149,-0.5670651434510946,-0.5134197702422738
1789453538308614000,6.82461376953125,-0.5372328997671604,-0.5262134931027889,-0.03220803290456533
1789453538318553000,6.834552978515625,-0.681840692666173,-0.6567050823658704,0.2177168682515621
1789453538328493000,6.8444931640625,-0.8759054671734571,-0.9604805239140987,0.1529068346887827
1789453538338433000,6.85443310546875,-0.7368103002160787,-1.0772504618167877,0.4248208648130297
1789453538348372200,6.864372314453125,-0.4371469701617956,-1.0020505516648293,0.651342094027996
1789453538358312200,6.874312255859375,-0.06824614549130201,-0.7455471489012241,0.4725619824141264
1789453538368252200,6.884252197265625,-0.20721067180633543,-0.4357219057947397,0.08917962792664766
1789453538378191000,6.894191162109375,-0.4418085322320461,-0.34051790301203727,-0.37020898465961216
1789453538388131000,6.904131103515625,-0.7557929408445954,-0.15878303324580192,-0.026841829696297646
1789453538398070000,6.914070068359375,-1.1511834207728504,-0.2111591171711683,0.3806935537949204
1789453538408010000,6.924010009765625,-1.2816194804564118,-0.2865010661423206,0.8618351485058665
1789453538417950200,6.9339501953125,-0.908953458033502,-0.09762626149356364,1.1484957891240715
1789453538427889200,6.94388916015625,-0.8399252222537994,0.06193418586552143,0.8144549731716513
1789453538437829000,6.9538291015625,-1.0134659719094634,-0.03934475291669368,0.4881286771193146
1789453538447769000,6.96376904296875,-1.0781871581450104,-0.29905308920145035,0.7572153748631477
1789453538457708000,6.9737080078125,-0.9737292970657349,-0.5900853690326213,0.9928905091315507
1789453538467648000,6.98364794921875,-0.9775552850946784,-0.7580962493509054,0.9595838673353194
1789453538477588200,6.993588134765625,-1.162946923802793,-0.7363444362699985,1.1634686095893383
1789453538487527200,7.003527099609375,-1.1293854304626583,-0.48159343013167377,0.9468760691925883
1789453538497467100,7.013467041015625,-1.413783094584942,-0.36370705541968346,0.9493541497439145
1789453538507406000,7.023406005859375,-1.385928580714762,-0.2857628149956465,0.9849670226559042
1789453538517346000,7.033345947265625,-1.1820607895955442,-0.17314648964107035,0.6283841200277209
1789453538527286000,7.0432861328125,-1.0295458768337964,-0.23087737859785556,0.35217122366577386
1789453538537225000,7.053224853515625,-0.7573176661938429,-0.30471126109361646,0.27612404903471466
1789453538547165200,7.063165283203125,-0.30225451559126376,-0.42684126472473144,0.17711451648920773
1789453538557105200,7.073105224609375,-0.11552607532143593,-0.5602490336954593,0.14332301378548146
1789453538567044000,7.083044189453125,-0.089693714928627,-0.4859592241257429,0.0065723641276359554
1789453538576984000,7.092984130859375,0.0722939595773816,-0.3618476912885904,-0.2833268200203776
1789453538586924000,7.102924072265625,0.10767156242877245,-0.35086978567838667,-0.6764663061514496
1789453538596863000,7.112863037109375,-0.07626724712252617,-0.39848844594359395,-1.1760212171703577
1789453538606803200,7.12280322265625,0.104503746047616,-0.3691016079396009,-1.6152067074224352
1789453538616743200,7.1327431640625,0.4404629628419876,-0.25434943960011,-1.6831494860529899
1789453538626682000,7.14268212890625,0.504002830338478,-0.060825932362675666,-1.5825070916086434
1789453538636622000,7.1526220703125,0.3014116350263357,-0.13759703735411166,-1.4974173633441328
1789453538646561000,7.16256103515625,0.4531920960336923,-0.2866314145237207,-1.4357970657333732
1789453538656501000,7.1725009765625,0.6204127027571201,-0.3887222542107105,-1.4955059767648577
1789453538666441200,7.182441162109375,0.5909726732611655,-0.38702363359928127,-1.5142399033293128
1789453538676380200,7.192380126953125,0.24480039774924514,-0.3451017236709594,-1.1444058894619344
1789453538686320000,7.202320068359375,-0.06147533618211746,-0.1699602608203888,-0.4910501175239682
1789453538696260000,7.212260009765625,-0.3314361864119768,0.2403817045241594,0.02854249613434076
1789453538706199300,7.22219921875,-0.6856903538316488,0.4692103338986635,0.6241197405815124
1789453538716139000,7.232138916015625,-1.004385716614127,0.26726445075273514,1.0586956912115215
1789453538726079200,7.242079345703125,-1.353552497766912,-0.1726040533274412,1.0456912482097744
1789453538736018200,7.25201806640625,-1.4775310518741607,-0.4646563238561153,1.0062392355263232
1789453538745958100,7.261958251953125,-1.3369462308809161,-0.3634031040370464,1.0194821634590625
1789453538755897000,7.27189697265625,-1.0852537355303764,0.016215806263685226,1.0334268099203705
1789453538765837300,7.28183740234375,-0.6746487353354692,0.45003918496072287,1.1792270274743437
1789453538775777000,7.291777099609375,-0.40785716279149054,0.6315285555332899,1.1436933572784065
1789453538785716000,7.301716064453125,-0.4706970653250813,0.5702887816727161,0.860745015181601
1789453538795656200,7.31165625,-0.8257160796374082,0.2853279307097196,0.6549293048650026
1789453538805596200,7.32159619140625,-1.2314119727417825,-0.0022609306693077086,0.9916647667288779
1789453538815535000,7.33153515625,-1.5332757354497908,-0.2601286075234413,1.6505492389604448
1789453538825475300,7.341475341796875,-1.4953870265603064,-0.4782616553604603,2.077712282985449
1789453538835415000,7.3514150390625,-0.9518091416805982,-0.6084235742777586,2.0091759223759174
1789453538845354000,7.36135400390625,-0.16066723955720663,-0.5750286696761846,1.3071873446941376
1789453538855294200,7.371294189453125,0.2691869432479143,-0.414866749292612,0.16063889024555683
1789453538865234200,7.381234130859375,0.21143208889365195,-0.041001872473955155,-0.5368330867946147
1789453538875173000,7.391173095703125,-0.10334113200902938,0.09745265849232673,-0.9061147274762391
1789453538885113000,7.401113037109375,-0.22078619269430635,-0.06898819603025913,-0.9751450090825557
1789453538895053000,7.411052978515625,-0.21602409285902976,-0.11043722774982452,-0.6734259155422448
1789453538904992000,7.420991943359375,0.11797229942977427,-0.16354864021241663,-0.5173907196998596
1789453538914932000,7.430931884765625,0.014740473014116287,-0.15398878470659255,0.17497721219956874
1789453538924871200,7.44087109375,-0.003573182311654091,-0.16888941671848295,0.511787492865324
1789453538934811100,7.45081103515625,-0.4216004414618015,-0.5095546192467212,0.5857669213116169
1789453538944751000,7.460751220703125,-0.5057850375801325,-0.6354740782886743,0.6556967821061611
1789453538954690000,7.47068994140625,-0.0754553462177515,-0.7078454870164393,0.29129648372530936
1789453538964630000,7.480630126953125,-0.08284954812228679,-0.42593642483949656,0.09245441181361674
1789453538974570000,7.490570068359375,0.2195733097732067,0.1312175654500723,-0.12954466380178928
1789453538984509000,7.500509033203125,-0.10653203700482845,0.134741063401103,-0.270263632568717
1789453538994449200,7.51044921875,0.07951835787296295,0.2026508165448904,-0.20709785908162592
1789453539004389000,7.52038916015625,0.18883447263836858,0.13592472022771834,-0.011415712505578993
1789453539014328000,7.530328125,0.0601402881860733,-0.20601006384491918,0.647703445264697
1789453539024268000,7.54026806640625,-0.005062544086575508,-0.3777683139979839,0.4678419681549072
1789453539034208000,7.5502080078125,-0.20335458090007305,-0.4292383889943361,0.09158873489499092
1789453539044147000,7.56014697265625,-0.2957932106226682,-0.20539193194657562,-0.08631459388434887
1789453539054087000,7.5700869140625,0.1596416959017515,-0.1417924432173371,-0.28663901330828667
1789453539064027100,7.580027099609375,0.4776438157230615,-0.012878478534519672,-0.6888304054230451
1789453539073966000,7.589966064453125,0.6617723026275635,-0.31128859365731476,-0.6998539037406444
1789453539083906000,7.599906005859375,0.46391748818755146,-0.4946402509704232,-0.9785954417973757
1789453539093846000,7.609845947265625,0.2756792278766632,-0.44739656149744983,-1.0613649104207754
1789453539103785000,7.619784912109375,0.202972303584218,-0.5989712707996369,-1.3400462427228688
1789453539113725000,7.629724853515625,0.38259061958789825,-0.6674763594880699,-1.9415134219914674
1789453539123664100,7.6396640625,1.1926274840563535,-0.6190136496141553,-1.7924691079497337
1789453539133604000,7.64960400390625,1.7978087154120206,-0.8673869374141097,-1.4754805490851401
1789453539143544000,7.6595439453125,1.1810142031520605,-0.836990337845683,-1.0547826094210146
1789453539153483000,7.66948291015625,0.770469408711791,-0.7475576119408011,-0.6918056218415498
1789453539163423000,7.679423095703125,0.9998311220496893,-0.9296376418828963,-0.4257178136527538
1789453539173363000,7.689363037109375,1.1536562406271695,-1.185341710962355,-0.3902835121780634
1789453539183302000,7.699302001953125,0.6728641900062561,-0.9695116793707013,-0.08790215533673763
1789453539193242000,7.7092421875,0.8298498184412717,-0.7637155505374074,-0.37010523202419277
1789453539203182000,7.71918212890625,1.4919342557579278,-0.5765113094493747,-0.9677601595282554
1789453539213121000,7.72912109375,2.8043355357080695,0.03777648068666458,-1.7690332873046397
1789453539223061000,7.73906103515625,2.370122280910611,0.3640779345586896,-2.198813528090715
1789453539233001000,7.7490009765625,0.8170990579396485,0.44586014571040866,-2.4274644628107547
1789453539242940000,7.75893994140625,-0.30084406427145005,0.2128089302048087,-2.6222330016732216
1789453539252880100,7.768880126953125,-0.11935118656754493,0.07881342447400093,-2.2222481796920297
1789453539262820000,7.778820068359375,0.8035989403754472,0.031739538609981535,-1.111989182242751
1789453539272759000,7.788759033203125,0.4148778552085161,-0.0007069792255759239,-0.7200064649313688
1789453539282699000,7.798698974609375,0.0885614960283041,-0.09470306752324104,-0.7671580922067165
1789453539292639000,7.808638916015625,0.4760504090517759,-0.29819734915494917,-0.1849514937251806
1789453539302578000,7.818577880859375,0.09112696260213851,-0.3985705712690949,-0.06213233878612518
1789453539312518100,7.82851806640625,-0.2713403218895197,-0.31526012763679023,-0.24381869323551653
1789453539322458000,7.8384580078125,-0.708879506239295,-0.12163462132960558,0.00002864157259464264
1789453539332397000,7.84839697265625,0.08469371468424797,0.01906038203984499,0.014116203635931013
1789453539342337000,7.8583369140625,-0.6033136839181185,0.470936427038908,-0.3393085272222757
1789453539352277000,7.868277099609375,-0.26954934681952,0.8201347723737359,-0.7793260843843222
1789453539362216000,7.8782158203125,0.5043389304250478,0.8849676022902131,-0.9453682949781417
1789453539372156200,7.88815625,0.6868406929105519,0.4888838794007897,-1.1070271759212016
1789453539382096100,7.89809619140625,0.2627817523807287,0.8824521123379468,-1.527430516552925
1789453539392035000,7.90803515625,0.7575631653875112,0.5240548537641764,-1.9283838913053273
1789453539401975000,7.91797509765625,1.304402097889781,0.5616033709138631,-2.5150983226001262
1789453539411915000,7.9279150390625,1.5738789639949797,0.2729012875959277,-2.7610908527433873
1789453539421854000,7.93785400390625,1.264431322029233,0.21201485721766947,-2.708738149693608
1789453539431794000,7.9477939453125,1.0559650972038508,0.5429582916766404,-2.7784400469511747
1789453539441733000,7.957733154296875,1.1415811874300241,0.3495318150728941,-2.4720944626539945
1789453539451673000,7.967673095703125,1.163034309825301,0.3023825258851051,-2.2444623495876788
1789453539461613000,7.977613037109375,0.28321780668795105,0.19775369215309618,-1.998835145625472
1789453539471553000,7.987552978515625,0.6133937639057636,0.20823533867895602,-1.6931313663631677
1789453539481492000,7.997491943359375,0.35160628325939175,0.24953531731665132,-1.4685200624227523
1789453539491432000,8.007431884765625,-0.3184165458410978,0.3518956215947866,-1.338186294069886
1789453539501371100,8.01737109375,-0.33347266067564485,0.32211481583714485,-1.383843883395195
1789453539511311000,8.02731103515625,-0.33372985030710695,0.47135026853680606,-1.2899416108608246
1789453539521251000,8.0372509765625,-0.9630395607471466,0.6216659176886081,-0.7467161926805973
1789453539531190000,8.04718994140625,-0.6521037260502577,0.6415735642075538,-0.016253215664625165
1789453539541130000,8.0571298828125,-0.9532435583978891,0.5384750087827443,0.30256372767090794
1789453539551070000,8.067070068359374,-1.413368668565154,0.374151877066493,0.4811632220208645
1789453539561009000,8.0770087890625,-1.0226491030573843,0.48558162298500535,0.9294617007941007
1789453539570949000,8.08694921875,-1.0471388166695832,0.45357846500277516,0.8879968869835138
1789453539580889000,8.09688916015625,-1.1476391722947359,0.39479368307888507,0.6963602164059877
1789453539590828000,8.106828125,-0.6995458607047795,0.2411848376005888,0.7693544332072139
1789453539600768000,8.11676806640625,-0.8006435977011919,-0.18272446532547473,1.0838844930037856
1789453539610708000,8.1267080078125,-1.222565526202321,-0.4146650892406702,1.041617130638659
1789453539620647000,8.13664697265625,-1.2353215474009513,-0.4844757075697183,0.9228715087488293
1789453539630587100,8.146587158203126,-0.8367769873559474,-0.8195996425837277,0.9105775521039963
1789453539640527000,8.156527099609375,-0.931238647338748,-0.6364443846255541,0.8090586670860648
1789453539650466000,8.166466064453125,-1.3438175779551267,-0.4429284761726856,0.5787462288945913
1789453539660406000,8.176406005859375,-1.1365461158722638,-0.27648177643120286,0.5427832273706793
1789453539670346000,8.186345947265625,-0.6590653817564248,0.015236732098460196,0.47028673095852136
1789453539680285000,8.196284912109375,-0.6997597957164049,0.24980536642968654,0.4711667286634445
1789453539690225200,8.20622509765625,-0.7122019286602735,0.32746786730289457,0.4935939567878842
1789453539700165000,8.2161650390625,-1.1363421177327633,0.1639297484844923,0.23987550856769083
1789453539710104000,8.22610400390625,-0.3827916951179504,-0.14316285478770732,-0.060813657402992244
1789453539720044000,8.2360439453125,0.41368133890032766,-0.5067787247925997,-0.1535199981510639
1789453539729984000,8.24598388671875,-0.36938685462176796,-0.9238730870068073,-0.36732583043873307
1789453539739923000,8.2559228515625,-1.3923065913140773,-1.24505968208313,-0.44820817014127967
1789453539749863200,8.26586328125,-1.1865917110234498,-0.9357026410102843,-0.06275456233769655
1789453539759803100,8.27580322265625,-0.41004064431041476,-0.27768063082695005,0.3793114517867565
1789453539769742000,8.2857421875,-0.4883113402098417,0.062166825577616686,0.4265104253351688
1789453539779682000,8.29568212890625,-0.9067951109558343,-0.03728723586499691,0.150651456977427
1789453539789622000,8.3056220703125,-0.9933733242124319,-0.17140052275657652,0.3174061997547746
1789453539799561000,8.31556103515625,-0.6819780553102492,-0.22193711629509924,0.44008594622313973
1789453539809501000,8.3255009765625,-0.4464326849013567,-0.11428162821829319,0.4170326951548457
1789453539819441200,8.335441162109374,-0.4080331038802862,-0.13548574428856372,0.3167056502699852
1789453539829380000,8.345380126953126,-0.543876867826283,-0.21626374683380126,0.41869565993100405
1789453539839320000,8.355320068359376,-0.791486185516417,-0.37312019593119616,0.2522948451578617
1789453539849260000,8.365260009765626,-0.9476222113847732,-0.5171504812031984,0.2885916086807847
1789453539859199000,8.375198974609376,-0.4166229453101754,-0.2540770523995161,0.5558347243845463
1789453539869139000,8.385138916015626,-0.553798542381823,-0.19761691403090953,0.9204650321289897
1789453539879079200,8.3950791015625,-0.8265113216683269,-0.23938451018035412,1.2637637980312109
1789453539889018000,8.40501806640625,-0.9246969706103205,-0.4369102387964725,0.9570248305022716
1789453539898958000,8.4149580078125,-1.0642977490022778,-0.5652186388015746,1.1247624468371271
1789453539908898000,8.42489794921875,-1.160796467770636,-0.5990501812547445,1.568016793963313
1789453539918837000,8.4348369140625,-1.1003487210705876,-0.41148587468266484,1.693410475565493
1789453539928777000,8.44477685546875,-0.889704859945178,-0.00985913071334362,1.5212211405187845
1789453539938717200,8.45471728515625,-0.7404910345554352,0.3515490001142025,1.5264140329867601
1789453539948656000,8.46465625,-0.29172902992367744,0.6046802960962057,1.2598624066784978
1789453539958596400,8.474596435546875,-0.12894786695241928,0.4109884465545416,0.5641673761829733
1789453539968536000,8.4845361328125,-0.16319441994726658,-0.018135376149415967,-0.1240562955185771
1789453539978475000,8.49447509765625,-0.25407266848534343,-0.45261634197235107,-0.3818833481013775
1789453539988415000,8.5044150390625,-0.19915069946944713,-0.6817997761338949,-0.3350798036113381
1789453539998355200,8.514355224609375,0.06446633469164371,-0.6551122602164745,-0.1445519710585475
1789453540008294100,8.524294189453125,0.38412382050454613,-0.534316720059514,-0.26206103689074517
1789453540018234000,8.534234130859375,0.23603695331811902,-0.41846623508930203,-0.5928010577321052
1789453540028174000,8.544174072265625,0.043296705412864685,-0.5668009395569562,-1.1345257159605622
1789453540038113000,8.554113037109374,0.09068974022865295,-0.6446469803035259,-1.5104466485261916
1789453540048053000,8.564052978515624,-0.0884697260916233,-0.6542302166849374,-1.3547022523239254
1789453540057993200,8.5739931640625,-0.06714344494640827,-0.4395265587747097,-0.966489116679132
1789453540067932200,8.58393212890625,0.2409095277905464,-0.49537236463725565,-0.9045417790710926
1789453540077872000,8.5938720703125,0.2110159093081951,-0.7039239296585321,-0.859389216658473
1789453540087812000,8.60381201171875,-0.10200666853487492,-0.7812281186133623,-0.8193392380818724
1789453540097751000,8.6137509765625,-0.5828346672520041,-0.6813555394977331,-0.39843437766879797
1789453540107691000,8.62369091796875,-0.5450312985584139,-0.454140190538764,0.15793401520103215
1789453540117631200,8.63363134765625,-0.39021395407319065,-0.25880232735574243,0.5394666501685976
1789453540127570200,8.643570068359375,-0.35022564255595207,-0.01317395434975624,0.8420330081880092
1789453540137510100,8.65351025390625,-0.41659167338907716,0.11085866803228854,1.0367033473730087
1789453540147450000,8.6634501953125,-0.689026512517035,0.2981792289763689,1.1718830944523215
1789453540157389000,8.67338916015625,-1.2202967044875026,0.2123836905300617,1.3162705225989222
1789453540167329000,8.6833291015625,-1.3104653434515,0.28767303253114224,1.378597214913368
1789453540177269200,8.693269287109375,-1.0029057071894407,0.3956605290412903,1.3801888680189847
1789453540187208200,8.703208251953125,-0.5909247424662113,0.44705286262631416,1.301328389532864
1789453540197148200,8.713148193359375,0.011433540423214435,0.47397944799661634,1.050101173606515
1789453540207087900,8.723087890625,0.5731166985750198,0.3100520375996828,0.4480430427074432
1789453540217027000,8.733027099609375,0.5914899751335382,0.21326105788648128,0.008458616265654563
1789453540226967000,8.742967041015625,0.2652726924136281,0.16513620166480542,-0.008986439532041549
1789453540236907000,8.752906982421875,-0.16010463723838328,0.015213351222872732,0.36306174325346946
1789453540246846200,8.76284619140625,-0.5824187799274921,-0.36560149086415766,0.8868997393965721
1789453540256786200,8.7727861328125,-0.7106020922482014,-0.5145902753263711,1.574380191515386
1789453540266726100,8.78272607421875,-0.46830140236020085,-0.5269096586734057,1.796504354815185
1789453540276665000,8.7926650390625,-0.47287294805943964,-0.49446109501123425,1.590978859616816
1789453540286605000,8.80260498046875,-0.672265639591217,-0.3642144204199314,1.3881293056294322
1789453540296545000,8.812544921875,-0.5172434201836585,-0.08070026113390923,1.2067705756992102
1789453540306484200,8.822484130859374,-0.28547464570403097,-0.22906010004281996,0.8750845061793923
1789453540316424200,8.832424072265624,-0.004559855261445045,-0.4870914430260658,0.6970040672674774
1789453540326364200,8.8423642578125,0.41325931409597394,-0.4060246866673231,0.38841538021862504
1789453540336303000,8.85230322265625,0.3919008842468262,-0.28992928702533244,0.2119184111058712
1789453540346243000,8.8622431640625,0.22731880933344362,-0.3193237238138914,0.16103402704298495
1789453540356183000,8.87218310546875,-0.0589987169355154,-0.2969692686647177,0.6912088249921798
1789453540366122000,8.8821220703125,-0.2982324204683304,-0.35126316891014575,1.2954922307252883
1789453540376062200,8.892062255859376,0.016882161217927932,-0.385880893304944,1.439351835605502
1789453540386002200,8.902002197265626,0.28337504307627676,-0.2641810977846384,0.7986182293534279
1789453540395941000,8.911941162109375,0.32415713531970974,-0.07033259637653827,0.23710312124490737
1789453540405881000,8.921881103515625,0.5209568877488374,0.07829027738273144,-0.3700076168686151
1789453540415821000,8.931821044921875,0.12602934915721417,0.034191607937216754,-0.6073381171286105
1789453540425760000,8.941760009765625,0.14731354472637176,0.019337737676501272,-0.037783494949340815
1789453540435700200,8.9517001953125,0.5738625485062598,-0.10139935029149055,0.32883564852476116
1789453540445640200,8.96164013671875,0.6370365052998066,-0.17348375877141953,0.44338031159341335
1789453540455579100,8.9715791015625,0.8788251540124415,-0.1383580848544836,0.3918541224956512
1789453540465519000,8.98151904296875,1.2807751385867594,-0.17175503528267144,-0.016024083083868025
1789453540475459000,8.991458984375,1.0364245304316282,-0.2889554735571146,-0.07326572721898555
1789453540485398000,9.00139794921875,1.0226841743707655,-0.7500041283100843,-0.40660160977244375
1789453540495338200,9.011338134765625,0.6840981162041425,-1.0036796141713857,-0.42532735303044317
1789453540505278200,9.0212783203125,0.2999398089081049,-1.0378075092226267,-0.5009124631077051
1789453540515217200,9.031217041015625,0.2571276721417904,-1.1055039118766783,-0.2721265038311481
1789453540525157000,9.0411572265625,-0.09545184006392955,-1.318618547029793,-0.7351900055378675
1789453540535097000,9.05109716796875,0.6918214039325714,-1.2450412696436046,-1.2954039679199456
1789453540545036000,9.0610361328125,0.6881932765632868,-1.269395958699286,-1.280673431777954
1789453540554976300,9.070976318359374,0.5901601878345012,-1.0691916585236787,-0.6985960126340389
1789453540564916200,9.080916259765624,1.3346253867179154,-0.8585521813124418,-0.45033027686178684
1789453540574855200,9.090855224609374,1.8055296650528907,-0.5769274890348315,-0.2276163309752941
1789453540584795000,9.100794921875,1.2368319519639015,-0.33009441641420123,-0.1885895579665899
1789453540594735000,9.110735107421876,1.3347604112744331,-0.12129618315547704,-0.7435480840384959
1789453540604674000,9.120674072265626,1.1896908460825681,-0.14342939676940442,-0.2911410009026527
1789453540614614000,9.130614013671876,1.0479203224360942,-0.3457370989650488,0.5190764808297157
1789453540624554200,9.14055419921875,1.03338092495203,-0.06521101557910441,0.2720329803287983
1789453540634493200,9.1504931640625,1.817002660703659,0.16452508402913807,-1.5220914936125278
1789453540644433000,9.160432861328125,3.5065064842194316,0.45778409999907016,-2.506946580326557
1789453540654373000,9.170373046875,2.7998429004639385,0.768402831570804,-2.490823128521442
1789453540664312000,9.18031201171875,0.9266285231947898,0.4178349514484405,-1.9995640444219112
1789453540674252000,9.190251953125,0.44753100153207775,0.18750147046893834,-1.5661434013068676
1789453540684192300,9.200192138671875,0.7315320675522089,0.10759937397539615,-1.6537059494256972
1789453540694131200,9.210131103515625,0.33676702604591846,-0.06765577838271856,-1.4922089810460806
1789453540704071200,9.2200712890625,0.4680728543013334,-0.3410284828826785,-0.8270458669364452
1789453540714011100,9.23001123046875,0.6840034236580133,-0.6230772457912563,-0.4213327304363251
1789453540723950000,9.2399501953125,0.6088105277687311,-0.8609358615785837,-0.7948398798584938
1789453540733890000,9.24989013671875,-0.10038052863776684,-0.8522484049931168,-1.1426099459558725
1789453540743830300,9.259830322265625,-0.14260522090494632,-0.7328656542435288,-0.7903776397526264
1789453540753769200,9.269769287109375,0.6417331386834383,-0.6383817824289202,-0.8228489997684955
1789453540763709200,9.279709228515625,-0.014829320341348647,-0.32465105631649493,-0.6537596765637398
1789453540773649200,9.289649169921875,-0.03300853563249111,-0.15176175630688665,-0.5109130481183528
1789453540783589000,9.299589111328125,0.676032883170247,-0.07651829927414655,-0.48583764357268805
1789453540793528000,9.309528076171874,0.6945686568140983,0.20778408778011798,-0.861466607454419
1789453540803468300,9.31946826171875,0.8794049997270107,0.5854685228869319,-1.477726282185316
1789453540813408300,9.329408203125,1.3355693895697593,0.7522486923664807,-1.8119407011389732
1789453540823347200,9.33934716796875,1.6011977635532617,0.7421186357572674,-2.0878028843671084
1789453540833287000,9.349286865234374,1.3681103076905012,0.816956434598565,-2.1943127095401285
1789453540843227100,9.35922705078125,1.3385060275435448,0.6635024874210357,-2.099439546146989
1789453540853166000,9.369166015625,1.5958137324273585,0.856211171144247,-2.03563547475636
1789453540863106000,9.37910595703125,0.9830255331993103,0.6061477383002638,-2.0652076061993836
1789453540873046300,9.38904638671875,0.7519464945495128,0.08086392726302147,-1.6700000816226004
1789453540882985200,9.398985107421876,0.6584539718598127,0.10989069978296756,-1.2031202364981173
1789453540892925000,9.408925048828126,0.25008359884917736,-0.055330257555842394,-1.316999713656306
1789453540902865200,9.418865234375,-0.16323884361088276,0.04771159924566745,-1.0995260065108536
1789453540912804000,9.42880419921875,-0.3558744620978832,0.27373043189644813,-0.7264934888631105
1789453540922744000,9.438744140625,-0.3947165261894464,0.4200006050497293,-0.5256535211324691
1789453540932684800,9.448684814453125,-0.42066929809153075,0.41431437610685823,-0.4836269817858934
1789453540942623700,9.458623779296875,-0.8305413078367709,0.27866496568918225,-0.54948681666255
1789453540952563700,9.468563720703125,-1.4495879829376934,0.03157937961220741,-0.2831868270277977
1789453540962504000,9.47850390625,-1.2818506588637828,-0.19034779981076716,0.39144612621665
1789453540972443000,9.48844287109375,-0.6803343797564506,-0.5778881507605313,1.0012906732082367
1789453540982382800,9.4983828125,-0.6244628549307585,-0.567448589810729,1.085403957656026
1789453540992322800,9.50832275390625,-0.9843073897033929,-0.23148411231935023,0.650346360988915
1789453541002261800,9.51826171875,-0.4805079729825258,0.1406014798671007,0.03653641749769449
1789453541012201700,9.52820166015625,0.05048164848089218,0.28961656781435013,-0.5880684762522578
1789453541022142000,9.538141845703125,-0.1581558412581682,0.3896317702710628,-0.773747991991043
1789453541032081000,9.548080810546875,-0.5159580565482378,0.3853980782240629,-0.6868307560384274
1789453541042020900,9.558020751953125,-0.7058113508403301,0.22136896101832387,-0.1963765585809946
1789453541051960800,9.5679609375,-0.607438070371747,-0.1581260306417942,0.7401812379539012
1789453541061899800,9.577899658203124,-0.4370031777769327,-0.4132826949715614,1.2263257555186748
1789453541071839700,9.58783984375,-0.4559098305597901,-0.42344694611132144,1.0171262479826808
1789453541081780000,9.597780029296874,-0.9631272390305995,-0.7229448564708233,0.5956733982980251
1789453541091719000,9.607718994140624,-1.2688611211702228,-0.6924684696644544,0.5780056396603585
1789453541101659000,9.617658935546874,-1.2702186732590197,-0.5020084416508674,0.6857245483621954
1789453541111598800,9.627598876953124,-1.1212579458475112,-0.18966800085306165,0.8600006265550851
1789453541121538000,9.6375380859375,-0.13690496343672276,0.042271454018354415,1.0793319442659617
1789453541131477800,9.647477783203126,-0.5676853211760521,0.20652502762973307,0.8988149258568883
1789453541141418000,9.65741796875,-1.1549661541819571,0.10605623618662356,0.381824603651464
1789453541151357000,9.66735693359375,-1.0811708501309156,-0.08257365379035472,0.260101134994626
1789453541161297000,9.677296875,-1.1496715549051761,-0.4207090455800295,0.5106251710876822
1789453541171236900,9.68723681640625,-0.977979355725646,-0.8717641295850277,0.7168366027235984
1789453541181176000,9.697176025390625,-0.8362132159933447,-1.3250433193802833,0.6665966540440916
1789453541191115800,9.70711572265625,-0.5950900454521179,-1.261049862897396,0.33385084633827206
1789453541201055700,9.7170556640625,-0.46980070100724697,-0.9100748632788658,-0.1387403621703386
1789453541210995000,9.726994873046875,-0.6122808342278003,-0.5420698184043169,-0.4667983043208718
1789453541220935000,9.736934814453125,-0.7620739208102226,-0.07486205649971961,-0.5381199117347598
1789453541230875000,9.746875,-0.7653329226061701,0.07677519664466381,0.09426292254030703
1789453541240814000,9.75681396484375,-0.9011959757745266,-0.0013835633128881453,0.8223238068506121
1789453541250753800,9.76675390625,-1.1761392905920742,-0.09949965415000915,1.047726845690608
1789453541260693800,9.77669384765625,-1.3251996789857745,-0.05256079284250736,0.9998404743999242
1789453541270632700,9.7866328125,-1.2878972455516458,0.11261048013567924,0.8936515517443417
1789453541280573000,9.796572998046875,-1.0763047053992747,0.273754981815815,0.6777753429234028
1789453541290513000,9.806512939453125,-0.9784215465351939,0.13193769641816616,0.3995385395184159
1789453541300452900,9.816452880859375,-1.018084279359877,-0.1511246274471283,0.5295101965606213
1789453541310391800,9.826391845703125,-0.9984572033479809,-0.5028776257008314,0.9591802549704909
1789453541320331800,9.836331787109375,-1.080752040196955,-0.6009872867971658,1.3050310434430836
1789453541330272000,9.84627197265625,-1.0837091364368796,-0.4984925424844026,1.5411132972076533
1789453541340211000,9.8562109375,-0.9281953341200947,-0.05812485671043396,1.4188959075540304
1789453541350151000,9.86615087890625,-0.9153604024663567,0.004702478602528572,1.2554714782431722
1789453541360091000,9.8760908203125,-0.5401940876603126,-0.09611702597439288,0.6539411706104874
1789453541370029800,9.88602978515625,-0.20148352633118627,-0.3232867822259664,-0.1299053138077259
1789453541379969800,9.8959697265625,-0.06550766043812035,-0.5140045843929052,-0.5333008210152387
1789453541389909800,9.90590966796875,-0.02321691719740629,-0.5723568201184273,-0.47706952296644445
1789453541399849000,9.915848876953126,-0.021416882038116453,-0.6681032592147589,-0.4676429384514689
1789453541409789000,9.925788818359376,0.017747253614664078,-0.5187456414401531,-0.45990591445863244
1789453541419728600,9.935728759765626,0.11262509318292141,-0.529051931399107,-0.5300555554836988
1789453541429667800,9.945667724609375,0.1420955178171396,-0.4988894328474998,-0.5129416313365102
1789453541439607800,9.95560791015625,0.1285077219694853,-0.4419406341791153,-0.5371852612331509
1789453541449547800,9.9655478515625,-0.02022270381748676,-0.40301439893543717,-0.5341907555922866
1789453541459487000,9.975487060546875,-0.04835340428054333,-0.28160920244753357,-0.48808776058703657
1789453541469427000,9.985427001953125,-0.08699965353906154,-0.24865561187267302,-0.6535556784242391
1789453541479366700,9.99536669921875,-0.35753625783026216,-0.3376964158505201,-0.8049491859406233
1789453541489305900,10.005305908203125,-0.6441741020947694,-0.29484219350814816,-0.662097589059174
1789453541499245800,10.015245849609375,-0.8930611846357583,-0.3220084328532219,-0.36590105833262204
1789453541509185800,10.025185791015625,-0.9125216719090938,-0.28833821844160556,-0.02225274834036827
1789453541519124700,10.035124755859375,-0.8511629478439688,-0.005237316131591796,0.39942923392504454
1789453541529065000,10.04506494140625,-0.9684612935349345,0.16022271066009997,0.6184481246858835
1789453541539005000,10.0550048828125,-1.02728260807693,0.3742442315250635,0.5651008576408029
1789453541548944000,10.06494384765625,-0.9933978741317987,0.5364905569672584,0.6210869487568735
1789453541558883800,10.0748837890625,-0.868848534399271,0.5904208845973015,0.7338786306783557
1789453541568823800,10.08482373046875,-0.803006235179305,0.43197862761318684,0.8448018883794546
1789453541578762800,10.0947626953125,-0.5572682643190026,0.1438257026106119,0.88510379589051
1789453541588703000,10.104702880859374,-0.18140490715950727,-0.16408932296037673,0.7593947647288442
1789453541598643000,10.114642822265624,0.13599340154975653,-0.28110008388161656,0.6282198693767189
1789453541608582000,10.124581787109374,0.2662000363916159,-0.3711725689947605,0.5325608163028955
1789453541618521900,10.13452197265625,0.3306523425579071,-0.29937925241589547,0.4002250604778528
1789453541628461800,10.1444619140625,0.36639264124184845,-0.21379063471853732,0.29319296499639746
1789453541638400800,10.15440087890625,0.18204875802099704,-0.23749942708611488,0.20837270132303237
1789453541648341000,10.164341064453126,-0.12001228082478045,-0.3235445563793182,0.11522183167785405
1789453541658281000,10.174281005859376,-0.2356175588622689,-0.395368268096447,0.09096475777775048
1789453541668220000,10.184219970703126,-0.35716567095220086,-0.547893994513154,-0.028142390900850293
1789453541678160000,10.194159912109376,-0.6940998702585697,-0.5766431191354989,0.0184171157002449
1789453541688099800,10.204099853515626,-0.7109124733716249,-0.48531449648141856,0.4390738465711474
1789453541698038800,10.214038818359375,-0.4468021027356386,-0.5664706846892833,0.8246212701380252
1789453541707979000,10.22397900390625,-0.21336393373906612,-0.34142040480971336,0.6682821229130029
1789453541717919000,10.2339189453125,-0.18536533522307871,-0.052339843568205834,0.13467150529623031
1789453541727858700,10.243858642578125,-0.41743630751967425,0.08386720073223114,-0.35098961266577244
1789453541737798000,10.2537978515625,-0.720873310893774,0.4151607638031244,-0.5207347694307566
1789453541747737900,10.26373779296875,-0.7401356452465057,0.6936252384841441,-0.15951836178302764
1789453541757677800,10.273677734375,-0.31974282600879667,0.3999550113648176,0.22209318363964556
1789453541767616800,10.28361669921875,-0.26304712531864644,-0.1167640926837921,0.3873533039450645
1789453541777557000,10.293556884765625,-0.02568739896416664,-0.29031097981929777,0.5293675732195378
1789453541787496700,10.30349658203125,0.13963818779289722,-0.21656009943187235,0.14757599505484104
1789453541797435600,10.313435546875,-0.4093120377749204,-0.3888303907603025,-0.03390577673316002
1789453541807376000,10.3233759765625,-0.22843290805518626,-0.43580783051252364,-0.1124509056597948
1789453541817315800,10.33331591796875,0.14602818109095095,-0.353452203387022,-0.5862678565710783
1789453541827254800,10.3432548828125,-0.3110451402902603,-0.5031546890765428,-0.4807487960010767
1789453541837195000,10.353195068359375,-0.5578291130721569,-0.6413005924850702,-0.020175942066311837
1789453541847134700,10.363134765625,-0.5565758981406689,-0.8621095815330744,0.43578094250559807
1789453541857073700,10.37307373046875,-0.3884890299767256,-1.3904951579779385,0.2778139018177986
1789453541867014000,10.383013916015624,-0.45554421211779117,-1.5021101973354816,-0.028869536131620407
1789453541876953900,10.392953857421874,-0.3434153780192137,-1.1847428682863712,-0.40178573392331596
1789453541886892800,10.402892822265626,-0.13308745097517966,-0.662405339834094,-0.553332386174798
1789453541896833000,10.4128330078125,0.2585503984212875,-0.2569204591318965,-0.8636118027895688
1789453541906772700,10.422772705078126,1.0475544117331503,-0.22548194929510354,-0.9245984786719084
1789453541916711700,10.432711669921876,0.6142495039522647,-0.501615642940998,-0.9271300429761409
1789453541926652000,10.44265185546875,0.11223170995116233,-0.6890285583436488,-0.308816942846775
1789453541936591600,10.452591552734376,0.8411416123062372,-0.640631314921379,-0.21075170541405677
1789453541946530600,10.462530517578125,0.5819844801634549,-0.8116463454917072,-0.27844810806810855
1789453541956470800,10.472470703125,0.8862006512165069,-0.8725584948331118,-0.6892109291732311
1789453541966410800,10.48241064453125,1.7272218520134686,-0.806605720975995,-0.8325064704298972
1789453541976349700,10.492349609375,1.4122744435876606,-0.43303018249273295,-0.9600701895475388
1789453541986289400,10.502289306640625,0.9259043005734682,-0.06664046386033297,-1.0365163003683089
1789453541996229600,10.512229736328125,0.45908641476929185,0.2773588515266776,-1.569424907195568
1789453542006168600,10.52216845703125,0.9396230293244123,0.20484131232649086,-0.9610872576355933
1789453542016108500,10.532108642578125,0.9727338562875986,0.03638531858921051,-0.8041168267697095
1789453542026048800,10.542048828125,2.2073101382791993,0.05765139397978782,-1.2522557310670615
1789453542035987700,10.55198779296875,2.312102053618431,-0.055794660197198385,-1.2835375890374183
1789453542045927400,10.561927490234375,1.6206319473415611,-0.04327390905916691,-2.038261147084832
1789453542055867600,10.57186767578125,1.254125032070279,-0.03880027077645063,-2.0714637439846992
1789453542065806600,10.581806640625,1.514073606851697,-0.05028554138690233,-2.149096434241533
1789453542075746600,10.59174658203125,0.6792758106142283,0.14881079754680393,-2.5014134961187837
1789453542085686800,10.601686767578125,0.3158715375334024,0.45054158152490853,-2.2257921359091997
1789453542095625700,10.611625732421874,0.7330249364584684,-0.03529693883061409,-0.807331112641096
1789453542105565400,10.6215654296875,0.5525631553679704,-0.17696283305883406,-0.5438017567634582
1789453542115505700,10.631505615234374,0.16663550031185148,0.01371025318354368,-0.6095283206492662
1789453542125444600,10.641444580078126,-0.08241291027069092,-0.018646248281002045,-0.4381909262567758
1789453542135384600,10.651384521484376,0.16591478482186794,0.024881927800178526,-0.4421978238105774
1789453542145324800,10.66132470703125,0.11121990256011485,0.28827333651185033,-0.6065647946685552
1789453542155263700,10.671263671875,0.15494330895245073,0.4334299954652786,-0.8785872536033391
1789453542165203500,10.681203369140626,0.35935645899474616,0.6110977619230746,-1.4090332697093486
1789453542175143700,10.691143798828126,0.37130057928860183,0.7863882778555155,-1.53741765756011
1789453542185082600,10.70108251953125,0.4729162026792764,0.6981789562657476,-1.3942080410212279
1789453542195022600,10.711022705078125,0.7768933042794466,0.6070391341820359,-1.5006225891262293
1789453542204962800,10.720962890625,0.9755874921530484,0.49196372523754833,-1.5149538968175649
1789453542214901800,10.73090185546875,0.7736889552801847,0.31583471265435215,-1.5493997717767953
1789453542224841500,10.740841552734375,0.8059785289883613,0.3041743777379393,-1.3943383894026278
1789453542234781400,10.750781494140625,1.1255489210397005,0.41280572510957714,-1.5247200885504484
1789453542244720600,10.760720703125,1.159835806044936,0.18077011638730764,-1.7222925789177417
1789453542254660600,10.77066064453125,0.7925362790912389,0.05173603245615959,-1.6634557745456695
1789453542264600600,10.7806005859375,0.27632044838964936,-0.019014497071504592,-1.285408643606305
1789453542274539800,10.790539794921875,0.3102677261769771,-0.1849690293818712,-0.7671937480419874
1789453542284479700,10.800479736328125,0.21120880153179167,0.007353285372257232,-0.46651276537775993
1789453542294419500,10.81041943359375,0.0946615664690733,0.25114625964462756,-0.7689601731926202
1789453542304358700,10.820358642578125,0.010438391906023026,0.44091655182838435,-0.9525035536855458
1789453542314298600,10.830298583984375,0.2823182274997234,0.4829425066530704,-1.0160510199666022
1789453542324238600,10.840238525390625,0.010685060143470763,0.37168051851689815,-0.787500623011589
1789453542334177500,10.850177490234374,-0.35966157942116256,0.2584042679488659,-0.4846913961470127
1789453542344117800,10.86011767578125,-0.6259919641941786,0.020045593684911725,-0.24290333195626734
1789453542354057500,10.870057373046874,-1.1892407642275094,0.22090777324736116,0.15876783567667008
1789453542363996400,10.879996337890624,-0.9356313293397426,0.4718897822409868,0.422985173818469
1789453542373936600,10.8899365234375,-0.8135971872985363,0.41261400192975994,0.38096652551740406
1789453542383876600,10.899876708984374,-1.1124638140171765,0.16461539266109465,0.1963178141310811
1789453542393815600,10.909815673828126,-0.9634335285007953,-0.12078735685050487,0.33231092341989277
1789453542403755800,10.919755859375,-0.49775604490339753,-0.16754852350354194,0.6515636278241872
1789453542413695500,10.929695556640626,-0.6955424702823162,-0.0748322458833456,0.6873547799125314
1789453542423634400,10.939634521484376,-0.549626517394185,0.13670973312556742,0.5003200501725077
1789453542433574700,10.94957470703125,-0.11712708077728748,0.1942494834244251,0.2979369446530938
1789453542443514600,10.9595146484375,-0.443761419865489,0.13144903611838818,0.3201514068096876
1789453542453453600,10.96945361328125,-0.9883464359611273,-0.06242927590608596,0.6850853736758231
1789453542463393800,10.979393798828125,-0.8841329050317406,-0.5131166956424713,1.3984490395918487
1789453542473333500,10.98933349609375,-0.13032032434940338,-0.8643143981009721,1.9454826178833842
1789453542483272400,10.9992724609375,0.040541561485826966,-0.9307990868777036,1.787684796282649
1789453542493212700,11.009212646484375,-0.2613169405251741,-0.8797586354702711,1.1158993414238094
1789453542503152600,11.019152587890625,-0.37890871620476246,-0.5660661955416202,0.27369156119078397
1789453542513091600,11.029091552734375,-0.9983101960927248,-0.2960831334799528,-0.18099895670711993
1789453542523031800,11.03903173828125,-0.9694476742237805,-0.057493573069572444,-0.20076281084120273
1789453542532971500,11.048971435546875,-0.4795762450903654,-0.26061317616999147,0.15068039081096649
1789453542542910500,11.058910400390625,-0.49965632556676864,-0.6270189691543578,0.7526619493424892
1789453542552850700,11.0688505859375,-0.684455259078741,-0.9505214399576186,1.085996662852168
1789453542562790700,11.078790771484375,-0.18199761235564946,-0.9656213939338922,0.9330056570112705
1789453542572729600,11.0887294921875,-0.20842823090255258,-0.5241793569266796,0.5050941327065229
1789453542582669600,11.098669677734375,-0.8566714821323752,0.25094109246134755,0.17916969545334577
1789453542592609500,11.108609619140625,-1.001423944199085,0.8945207357943058,-0.04215191929191351
1789453542602548500,11.118548583984374,-0.5085580094248056,0.9764584297686815,0.01265636021643877
1789453542612488400,11.128488525390624,-0.04141980562508106,0.48205754051208494,0.2727694779098034
1789453542622428700,11.1384287109375,-0.22409137171953916,-0.2310837148249149,0.20778379551917314
1789453542632367600,11.14836767578125,-1.222686814494431,-0.9787591079264879,0.11740969711095094
1789453542642307600,11.1583076171875,-1.6393208657205103,-1.253884793573618,0.51310032902956
1789453542652247600,11.16824755859375,-1.4284168923541902,-0.8734884691596031,1.1517480689182877
1789453542662186500,11.1781865234375,-1.1056105871215463,-0.24724691411852834,1.5662737496882677
1789453542672126500,11.18812646484375,-0.9394608245000242,-0.0570294626891613,1.5060323392152786
1789453542682066700,11.198066650390626,-0.8348720305174588,-0.30222821210622786,1.1939587326601147
1789453542692005600,11.208005615234375,-0.9915455242633819,-0.6331418359488249,1.1911992048189044
1789453542701945600,11.217945556640625,-0.8818903868019581,-0.7940238873004913,1.6313739983692763
1789453542711884500,11.227884521484375,-0.5079410465702414,-0.7118757654458284,1.8786369868397712
1789453542721824800,11.23782470703125,-0.2460340311974287,-0.42549511081278324,1.3897045921221374
1789453542731764500,11.247764404296875,-0.2199006420314312,-0.19077859244346618,0.7325701784282922
1789453542741703400,11.257703369140625,-0.18237141410410404,-0.09112228642702103,0.1845861675441265
1789453542751643600,11.2676435546875,-0.08337240295261145,-0.06873042187690734,-0.36933687800019976
1789453542761583600,11.27758349609375,0.07725859624743461,-0.05680383723974228,-0.5918839428871869
1789453542771522600,11.2875224609375,0.4333692051887512,-0.0923474443078041,-0.6553925384625792
1789453542781462800,11.297462890625,0.6862152544885873,-0.21322189491987228,-0.9003060411974787
1789453542791402500,11.307402587890625,0.48687458540499207,-0.3132376818984747,-0.7777467062383889
1789453542801341400,11.317341552734375,0.14267419448792934,-0.44493338625431056,-0.5229974536657334
1789453542811281700,11.32728173828125,-0.1619856286793947,-0.5754109469920397,-0.6759329299271106
1789453542821221600,11.3372216796875,-0.45963995699882504,-0.7186889525920153,-0.9688228203237056
1789453542831160600,11.34716064453125,-0.5158192325994372,-0.974077672111988,-1.0396227419510484
1789453542841100800,11.357100830078124,-0.4054489326059818,-0.8689297829419373,-0.6350599445298314
1789453542851040500,11.36704052734375,-0.17073884397745132,-0.626281887051463,-0.013200257834792136
1789453542860979500,11.3769794921875,-0.018942016357183455,-0.5689134016662836,0.22033727988302707
1789453542870919700,11.386919677734374,-0.15521598841398954,-0.697388974931836,0.13404109843820333
1789453542880859600,11.396859619140624,-0.28273762195557356,-0.4954956987559795,0.09972644864320754
1789453542890798600,11.406798583984376,-0.29993776308149095,-0.18914894541501998,-0.027518998305499552
1789453542900738800,11.41673876953125,-0.36583500735908747,0.2241962933987379,0.1882438132688403
1789453542910678500,11.426678466796876,-0.26878362314403054,0.4438286398828029,0.13448270472586155
1789453542920617500,11.436617431640625,-0.13123217849731444,0.5834791026353836,0.11996142742037773
1789453542930557700,11.4465576171875,-0.14711626858860252,0.5219681106179952,0.2261252156347036
1789453542940497200,11.4564970703125,-0.45165451120287176,0.20981062517166135,0.39576778880804775
1789453542950436400,11.466436279296875,-0.61654287558645,0.03226911544203758,0.5926826920494437
1789453542960376300,11.476376220703125,-0.479769137313962,-0.2409527824103832,0.820078658272326
1789453542970316300,11.48631640625,-0.2493149525642395,-0.3037082215309143,0.989475147730112
1789453542980255200,11.496255126953125,-0.1498313727661967,-0.08271627713143825,1.185272737379372
1789453542990195200,11.5061953125,0.04457973096072673,0.061470660006999966,1.036471584443748
1789453543000135200,11.51613525390625,-0.09453794008940458,0.08825579107999801,0.652593555393815
1789453543010074000,11.52607421875,-0.20838059236854314,0.26098025591671464,0.28815584761202334
1789453543020014300,11.536014404296875,-0.32603461962938307,0.2762643342882395,0.12320961556136607
1789453543029953300,11.545953369140625,-0.6449839571729302,0.10260229634046554,0.27214024009555576
1789453543039893200,11.555893310546875,-0.9676619598507881,-0.15443243682086466,0.5766945570617914
1789453543049833200,11.565833251953125,-0.949123848119378,-0.45672319276928897,0.9870125570088625
1789453543059772200,11.575772216796874,-0.717811000713706,-0.8158008348226546,1.2526505756035446
1789453543069712100,11.585712158203124,-0.3821604114770889,-1.1290262417614458,1.2965078375086188
1789453543079652400,11.59565234375,-0.06455693558454513,-1.2639713033020497,1.2080386959388851
1789453543089591300,11.60559130859375,0.028456863677501675,-1.1575579242408276,0.795178902554512
1789453543099531300,11.61553125,0.24155308639109133,-0.684190470662713,0.16645020687282083
1789453543109471200,11.62547119140625,0.23301205253899096,-0.35613398981690403,-0.28748014030754565
1789453543119410200,11.63541015625,0.06885258695185184,-0.052696986442804336,-0.49650809066891666
1789453543129350100,11.64535009765625,-0.11128419996798038,0.05949672958552837,-0.45364510049819945
1789453543139290400,11.655290283203126,-0.36465281183719633,0.043643911415338514,0.10352525640428066
1789453543149229300,11.665229248046876,-0.4148784397304058,-0.5760521675050259,1.1900286997348068
1789453543159169300,11.675169189453126,-0.09253741392195224,-0.9456880284518003,1.4322650922149418
1789453543169109200,11.685109130859376,0.14088205037415027,-1.1274778432756662,1.1824264080375433
1789453543179048200,11.695048095703125,-0.06268412744998932,-1.3258031978368758,0.8014759568721056
1789453543188988200,11.70498828125,0.09430500811636447,-0.9066086484730244,0.26951310646235943
1789453543198928400,11.714928466796875,-0.08186638230383396,-0.6510135927259921,-0.1511509309321642
1789453543208867300,11.724867431640625,0.1495464183449745,-0.3336509398519993,-0.3210229289472103
1789453543218807300,11.734807373046875,0.17643676335811614,-0.30045944886803627,-0.6515577826052904
1789453543228747000,11.7447470703125,-0.04789397007524967,-0.46764089262485503,-0.11172083781957626
1789453543238686200,11.754686279296875,0.571478868240118,-0.640198768723011,-0.11181553036570549
1789453543248626200,11.764626220703125,1.055602693632245,-0.7502449513286352,-0.5448211629390716
1789453543258566100,11.774566162109375,1.3681506397008896,-0.006516250026226043,-0.9212351397186517
1789453543268505300,11.78450537109375,1.0315846891850233,0.41570115429013965,-1.6036930875003337
1789453543278445300,11.7944453125,0.48534313805401325,0.382333722217381,-1.7981261107981203
1789453543288385300,11.80438525390625,0.49519233189523215,0.14890549009293316,-1.9294857150673865
1789453543298324200,11.81432421875,1.1955208674103022,-0.15501286705732345,-1.5515654253780842
1789453543308264200,11.82426416015625,1.4080705621570349,-0.7191615385398268,-0.7062129173785447
1789453543318204200,11.8342041015625,0.8510802379965782,-1.201841302603483,0.13896072692275047
1789453543328143000,11.84414306640625,0.47992988083362575,-1.6186904578849672,0.5348077184468507
1789453543338083300,11.854083251953124,0.13951193106472493,-1.616697238241136,0.023235329636931416
1789453543348022300,11.864022216796876,0.6106330670207738,-0.9724071085512638,-0.6923918972969054
1789453543357962200,11.873962158203126,1.757147034677863,-0.984514310452342,-1.0187550182282925
1789453543367902200,11.883902099609376,1.5918191098332404,-0.5774605729982256,-1.2300018136829136
1789453543377841200,11.893841064453126,0.650547728779912,-0.3288736424475908,-1.6154332096546888
1789453543387781000,11.903781005859376,1.9555746805697678,-0.2967711157441139,-1.0763830313324927
1789453543397721300,11.913721435546876,2.1786527835935354,-0.1558577934488654,-0.6998083110332488
1789453543407660300,11.923660400390625,2.675192438444495,-0.23906565348953007,-0.7408861713528633
1789453543417600300,11.933600341796875,1.473162335270643,-0.2389294598892331,-1.5130331578880547
1789453543427540200,11.943540283203125,1.7076970673322676,0.1771425735399127,-1.8000298985928296
1789453543437479200,11.953479248046875,1.185446048119664,0.5082537657812237,-1.7060948928326367
1789453543447419100,11.963419189453125,0.8771212727040052,0.38047231225967404,-1.7027812382400034
1789453543457359400,11.973359375,0.6271990018963813,0.40666707622408865,-1.8693296447902916
1789453543467298300,11.98329833984375,0.5903922430247068,0.4993658181875944,-1.4769412692874668
1789453543477238300,11.99323828125,0.8267004144996404,0.46604836273640393,-1.1064607742100954
1789453543487178200,12.00317822265625,0.5901257010430098,0.487268260897696,-0.9893950682312249
1789453543497117200,12.0131171875,0.22898294315338133,0.32393414021879435,-0.6954051076382398
1789453543507057200,12.02305712890625,0.6002332535594701,0.19766689065247772,-0.49497138262093066
1789453543516997400,12.032997314453125,0.5951052430212498,0.20845102725625037,-0.6733171944707632
1789453543526936300,12.042936279296875,0.5377332505047321,0.22481588660180568,-1.2175023975938557
1789453543536876300,12.052876220703125,0.6764911483317613,0.2929875055521726,-1.6125322275161742
1789453543546816300,12.062816162109375,0.625908962085843,0.3840405261352658,-1.623491428425908
1789453543556755200,12.072755126953124,0.6628232729852199,0.46513709311038254,-1.5876339331030844
1789453543566695200,12.082695068359374,0.7699988685905933,0.3065907912299037,-1.4276894548624752
1789453543576635100,12.09263525390625,0.9151163645774125,0.04643880283087492,-1.3471587050765752
1789453543586574300,12.10257421875,0.6459872889965772,-0.15901304260939358,-1.228209085047245
1789453543596514300,12.112514404296874,0.5959381867140531,-0.3370169091537595,-1.27754740871191
1789453543606453200,12.122453369140626,1.4143787223905324,-0.33920272876024243,-1.3162182078897953
1789453543616393200,12.132393310546876,1.2891565979629753,-0.14663491481244564,-1.3503618850320578
1789453543626333200,12.142333251953126,0.6392033279448748,-0.047939562782645224,-1.5166519329071044
1789453543636272000,12.152272216796876,0.00047813890576362607,0.3976268606781959,-1.3751111263632774
1789453543646212400,12.16221240234375,-0.41146775450408457,0.9170873723894357,-0.8638514567643404
1789453543656152300,12.17215234375,0.07298515671193599,1.0846212828457356,-0.5048679227352142
1789453543666091300,12.18209130859375,0.11597732622027397,0.9081558779150247,-0.5688251388609409
1789453543676031200,12.19203125,-0.41805590072274207,0.9311772725403308,-0.6238654735594987
1789453543685971200,12.20197119140625,0.03196399501562119,0.5897966152191162,-0.6363818407833576
1789453543695910100,12.21191015625,0.00005319149196147918,0.3938759837120771,-0.6161416013091803
1789453543705850000,12.22185009765625,-0.45660336578190325,0.17356208470463752,-0.2394675122886896
1789453543715790300,12.231790283203125,-0.44765959634780883,0.30577976710796356,0.2003372789055109
1789453543725729300,12.241729248046875,-0.6736293291598558,0.3221674228072166,0.32777474129498
1789453543735669200,12.251669189453125,-0.7131739885628223,0.16068506747484207,0.6305015505731105
1789453543745609200,12.261609130859375,-0.28774492872357366,0.06562602612078189,0.8575459268793463
1789453543755548200,12.271548095703125,-0.6331722310870885,-0.19899170951545236,0.7982587483912706
1789453543765488000,12.281488037109375,-0.37409342487752434,-0.5351537554055452,0.6426771415352821
1789453543775428400,12.291428466796875,-0.3633323768883943,-0.5199193613946438,0.34502602808624505
1789453543785367300,12.3013671875,-0.24475977347791195,-0.41549043414890763,-0.14555676418691874
1789453543795307300,12.311307373046875,0.0072796356141567225,-0.5388222147852182,-0.5896072301268577
1789453543805247200,12.321247314453124,-0.6024176118612289,-0.7902338473677635,-0.4969020584225654
1789453543815186200,12.331186279296874,-1.039226143848896,-1.345588679280877,-0.15116612850129604
1789453543825126100,12.341126220703124,-0.6162976686537266,-1.980173699775338,0.5503621381923556
1789453543835065000,12.351065185546876,-0.12803367471694946,-2.262138291531801,1.414015734297037
1789453543845005300,12.36100537109375,0.05799070893675089,-1.9062568151712416,1.4909475828081369
1789453543854945300,12.3709453125,-0.040673078911006445,-1.2026526189863682,0.4605693468034267
1789453543864884200,12.38088427734375,-0.6598311054319143,-0.3438970240563154,-0.9905749256655573
1789453543874824200,12.39082421875,-1.7174907315939665,0.2769938176065683,-1.9326026780441403
1789453543884764200,12.40076416015625,-2.038705091460049,0.6649672992765903,-1.6225079703465104
1789453543894703000,12.410703125,-1.5239125715598463,0.7164502337545156,0.015535715045034884
1789453543904643300,12.420643310546875,-0.6778069071054458,0.15390636712014674,1.459404735814035
1789453543914583300,12.430583251953125,-0.06996668567359447,-0.5134650706887245,1.7386875411406157
1789453543924522200,12.440522216796875,-0.38041912076771256,-0.8248609241127968,1.1195952733322978
