time,seconds_elapsed,z,y,x
1789453531549694000,0.06569384765625,-0.26322561502456665,0.654676616191864,-0.017954768612980843
1789453531559633000,0.0756328125,-0.23202776908874512,0.8005605936050415,0.05101897194981575
1789453531569572900,0.08557275390625,-0.1133834570646286,0.7763944268226624,0.11955241858959198
1789453531579511800,0.09551171875,0.047426726669073105,0.5904426574707031,0.17259247601032257
1789453531589452000,0.1054521484375,0.2074374109506607,0.35337376594543457,0.22064438462257385
1789453531599391000,0.115390869140625,0.3705533742904663,0.2110017091035843,0.25579917430877686
1789453531609331000,0.1253310546875,0.4880063533782959,0.16037492454051971,0.25431686639785767
1789453531619270100,0.135270263671875,0.550083339214325,0.17794139683246613,0.1608726680278778
1789453531629210000,0.145210205078125,0.5403549671173096,0.2666975259780884,-0.04571665823459625
1789453531639149800,0.15514990234375,0.48718762397766113,0.4167160391807556,-0.3405757248401642
1789453531649089000,0.165089111328125,0.3892350494861603,0.6206569671630859,-0.6970199346542358
1789453531659029000,0.175029052734375,0.23664206266403198,0.9211584329605103,-1.1274325847625732
1789453531668968000,0.184968017578125,0.1163509413599968,1.4954338073730469,-1.6513378620147705
1789453531678908000,0.194907958984375,0.12451405823230743,2.210336685180664,-2.1492018699645996
1789453531688847000,0.20484716796875,0.14513510465621948,2.909874677658081,-2.544969320297241
1789453531698787000,0.214787109375,0.16392530500888824,3.418302297592163,-2.8951377868652344
1789453531708726000,0.22472607421875,0.48803332448005676,2.778531074523926,-2.9529194831848145
1789453531718666000,0.234666015625,0.6515111923217773,2.065739870071411,-2.9744760990142822
1789453531728605000,0.24460498046875,0.7223631739616394,1.1730082035064697,-3.210749387741089
1789453531738545000,0.254544921875,0.7190659046173096,0.2893500328063965,-3.4092390537261963
1789453531748483800,0.26448388671875,0.7164245247840881,-0.38994696736335754,-3.1976158618927
1789453531758424000,0.274424072265625,0.6642665266990662,-0.4047187268733978,-2.277268171310425
1789453531768363000,0.284363037109375,0.7520760297775269,-0.5119405388832092,-0.9811880588531494
1789453531778303000,0.294302978515625,0.8702359795570374,-1.159767746925354,0.18530447781085968
1789453531788242200,0.3042421875,0.9049319624900818,-2.298213243484497,0.9566551446914673
1789453531798182000,0.314181884765625,0.9312605261802673,-3.417372465133667,1.4213263988494873
1789453531808121000,0.32412109375,0.7134944796562195,-4.105398178100586,1.256198525428772
1789453531818060800,0.334060791015625,0.1408442258834839,-3.9952316284179688,0.536819577217102
1789453531828000000,0.344,-0.3258409798145294,-3.1577329635620117,-0.3392808735370636
1789453531837940000,0.35393994140625,-0.043493181467056274,-2.0763187408447266,-0.7462244033813477
1789453531847879000,0.36387890625,0.3665357828140259,-1.7559295892715454,-0.4691075384616852
1789453531857819100,0.373819091796875,0.7518341541290283,-1.5495187044143677,-0.1262732297182083
1789453531867759000,0.383759033203125,1.022213101387024,-1.0042766332626343,0.2980197072029114
1789453531877698000,0.393697998046875,1.1180024147033691,-0.34078100323677063,0.7081393599510193
1789453531887638000,0.403637939453125,1.1397624015808105,0.22189442813396454,0.9009649753570557
1789453531897577000,0.413576904296875,1.2409107685089111,0.6604017019271851,0.8515912890434265
1789453531907517000,0.423516845703125,1.4448695182800293,0.676493763923645,0.6848259568214417
1789453531917456000,0.433455810546875,1.6518388986587524,0.2776888608932495,0.4781012535095215
1789453531927396400,0.443396240234375,1.7030378580093384,-0.21745841205120087,0.34588944911956787
1789453531937335300,0.453335205078125,1.4830024242401123,-0.6791538596153259,0.30511218309402466
1789453531947275300,0.463275146484375,1.106158971786499,-1.1292932033538818,0.2954889237880707
1789453531957214500,0.47321435546875,0.8320818543434143,-1.5123615264892578,0.23712307214736938
1789453531967154200,0.483154296875,0.7386229634284973,-1.7842895984649658,0.11219223588705063
1789453531977093000,0.493093017578125,0.7039265036582947,-1.704572319984436,0.010226989164948463
1789453531987033000,0.503033203125,0.594415545463562,-1.2433234453201294,0.04643971845507622
1789453531996972300,0.51297216796875,0.4084392786026001,-0.7076168656349182,0.15364474058151245
1789453532006912300,0.522912353515625,0.21185754239559174,-0.40765050053596497,0.25878050923347473
1789453532016851200,0.532851318359375,0.08077195286750793,-0.27909064292907715,0.4188881516456604
1789453532026791400,0.54279150390625,0.07984674721956253,-0.26917749643325806,0.5639845728874207
1789453532036730400,0.55273046875,0.12841615080833435,-0.29654520750045776,0.6700779795646667
1789453532046670000,0.562670166015625,0.09138990938663483,-0.3779391944408417,0.6604353785514832
1789453532056610300,0.5726103515625,0.006701918318867683,-0.4395847022533417,0.4993427097797394
1789453532066549200,0.58254931640625,-0.05917156860232353,-0.41659465432167053,0.17654797434806824
1789453532076489200,0.5924892578125,-0.14203289151191711,-0.32376325130462646,-0.23234711587429047
1789453532086428200,0.60242822265625,-0.2771141827106476,-0.28685906529426575,-0.6167026162147522
1789453532096368400,0.612368408203125,-0.3940698504447937,-0.1299208700656891,-0.815006673336029
1789453532106307300,0.622307373046875,-0.44209930300712585,0.1397017538547516,-0.7854727506637573
1789453532116247300,0.632247314453125,-0.4385490417480469,0.30600470304489136,-0.6007258296012878
1789453532126186200,0.642186279296875,-0.39198800921440125,0.3183002769947052,-0.3477466404438019
1789453532136126200,0.652126220703125,-0.3152655363082886,0.27324119210243225,-0.09397907555103302
1789453532146065200,0.662065185546875,-0.22276151180267334,0.12897846102714539,0.15419693291187286
1789453532156005000,0.672005126953125,-0.16117724776268005,-0.06563469767570496,0.3656229078769684
1789453532165944300,0.6819443359375,-0.13124623894691467,-0.2051950991153717,0.48271945118904114
1789453532175884300,0.69188427734375,-0.16452829539775848,-0.14645373821258545,0.5439057946205139
1789453532185824300,0.70182421875,-0.22921647131443024,0.025083467364311218,0.5424321293830872
1789453532195763500,0.711763427734375,-0.24567587673664093,0.20228861272335052,0.4760304093360901
1789453532205703200,0.721703125,-0.22802232205867767,0.36386775970458984,0.3533712923526764
1789453532215642000,0.73164208984375,-0.18214085698127747,0.362397164106369,0.24659638106822968
1789453532225582000,0.74158203125,-0.17481176555156708,0.1817294955253601,0.21803465485572815
1789453532235521300,0.751521240234375,-0.23532597720623016,-0.01657266914844513,0.24773821234703064
1789453532245461200,0.761461181640625,-0.32466623187065125,-0.2135925441980362,0.31943216919898987
1789453532255400200,0.771400146484375,-0.3942066729068756,-0.30641356110572815,0.3999405801296234
1789453532265340400,0.78134033203125,-0.48744282126426697,-0.18179355561733246,0.489707887172699
1789453532275279400,0.791279296875,-0.5077943801879883,0.0734480619430542,0.5415599346160889
1789453532285219000,0.801218994140625,-0.453477144241333,0.25212326645851135,0.5548842549324036
1789453532295158300,0.811158203125,-0.36475124955177307,0.3062927722930908,0.5417937636375427
1789453532305098200,0.82109814453125,-0.272811621427536,0.3864181339740753,0.5095015168190002
1789453532315038200,0.8310380859375,-0.22335833311080933,0.3438080847263336,0.4917592704296112
1789453532324977200,0.84097705078125,-0.23094244301319122,0.31977853178977966,0.4538863003253937
1789453532334917400,0.85091748046875,-0.25550585985183716,0.2102627158164978,0.3999921679496765
1789453532344856300,0.860856201171875,-0.2817268669605255,0.110084667801857,0.29033157229423523
1789453532354796300,0.87079638671875,-0.3060529828071594,0.05195637792348862,0.17201025784015656
1789453532364735200,0.8807353515625,-0.28581416606903076,0.02785336598753929,0.08935927599668503
1789453532374675200,0.89067529296875,-0.23076502978801727,0.038832779973745346,0.01583019644021988
1789453532384614100,0.9006142578125,-0.1797768622636795,0.06454536318778992,-0.03650100529193878
1789453532394554000,0.91055419921875,-0.13418912887573242,0.08693589270114899,-0.050483401864767075
1789453532404493300,0.920493408203125,-0.08509622514247894,0.0911376103758812,-0.0331607386469841
1789453532414433300,0.930433349609375,-0.05210604891180992,0.08009587973356247,-0.010704698972404003
1789453532424373200,0.940373291015625,-0.030733516439795494,0.03602375090122223,0.020494235679507256
1789453532434312400,0.9503125,-0.020135998725891113,0.0002431184984743595,0.045629680156707764
1789453532444252200,0.960252197265625,-0.04264315217733383,-0.04507865756750107,0.04905002564191818
1789453532454191000,0.970191162109375,-0.11107520759105682,-0.09560468047857285,0.0419260710477829
1789453532464131300,0.98013134765625,-0.20075705647468567,-0.11200298368930817,0.03711684048175812
1789453532474070300,0.9900703125,-0.2801128923892975,-0.06768159568309784,0.02413712441921234
1789453532484010200,1.00001025390625,-0.31650474667549133,-0.017483266070485115,-0.007673132233321667
1789453532493949200,1.00994921875,-0.3273411691188812,0.01504378393292427,-0.05494584143161774
1789453532503889400,1.019889404296875,-0.3102560043334961,0.05460740998387337,-0.0998261421918869
1789453532513828400,1.029828369140625,-0.2858087122440338,0.05058816820383072,-0.1188696101307869
1789453532523768000,1.03976806640625,-0.26916295289993286,0.006515009794384241,-0.10408063977956772
1789453532533708300,1.049708251953125,-0.27403679490089417,-0.017013486474752426,-0.03927288204431534
1789453532543647200,1.059647216796875,-0.29159387946128845,0.0064402190037071705,0.03833789378404617
1789453532553587200,1.069587158203125,-0.3273199200630188,0.09948654472827911,0.10953351110219955
1789453532563526100,1.079526123046875,-0.35569337010383606,0.2255381941795349,0.15904678404331207
1789453532573466400,1.08946630859375,-0.3879469037055969,0.32138243317604065,0.18941746652126312
1789453532583405300,1.0994052734375,-0.4274947941303253,0.4063262343406677,0.22779695689678192
1789453532593345300,1.10934521484375,-0.4844406247138977,0.4290482997894287,0.2778710126876831
1789453532603284200,1.1192841796875,-0.551703691482544,0.3875558078289032,0.33596181869506836
1789453532613224200,1.12922412109375,-0.6087075471878052,0.3228455185890198,0.39764702320098877
1789453532623163100,1.1391630859375,-0.6255295872688293,0.2430046796798706,0.4260479509830475
1789453532633103000,1.14910302734375,-0.6116588115692139,0.20023910701274872,0.4214979410171509
1789453532643043300,1.159043212890625,-0.5831074714660645,0.21234630048274994,0.38416969776153564
1789453532652982300,1.168982177734375,-0.5512903928756714,0.2303524613380432,0.33292967081069946
1789453532662922200,1.178922119140625,-0.4946105182170868,0.22982333600521088,0.2897578775882721
1789453532672861400,1.188861328125,-0.4388172924518585,0.174859419465065,0.27613314986228943
1789453532682801200,1.19880126953125,-0.4503187835216522,0.12971612811088562,0.29063892364501953
1789453532692740000,1.208739990234375,-0.4975334405899048,0.1464783400297165,0.3399697244167328
1789453532702680300,1.218680419921875,-0.5191274881362915,0.1854006052017212,0.3826988637447357
1789453532712619300,1.228619384765625,-0.530519962310791,0.22373893857002258,0.39825332164764404
1789453532722559200,1.238559326171875,-0.5192746520042419,0.2647704482078552,0.3848157823085785
1789453532732499200,1.248499267578125,-0.49112746119499207,0.29189741611480713,0.340431809425354
1789453532742438400,1.2584384765625,-0.4550522565841675,0.2956148386001587,0.2827658951282501
1789453532752378000,1.268378173828125,-0.4179818630218506,0.2939780354499817,0.23842105269432068
1789453532762317000,1.278317138671875,-0.3817040026187897,0.2612171471118927,0.2050498127937317
1789453532772257300,1.28825732421875,-0.37932446599006653,0.2154664397239685,0.1721121072769165
1789453532782196200,1.2981962890625,-0.38922011852264404,0.1693727970123291,0.1265755295753479
1789453532792136200,1.30813623046875,-0.3781176507472992,0.12798993289470673,0.09919077157974243
1789453532802075100,1.3180751953125,-0.353511780500412,0.11132017523050308,0.06198978051543236
1789453532812015400,1.328015380859375,-0.34600913524627686,0.09985580295324326,0.04207492992281914
1789453532821955300,1.337955322265625,-0.3537815809249878,0.10054412484169006,0.04940985515713692
1789453532831894300,1.347894287109375,-0.3886900246143341,0.08483041077852249,0.060226552188396454
1789453532841834200,1.357834228515625,-0.42628228664398193,0.02108144946396351,0.05039757490158081
1789453532851773200,1.367773193359375,-0.4305531978607178,-0.02939823642373085,-0.00934751145541668
1789453532861713200,1.377713134765625,-0.3862975239753723,-0.027221396565437317,-0.10699915885925293
1789453532871652000,1.387652099609375,-0.2677205502986908,0.044150520116090775,-0.2134515792131424
1789453532881592300,1.39759228515625,-0.12754666805267334,0.11720556020736694,-0.3017420172691345
1789453532891531300,1.40753125,-0.044045381247997284,0.12716178596019745,-0.3445131778717041
1789453532901471200,1.41747119140625,0.006214235443621874,0.12001995742321014,-0.3039078712463379
1789453532911411200,1.4274111328125,0.02374555729329586,0.14143604040145874,-0.1996632218360901
1789453532921350100,1.43735009765625,0.006254834122955799,0.11143713444471359,-0.050158482044935226
1789453532931291000,1.447290771484375,-0.050663042813539505,0.034998819231987,0.07324414700269699
1789453532941229800,1.457229736328125,-0.05680560693144798,-0.04582422599196434,0.08351361751556396
1789453532951170000,1.467170166015625,-0.0246463380753994,-0.04703010618686676,-0.0006510645616799593
1789453532961109000,1.47710888671875,-0.0036816217470914125,-0.011756922118365765,-0.11600153893232346
1789453532971048700,1.487048583984375,0.05980920419096947,0.04119870439171791,-0.22515013813972473
1789453532980988000,1.49698779296875,0.1651068776845932,0.1276213675737381,-0.2714744508266449
1789453532990928000,1.506927978515625,0.2609492540359497,0.18242868781089783,-0.2304907888174057
1789453533000867800,1.516867919921875,0.2968696057796478,0.2098236232995987,-0.1460472047328949
1789453533010806800,1.526806884765625,0.2975729703903198,0.2179689109325409,-0.06720670312643051
1789453533020747000,1.5367470703125,0.2052954137325287,-0.05980033054947853,0.0827980488538742
1789453533030686000,1.54668603515625,0.15083962678909302,-0.24674011766910553,0.09724036604166031
1789453533040626000,1.5566259765625,0.14860564470291138,-0.3442371189594269,-0.04311534762382507
1789453533050565000,1.566565185546875,0.13109375536441803,-0.3804747760295868,-0.24447856843471527
1789453533060504800,1.5765048828125,0.13276462256908417,-0.336559921503067,-0.4395644962787628
1789453533070444800,1.58644482421875,0.13656176626682281,-0.3002557158470154,-0.5923939943313599
1789453533080384000,1.596384033203125,0.13312891125679016,-0.32154881954193115,-0.6640986204147339
1789453533090324000,1.606323974609375,0.13725174963474274,-0.3891102969646454,-0.6511447429656982
1789453533100263000,1.616262939453125,0.1394190937280655,-0.5772694945335388,-0.5967109203338623
1789453533110203000,1.626202880859375,0.14657926559448242,-0.8779374957084656,-0.5298889875411987
1789453533120142000,1.63614208984375,0.13952088356018066,-1.17146897315979,-0.43162915110588074
1789453533130081800,1.646081787109375,0.24448005855083466,-1.3399873971939087,-0.4383517801761627
1789453533140020700,1.656020751953125,0.2353862226009369,-1.3757820129394531,-0.45762383937835693
1789453533149961000,1.6659609375,0.248753160238266,-1.3721349239349365,-0.6040857434272766
1789453533159901000,1.67590087890625,-0.05901147425174713,-1.431959629058838,-0.812586784362793
1789453533169839900,1.68583984375,-0.2932572662830353,-1.4322624206542969,-0.9432222843170166
1789453533179780000,1.695780029296875,-0.4322139024734497,-1.764874815940857,-1.1066575050354004
1789453533189719000,1.705718994140625,-0.22973616421222687,-2.165595054626465,-1.0742943286895752
1789453533199658800,1.71565869140625,0.18539299070835114,-2.4777543544769287,-1.0628799200057983
1789453533209598000,1.725597900390625,0.6457555294036865,-2.5593671798706055,-1.1544582843780518
1789453533219538000,1.735537841796875,0.9704784154891968,-2.25337290763855,-1.2395597696304321
1789453533229478000,1.745477783203125,1.4353885650634766,-2.3278424739837646,-1.382198691368103
1789453533239416800,1.755416748046875,2.02461838722229,-2.73081374168396,-1.3773853778839111
1789453533249357000,1.765357177734375,2.562101364135742,-2.8346078395843506,-1.042871356010437
1789453533259296000,1.7752958984375,3.072956085205078,-2.8328917026519775,-0.5037742853164673
1789453533269236000,1.785236083984375,3.537019729614258,-2.7580668926239014,0.07070575654506683
1789453533279175000,1.7951748046875,4.022743225097656,-2.6927754878997803,0.4891353249549866
1789453533289115000,1.805114990234375,4.325139045715332,-2.477151393890381,0.8794400095939636
1789453533299054800,1.815054931640625,4.2394328117370605,-2.4525997638702393,1.4574923515319824
1789453533308993800,1.824993896484375,3.880451202392578,-2.5962743759155273,1.9763720035552979
1789453533318934000,1.83493408203125,3.3492650985717773,-2.6668202877044678,2.271871566772461
1789453533328873000,1.844873046875,3.0556297302246094,-2.9009294509887695,2.516282081604004
1789453533338813000,1.85481298828125,3.0919229984283447,-3.5052900314331055,2.8348662853240967
1789453533348752100,1.864752197265625,3.2456674575805664,-4.256757736206055,2.728241443634033
1789453533358691800,1.87469189453125,3.6930480003356934,-4.710896015167236,2.0099706649780273
1789453533368630800,1.884630859375,4.432959079742432,-4.460839748382568,1.2150431871414185
1789453533378570800,1.89457080078125,5.148072242736816,-3.890169143676758,0.3980609178543091
1789453533388511000,1.904510986328125,5.525155067443848,-3.380911111831665,-0.1602145880460739
1789453533398450000,1.914449951171875,5.52938985824585,-3.1018667221069336,-0.39703869819641113
1789453533408390000,1.924389892578125,5.087026596069336,-2.9403445720672607,-0.2773043215274811
1789453533418329000,1.9343291015625,4.743586540222168,-3.1311919689178467,-0.02787664718925953
1789453533428268800,1.944268798828125,4.355710029602051,-3.0688111782073975,0.6992318630218506
1789453533438207700,1.954207763671875,3.923130750656128,-2.6808688640594482,1.1473815441131592
1789453533448148000,1.96414794921875,3.612074851989746,-2.6404547691345215,1.4925622940063477
1789453533458088000,1.974087890625,3.547353506088257,-2.6712348461151123,1.9696053266525269
1789453533468027000,1.98402685546875,3.6061723232269287,-3.2442479133605957,2.587878465652466
1789453533477966800,1.993966796875,3.8735318183898926,-3.7290892601013184,2.9924237728118896
1789453533487906000,2.003906005859375,3.8818647861480713,-3.8322653770446777,3.1966123580932617
1789453533497846000,2.013845947265625,3.917807102203369,-3.3756728172302246,2.997933864593506
1789453533507785700,2.02378564453125,3.8757240772247314,-2.968702554702759,2.5365898609161377
1789453533517725000,2.033724853515625,3.943755865097046,-1.7697745561599731,1.7821192741394043
1789453533527665000,2.043664794921875,4.033931255340576,-0.11621920019388199,0.669379711151123
1789453533537603800,2.053603759765625,4.042842388153076,1.2845484018325806,-0.944381594657898
1789453533547544000,2.0635439453125,3.8180899620056152,2.26537823677063,-2.639261245727539
1789453533557483000,2.07348291015625,3.5066215991973877,3.3088648319244385,-4.056493282318115
1789453533567423000,2.083423095703125,3.2237117290496826,4.112095355987549,-5.055221080780029
1789453533577363000,2.093363037109375,2.8744451999664307,3.470667600631714,-5.6501665115356445
1789453533587302000,2.103302001953125,2.8216049671173096,4.119483470916748,-5.142721176147461
1789453533597241900,2.113241943359375,3.17315411567688,4.3214569091796875,-3.9735677242279053
1789453533607180800,2.123180908203125,3.5654282569885254,4.74409294128418,-2.226534605026245
1789453533617121000,2.13312109375,3.79125714302063,4.04597282409668,-0.848497211933136
1789453533627060000,2.14306005859375,3.887415885925293,3.5477685928344727,0.33462733030319214
1789453533637000000,2.153,3.4457499980926514,2.154738426208496,0.8291168808937073
1789453533646940000,2.16293994140625,2.0898170471191406,-2.6030983924865723,1.3274312019348145
1789453533656878800,2.17287890625,2.335082769393921,-2.343770742416382,3.0994648933410645
1789453533666818800,2.18281884765625,3.199491500854492,-1.8386026620864868,4.079610824584961
1789453533676757800,2.1927578125,3.3702199459075928,-1.6938809156417847,4.3353657722473145
1789453533686698000,2.202697998046875,3.00978684425354,-1.0981571674346924,4.208155632019043
1789453533696637000,2.212636962890625,1.9222534894943237,-0.40409567952156067,2.0723791122436523
1789453533706577000,2.222576904296875,0.6842758655548096,-0.47605934739112854,0.17783591151237488
1789453533716516900,2.232516845703125,-0.028606152161955833,-1.7270203828811646,-0.0616195984184742
1789453533726455800,2.242455810546875,-0.40048861503601074,-2.372448444366455,1.430873155593872
1789453533736395800,2.252395751953125,-0.6848233342170715,-2.129016160964966,1.731394648551941
1789453533746334700,2.262334716796875,-0.7232421040534973,-1.3891173601150513,0.08087959885597229
1789453533756275000,2.27227490234375,-1.202580213546753,-2.4916956424713135,0.35231098532676697
1789453533766214000,2.2822138671875,-1.6406606435775757,-3.225696086883545,0.9847065210342407
1789453533776153900,2.29215380859375,-1.7628027200698853,-3.1117024421691895,0.8714876174926758
1789453533786093800,2.30209375,-1.7165641784667969,-2.573190927505493,-0.3866021931171417
1789453533796033000,2.312032958984375,-1.8462886810302734,-2.6763925552368164,-1.396602988243103
1789453533805972700,2.32197265625,-2.146289348602295,-3.445824384689331,-1.4275012016296387
1789453533815912000,2.331911865234375,-2.459017515182495,-4.108453273773193,-0.9542029500007629
1789453533825852000,2.341851806640625,-2.7171201705932617,-4.469731330871582,-0.5860036015510559
1789453533835790800,2.351790771484375,-2.7735540866851807,-4.459406852722168,-0.4903840124607086
1789453533845731000,2.36173095703125,-2.5785531997680664,-4.211029529571533,-0.5812953114509583
1789453533855671000,2.371671142578125,-2.009845495223999,-3.8953869342803955,-0.7275086641311646
1789453533865610000,2.38160986328125,-0.8265633583068848,-3.522861957550049,-0.6920116543769836
1789453533875549700,2.3915498046875,0.6740525960922241,-3.4288837909698486,-0.7858155369758606
1789453533885489000,2.401489013671875,0.0395752377808094,-2.8424789905548096,-1.093921422958374
1789453533895428900,2.411428955078125,-0.584044873714447,-2.3836545944213867,-1.0431241989135742
1789453533905367800,2.421367919921875,-1.1381207704544067,-1.884513258934021,-0.787009596824646
1789453533915308000,2.43130810546875,-1.5869261026382446,-1.4246281385421753,-0.504778265953064
1789453533925247500,2.44124755859375,-1.7856112718582153,-1.293511152267456,-0.4791269302368164
1789453533935187500,2.4511875,-1.7900750637054443,-1.1324365139007568,-0.1881980448961258
1789453533945126400,2.46112646484375,-1.686676025390625,-0.9835190176963806,0.05639440193772316
1789453533955066400,2.47106640625,-1.264371395111084,-0.8130424618721008,0.048136331140995026
1789453533965005300,2.48100537109375,-0.9499391913414001,-0.5406711101531982,-0.11856529861688614
1789453533974945300,2.4909453125,-0.6365558505058289,-0.5270922780036926,-0.27272215485572815
1789453533984885500,2.500885498046875,0.2729048728942871,-1.7512071132659912,0.963344395160675
1789453533994824400,2.510824462890625,-0.44804075360298157,-1.2557495832443237,0.8423058390617371
1789453534004764400,2.520764404296875,-0.7780407667160034,-0.9574017524719238,0.4688238501548767
1789453534014703600,2.53070361328125,-0.7560123205184937,-1.0660761594772339,0.5725993514060974
1789453534024643300,2.540643310546875,-0.8915770649909973,-1.1887632608413696,0.7139798998832703
1789453534034582300,2.550582275390625,-1.0703537464141846,-1.2296209335327148,0.7713727951049805
1789453534044522200,2.560522216796875,-1.0605336427688599,-1.1716748476028442,0.7029277086257935
1789453534054461400,2.57046142578125,-0.8216624855995178,-1.0927551984786987,0.648284912109375
1789453534064401400,2.5804013671875,-0.6664981842041016,-0.8914065361022949,0.6040900349617004
1789453534074341400,2.59034130859375,-0.6733542680740356,-0.688288688659668,0.48138952255249023
1789453534084280600,2.600280517578125,-0.8162254095077515,-0.534736692905426,0.33268260955810547
1789453534094220300,2.61022021484375,-0.9110137224197388,-0.42951977252960205,0.169431671500206
1789453534104159200,2.6201591796875,-0.8708231449127197,-0.29431986808776855,0.011818875558674335
1789453534114099500,2.630099365234375,-0.6569243669509888,-0.043942034244537354,-0.10750921815633774
1789453534124039400,2.640039306640625,-0.7137290239334106,0.09094680845737457,-0.02453657239675522
1789453534133978400,2.649978271484375,-0.9891415238380432,0.4169044494628906,0.14238408207893372
1789453534143918600,2.659918701171875,-1.3806759119033813,0.612342119216919,0.10407290607690811
1789453534153857500,2.669857421875,-1.7670722007751465,0.453464150428772,-0.0233592726290226
1789453534163797500,2.679797607421875,-2.4793169498443604,0.5997377038002014,-0.15926651656627655
1789453534173736400,2.689736328125,-2.117967128753662,0.9710981845855713,-0.09566127508878708
1789453534183676400,2.699676513671875,-0.49768102169036865,0.8305346965789795,0.03840838000178337
1789453534193616400,2.709616455078125,0.6108983755111694,0.6227962374687195,-0.0039703212678432465
1789453534203555300,2.719555419921875,0.5809261202812195,0.3257698714733124,0.015510967932641506
1789453534213495600,2.72949560546875,0.19926689565181732,-0.11082902550697327,0.21499215066432953
1789453534223434500,2.7394345703125,0.12521210312843323,-0.3198016881942749,0.2992255389690399
1789453534233374500,2.74937451171875,0.13525602221488953,-0.3787488639354706,0.2364879846572876
1789453534243313400,2.7593134765625,0.06155729666352272,-0.432290643453598,0.19196313619613647
1789453534253253400,2.76925341796875,-0.07924225926399231,-0.5892435908317566,0.17139261960983276
1789453534263193300,2.779193359375,-0.2523815333843231,-0.838546097278595,0.1575780063867569
1789453534273132300,2.78913232421875,-0.3686889708042145,-1.0557193756103516,0.18544211983680725
1789453534283072500,2.799072509765625,-0.3948492109775543,-1.1356406211853027,0.13578934967517853
1789453534293011500,2.809011474609375,-0.37540003657341003,-0.9040849208831787,-0.08395049721002579
1789453534302951400,2.818951416015625,-0.2923102378845215,-0.511642575263977,-0.3627168834209442
1789453534312890400,2.828890380859375,-0.20391163229942322,-0.1116979718208313,-0.6077436208724976
1789453534322830300,2.838830322265625,-0.12730447947978973,0.20464694499969482,-0.881026029586792
1789453534332770300,2.848770263671875,-0.0540832057595253,0.30542856454849243,-1.0936689376831055
1789453534342709200,2.858709228515625,0.013634856790304184,0.24301178753376007,-1.0638469457626343
1789453534352649500,2.8686494140625,0.06772425770759583,0.17666450142860413,-0.9897299408912659
1789453534362588400,2.87858837890625,0.09549596905708313,0.14018292725086212,-0.8628910183906555
1789453534372528400,2.8885283203125,0.06852460652589798,0.11168031394481659,-0.6828550696372986
1789453534382468400,2.89846826171875,0.12027382105588913,0.030786268413066864,-0.659512996673584
1789453534392407300,2.9084072265625,0.09785941243171692,-0.05690104141831398,-0.597777783870697
1789453534402347300,2.91834716796875,-0.19860368967056274,0.14376309514045715,-0.4286617636680603
1789453534412286500,2.928286376953125,-0.4267541170120239,1.2582613229751587,-0.37846216559410095
1789453534422226400,2.938226318359375,-0.30674275755882263,1.849688172340393,-0.7489592432975769
1789453534432165400,2.948165283203125,-0.32151708006858826,1.363033652305603,-0.7462548017501831
1789453534442105300,2.958105224609375,-0.30579349398612976,0.05154942721128464,0.16090171039104462
1789453534452045600,2.968045654296875,-0.32713955640792847,-0.477271169424057,0.5393150448799133
1789453534461984500,2.977984619140625,-0.3393024802207947,-0.23959335684776306,0.19622129201889038
1789453534471924200,2.98792431640625,-0.3203714191913605,-0.16147330403327942,-0.07532777637243271
1789453534481863400,2.997863525390625,-0.26903873682022095,-0.28537049889564514,-0.11037178337574005
1789453534491803400,3.007803466796875,-0.171482652425766,-0.12182629108428955,-0.1306760013103485
1789453534501742300,3.017742431640625,-0.030152147635817528,0.1487056016921997,-0.26302605867385864
1789453534511682600,3.0276826171875,0.05944894999265671,0.32347655296325684,-0.2936229109764099
1789453534521622500,3.03762255859375,-0.0770212709903717,0.37057775259017944,-0.19253328442573547
1789453534531561500,3.0475615234375,-0.31309518218040466,0.38898760080337524,-0.13079716265201569
1789453534541501400,3.05750146484375,-0.5093978643417358,0.4959750473499298,-0.012015379033982754
1789453534551440400,3.0674404296875,-0.5716097950935364,0.6092461943626404,-0.049334730952978134
1789453534561380400,3.07738037109375,-0.582107424736023,0.4981481730937958,-0.12311068922281265
1789453534571320300,3.0873203125,-0.36861351132392883,0.10508514940738678,-0.1772216558456421
1789453534581259500,3.097259521484375,-0.0742948055267334,-0.366447776556015,-0.4830803871154785
1789453534591199500,3.107199462890625,0.015189439058303833,-1.7735494375228882,-1.473629117012024
1789453534601138400,3.117138427734375,0.43004468083381653,-2.942671298980713,-1.7649198770523071
1789453534611078400,3.127078369140625,0.8792269229888916,-2.293229341506958,-1.2014970779418945
1789453534621017300,3.137017333984375,0.7051752805709839,0.07531604915857315,-0.1810445785522461
1789453534630957300,3.146957275390625,0.5623087882995605,0.7465574145317078,0.2320462316274643
1789453534640897500,3.1568974609375,0.5843134522438049,0.6014577746391296,0.3202035129070282
1789453534650836500,3.16683642578125,0.6254988312721252,0.36131131649017334,0.3859560191631317
1789453534660776400,3.1767763671875,0.6984774470329285,0.3590702712535858,0.3152320683002472
1789453534670715400,3.18671533203125,0.7281665802001953,0.4124644696712494,0.34759196639060974
1789453534680655400,3.1966552734375,0.7539651393890381,0.41963690519332886,0.2934195399284363
1789453534690594600,3.206594482421875,0.881771981716156,0.5720654129981995,0.2199067771434784
1789453534700534300,3.2165341796875,1.0553573369979858,0.652353823184967,0.11352946609258652
1789453534710474500,3.226474609375,1.275827169418335,0.6189115047454834,-0.07882516086101532
1789453534720413400,3.236413330078125,1.6063060760498047,0.6821660995483398,-0.2502443194389343
1789453534730353400,3.246353515625,1.7556028366088867,1.0959181785583496,-0.205389603972435
1789453534740292400,3.256292236328125,1.755198359489441,1.3567255735397339,-0.24942390620708466
1789453534750232600,3.266232666015625,1.736802577972412,1.2266042232513428,-0.33386337757110596
1789453534760172300,3.27617236328125,1.638614296913147,0.8541851043701172,-0.27803605794906616
1789453534770111200,3.286111328125,1.5548970699310303,0.5236780643463135,-0.2712481915950775
1789453534780051500,3.296051513671875,1.706656813621521,0.28867200016975403,-0.45113858580589294
1789453534789990400,3.305990478515625,2.0455713272094727,-0.09095881879329681,-0.8337500691413879
1789453534799930400,3.315930419921875,2.6996262073516846,-1.1189643144607544,-1.4056806564331055
1789453534809869300,3.325869384765625,3.714428663253784,-1.8979283571243286,-1.603286623954773
1789453534819809500,3.3358095703125,4.103522777557373,-1.6426957845687866,-1.0535247325897217
1789453534829749200,3.345749267578125,3.4065210819244385,-0.5783504843711853,-0.4634615480899811
1789453534839688200,3.355688232421875,2.871107578277588,0.19337795674800873,-0.4940652549266815
1789453534849628400,3.36562841796875,2.6348307132720947,0.38536274433135986,-0.41475340723991394
1789453534859567400,3.3755673828125,2.5323824882507324,0.10110146552324295,-0.2765294909477234
1789453534869507300,3.38550732421875,2.3355143070220947,-0.09966710209846497,-0.17890161275863647
1789453534879446500,3.395446533203125,2.0891990661621094,-0.16046147048473358,-0.16053910553455353
1789453534889386500,3.405386474609375,1.9539278745651245,-0.19730831682682037,-0.1561087667942047
1789453534899326200,3.415326171875,1.9737942218780518,-0.3653452694416046,-0.08431047201156616
1789453534909265400,3.425265380859375,2.055846691131592,-0.5475694537162781,0.034114278852939606
1789453534919205400,3.435205322265625,2.131093740463257,-0.7092195749282837,0.11963503807783127
1789453534929144600,3.44514453125,2.077666997909546,-0.9431172013282776,0.25511008501052856
1789453534939084800,3.455084716796875,1.9552706480026245,-1.1235370635986328,0.4840676188468933
1789453534949024800,3.465024658203125,1.5405664443969727,-1.032747507095337,0.7590957283973694
1789453534958963700,3.474963623046875,0.9738678932189941,-0.7880927324295044,0.8814618587493896
1789453534968903400,3.4849033203125,0.5587979555130005,-0.538942813873291,0.2764095962047577
1789453534978842600,3.494842529296875,1.0640491247177124,-1.0914150476455688,-1.1863174438476562
1789453534988782600,3.504782470703125,1.84954035282135,-0.6647522449493408,-0.4959930181503296
1789453534998721500,3.514721435546875,2.2208828926086426,0.127207949757576,-0.5428295135498047
1789453535008661800,3.524661865234375,2.3382716178894043,0.316135048866272,-0.5824737548828125
1789453535018601700,3.534601806640625,2.0954692363739014,-0.017663681879639626,-0.5590190291404724
1789453535028540700,3.544540771484375,1.562265396118164,-0.6983940601348877,-0.8989351987838745
1789453535038480600,3.554480712890625,0.8172519207000732,-0.4296552836894989,-1.0926021337509155
1789453535048419800,3.564419921875,0.06892050057649612,-0.013624157756567001,-0.9206508994102478
1789453535058359600,3.574359619140625,0.07426279783248901,0.1878136247396469,-0.5150173902511597
1789453535068299800,3.5842998046875,0.15266481041908264,0.33328285813331604,-0.1290217489004135
1789453535078238700,3.59423876953125,0.23227308690547943,0.2862977683544159,0.11304520815610886
1789453535088178700,3.6041787109375,0.38726556301116943,0.15869401395320892,0.2657942473888397
1789453535098117600,3.61411767578125,0.6599969267845154,-0.17210760712623596,0.07984036207199097
1789453535108057900,3.624057861328125,0.5578488111495972,-0.391624391078949,-0.2152191400527954
1789453535117996800,3.633996826171875,0.6698022484779358,0.5308045744895935,0.005879157222807407
1789453535127936500,3.6439365234375,0.8822171092033386,0.30231669545173645,0.40606871247291565
1789453535137876700,3.653876708984375,0.29545482993125916,-0.7176300287246704,0.8650091290473938
1789453535147815700,3.663815673828125,-0.4174153506755829,-0.492394357919693,0.09274200350046158
1789453535157755600,3.673755615234375,-0.18295785784721375,0.12443476170301437,0.22477753460407257
1789453535167694600,3.683694580078125,0.5769663453102112,0.19804739952087402,0.14779530465602875
1789453535177634800,3.693634765625,1.4247159957885742,-0.8091411590576172,0.7978100776672363
1789453535187574500,3.703574462890625,1.1780598163604736,-1.087733507156372,0.5139486193656921
1789453535197513500,3.713513427734375,1.4012609720230103,-0.9114476442337036,1.0488033294677734
1789453535207453700,3.72345361328125,1.4407498836517334,-0.9965471625328064,1.4587059020996094
1789453535217392600,3.733392578125,0.9195447564125061,-0.7655853033065796,1.0849337577819824
1789453535227332600,3.74333251953125,1.5193580389022827,-0.8043964505195618,1.1874017715454102
1789453535237272800,3.75327294921875,3.048140048980713,-1.118855357170105,2.130507469177246
1789453535247211800,3.763211669921875,3.3910939693450928,0.572973906993866,2.730865716934204
1789453535257151500,3.7731513671875,2.979671001434326,1.7167648077011108,2.7121965885162354
1789453535267090400,3.78309033203125,3.148202419281006,-0.2707763910293579,1.4042655229568481
1789453535277030700,3.79303076171875,3.280113697052002,1.002092957496643,-0.42539945244789124
1789453535286969600,3.802969482421875,1.940588116645813,1.3396894931793213,-1.4026532173156738
1789453535296909600,3.81290966796875,2.4380548000335693,0.8440467715263367,-1.449410319328308
1789453535306849800,3.822849853515625,3.0958452224731445,0.09067738056182861,0.3779251277446747
1789453535316788700,3.832788818359375,1.7106119394302368,-0.7423192262649536,2.2950499057769775
1789453535326728700,3.842728759765625,0.3098171651363373,-0.5587765574455261,3.0588862895965576
1789453535336667600,3.852667724609375,-0.10442768782377243,-0.9812117218971252,2.608306646347046
1789453535346607600,3.862607666015625,-0.27237048745155334,-1.2467409372329712,1.6099504232406616
1789453535356547600,3.872547607421875,-0.4240921139717102,-0.8967754244804382,0.7337067127227783
1789453535366486500,3.882486572265625,-0.7713528871536255,-0.38808533549308777,0.2749045193195343
1789453535376426800,3.8924267578125,-1.039406180381775,-0.0876152440905571,0.00778841320425272
1789453535386365700,3.90236572265625,-1.0702271461486816,-0.034550491720438004,-0.18862242996692657
1789453535396305700,3.9123056640625,-1.0139577388763428,-0.3040139079093933,-0.3656326234340668
1789453535406245600,3.92224560546875,-0.6941434144973755,-0.7363657355308533,-0.2170257419347763
1789453535416184600,3.9321845703125,-0.6218487024307251,-0.01064128614962101,-0.987551212310791
1789453535426124500,3.94212451171875,-0.5950791239738464,0.08172832429409027,-1.108524203300476
1789453535436063700,3.952063720703125,-0.509709894657135,-0.008027926087379456,-1.3591697216033936
1789453535446003700,3.962003662109375,-0.46959224343299866,-0.08749832957983017,-1.469636082649231
1789453535455943700,3.971943603515625,-0.43089917302131653,-0.16539551317691803,-1.4282662868499756
1789453535465882600,3.981882568359375,-0.329645037651062,-0.25821495056152344,-1.5000451803207397
1789453535475822600,3.991822509765625,-0.23338080942630768,-0.1260118931531906,-1.5953059196472168
1789453535485761500,4.001761474609375,-0.044119030237197876,-0.052782729268074036,-1.7373335361480713
1789453535495701500,4.011701416015625,0.027426792308688164,0.11692748218774796,-1.9063262939453125
1789453535505640700,4.021640625,0.07798603922128677,0.18405945599079132,-1.9582021236419678
1789453535515580700,4.03158056640625,0.11169207096099854,0.10526663064956665,-1.8962604999542236
1789453535525520600,4.041520751953125,0.06744178384542465,-0.0764528289437294,-1.6672906875610352
1789453535535459800,4.0514599609375,-0.008979755453765392,-0.25308194756507874,-1.3866572380065918
1789453535545399600,4.061399658203125,-0.14105990529060364,-0.2891562283039093,-1.1378713846206665
1789453535555338500,4.07133837890625,-0.29471203684806824,-0.05768545717000961,-1.0160144567489624
1789453535565278700,4.08127880859375,-0.23267808556556702,0.33895212411880493,-0.7863131761550903
1789453535575218700,4.09121875,-0.005285397171974182,0.4704800546169281,-0.7577068209648132
1789453535585157600,4.10115771484375,0.0005019959062337875,0.4690733551979065,-1.1307587623596191
1789453535595097600,4.11109765625,-0.0739930048584938,0.41030192375183105,-1.3856920003890991
1789453535605036800,4.121036865234375,-0.38556841015815735,0.4071556329727173,-1.4780250787734985
1789453535614976800,4.130976806640625,-0.648645281791687,0.4385734796524048,-1.5189520120620728
1789453535624916500,4.14091650390625,-0.7055718898773193,0.21701458096504211,-1.3841619491577148
1789453535634855700,4.150855712890625,-0.29269641637802124,-0.23460960388183594,-1.2069730758666992
1789453535644795600,4.160795654296875,-0.09589551389217377,-0.20095668733119965,-1.053252100944519
1789453535654734600,4.170734619140625,-0.10511671006679535,-0.0881880447268486,-0.9217992424964905
1789453535664674800,4.1806748046875,-0.13140293955802917,0.06440768390893936,-0.894488513469696
1789453535674614800,4.19061474609375,-0.1561967134475708,0.1999727189540863,-0.9228072166442871
1789453535684553700,4.2005537109375,-0.18067419528961182,0.20390254259109497,-0.9415989518165588
1789453535694493700,4.21049365234375,-0.17580007016658783,0.08933894336223602,-0.9456285834312439
1789453535704432600,4.2204326171875,-0.1578873246908188,-0.06771428138017654,-0.9284752607345581
1789453535714372600,4.23037255859375,-0.15991371870040894,-0.1874830275774002,-0.8535453677177429
1789453535724312600,4.2403125,-0.20660506188869476,-0.2653346657752991,-0.7338048815727234
1789453535734251800,4.250251708984375,-0.2632238566875458,-0.25854095816612244,-0.6128613948822021
1789453535744191700,4.260191650390625,-0.3438696563243866,-0.16245487332344055,-0.5281506180763245
1789453535754130700,4.270130615234375,-0.41384047269821167,-0.10842518508434296,-0.48221561312675476
1789453535764070700,4.280070556640625,-0.4511986970901489,-0.1565193235874176,-0.4855769872665405
1789453535774010600,4.2900107421875,-0.48440566658973694,-0.29785194993019104,-0.5165703296661377
1789453535783949600,4.299949462890625,-0.5304311513900757,-0.41995301842689514,-0.5556891560554504
1789453535793889800,4.309889892578125,-0.6061919331550598,-0.41265302896499634,-0.5866764187812805
1789453535803828700,4.319828857421875,-0.6669893860816956,-0.2841123342514038,-0.5961064696311951
1789453535813768700,4.329768798828125,-0.6855902075767517,-0.11078555136919022,-0.6116063594818115
1789453535823708700,4.339708740234375,-0.6646052002906799,0.04460320994257927,-0.6201152801513672
1789453535833647600,4.349647705078125,-0.6030986905097961,0.010716879740357399,-0.6192066073417664
1789453535843587600,4.359587646484375,-0.5752983093261719,-0.1293836236000061,-0.6245520710945129
1789453535853526500,4.369526611328125,-0.5806592702865601,-0.22682255506515503,-0.6105954647064209
1789453535863466800,4.379466796875,-0.5701765418052673,-0.25691360235214233,-0.5638259053230286
1789453535873406700,4.38940673828125,-0.5639902949333191,-0.23400482535362244,-0.5302639603614807
1789453535883345700,4.399345703125,-0.5742291808128357,-0.20824876427650452,-0.544501543045044
1789453535893285600,4.40928564453125,-0.6053836345672607,-0.17746715247631073,-0.5896695256233215
1789453535903224800,4.419224853515625,-0.6533288359642029,-0.1805521845817566,-0.6349927186965942
1789453535913164500,4.42916455078125,-0.7554299235343933,-0.09097569435834885,-0.6674249768257141
1789453535923104800,4.439104736328125,-0.8095846176147461,-0.10047782212495804,-0.6607040166854858
1789453535933043700,4.449043701171875,-0.8105582594871521,-0.2102130949497223,-0.6292893886566162
1789453535942983700,4.458983642578125,-0.7935538291931152,-0.25543174147605896,-0.6362068057060242
1789453535952922600,4.468922607421875,-0.7419585585594177,-0.33966967463493347,-0.6605510115623474
1789453535962862800,4.47886279296875,-0.7006811499595642,-0.47166672348976135,-0.7214296460151672
1789453535972802600,4.488802490234375,-0.7058138251304626,-0.5020752549171448,-0.7558808326721191
1789453535982741500,4.498741455078125,-0.7547120451927185,-0.5141299962997437,-0.7437676191329956
1789453535992681700,4.508681640625,-0.8068380951881409,-0.5352493524551392,-0.7144787311553955
1789453536002620700,4.51862060546875,-0.8008245229721069,-0.4263741075992584,-0.7239636182785034
1789453536012560600,4.528560546875,-0.7141146659851074,-0.42988547682762146,-0.7574906945228577
1789453536022500900,4.5385009765625,-0.6396638751029968,-0.5266790986061096,-0.7693268656730652
1789453536032439800,4.548439697265625,-0.6926003098487854,-0.38075679540634155,-0.6940837502479553
1789453536042379500,4.558379638671875,-0.7104517221450806,-0.48520731925964355,-0.6866213083267212
1789453536052318500,4.568318359375,-0.7473652958869934,-0.5644155740737915,-0.6607913374900818
1789453536062258700,4.5782587890625,-0.8556644916534424,-0.29558226466178894,-0.5612232089042664
1789453536072198700,4.58819873046875,-0.8504074215888977,-0.2601667642593384,-0.541756808757782
1789453536082137600,4.5981376953125,-0.8148693442344666,-0.32222869992256165,-0.578898012638092
1789453536092077800,4.608077880859375,-0.8109358549118042,-0.3113667368888855,-0.6098127961158752
1789453536102017500,4.618017578125,-0.8288133144378662,-0.22942975163459778,-0.5914199948310852
1789453536111956500,4.62795654296875,-0.8133933544158936,-0.24657465517520905,-0.5513343811035156
1789453536121896700,4.637896728515625,-0.7603479623794556,-0.32048335671424866,-0.535262942314148
1789453536131835600,4.647835693359375,-0.702117383480072,-0.301069438457489,-0.5130534768104553
1789453536141775600,4.657775634765625,-0.7096856832504272,-0.03919475898146629,-0.40104472637176514
1789453536151715800,4.6677158203125,-0.5518859624862671,-0.1955564022064209,-0.38861626386642456
1789453536161654800,4.67765478515625,-0.5110270380973816,-0.16719619929790497,-0.37954825162887573
1789453536171594500,4.687594482421875,-0.5767152309417725,0.05078938603401184,-0.364657461643219
1789453536181533700,4.69753369140625,-0.6142792701721191,0.22174575924873352,-0.37829867005348206
1789453536191473700,4.7074736328125,-0.6177022457122803,0.32861173152923584,-0.36977389454841614
1789453536201413600,4.71741357421875,-0.5949621796607971,0.572864294052124,-0.2684672772884369
1789453536211352600,4.7273525390625,-0.4085078835487366,0.2714623808860779,-0.22899390757083893
1789453536221292800,4.737292724609375,-0.3009689748287201,0.34359869360923767,-0.05631797015666962
1789453536231231700,4.747231689453125,-0.18338723480701447,0.4058080017566681,0.00523993419483304
1789453536241171700,4.757171630859375,-0.09989365935325623,0.46429505944252014,-0.06865145266056061
1789453536251111700,4.767111572265625,-0.047185175120830536,0.45720571279525757,-0.05933012440800667
1789453536261050600,4.777050537109375,-0.0019939637277275324,0.40224018692970276,0.010477575473487377
1789453536270990600,4.786990478515625,0.03457709401845932,0.3525732755661011,0.07740707695484161
1789453536280929500,4.796929443359375,0.062299586832523346,0.2908368408679962,0.18199799954891205
1789453536290869800,4.806869873046875,0.04711823910474777,0.24645310640335083,0.1970730870962143
1789453536300809700,4.816809814453125,0.05887019261717796,0.2500942051410675,0.18500763177871704
1789453536310748700,4.826748779296875,0.07455434650182724,0.22812125086784363,0.24114707112312317
1789453536320688600,4.836688720703125,0.1245565265417099,0.2569217383861542,0.30882972478866577
1789453536330628600,4.846628662109375,0.14921393990516663,0.2121151089668274,0.32610777020454407
1789453536340567600,4.856567626953125,0.1664847582578659,0.16133636236190796,0.3599807918071747
1789453536350507800,4.8665078125,0.1904875636100769,0.0689808651804924,0.41238805651664734
1789453536360446700,4.87644677734375,0.24714548885822296,0.010193528607487679,0.43724846839904785
1789453536370386700,4.88638671875,0.3681179881095886,-0.03577689081430435,0.45226043462753296
1789453536380326700,4.89632666015625,0.566401481628418,-0.025347385555505753,0.5147460699081421
1789453536390265600,4.906265625,0.7652709484100342,0.02425452135503292,0.580136775970459
1789453536400205600,4.91620556640625,0.9354849457740784,0.10945429652929306,0.6409385800361633
1789453536410144500,4.92614453125,1.072554349899292,0.21384353935718536,0.7000367641448975
1789453536420084700,4.936084716796875,1.175044059753418,0.2890435457229614,0.7492594718933105
1789453536430024700,4.946024658203125,1.254219889640808,0.36264532804489136,0.7890939712524414
1789453536439963600,4.955963623046875,1.321301817893982,0.4040527045726776,0.811612069606781
1789453536449903600,4.965903564453125,1.3768799304962158,0.4767327904701233,0.8721536993980408
1789453536459843600,4.975843505859375,1.4292227029800415,0.5283844470977783,0.9091731309890747
1789453536469782500,4.985782470703125,1.4785679578781128,0.5492322444915771,0.9036864638328552
1789453536479722800,4.99572265625,1.5062485933303833,0.5486889481544495,0.8874790668487549
1789453536489661700,5.00566162109375,1.544812560081482,0.590053915977478,0.8907113671302795
1789453536499601700,5.0156015625,1.5824869871139526,0.6416299939155579,0.9028316736221313
1789453536509541600,5.025541748046875,1.5935484170913696,0.6623416543006897,0.9091715812683105
1789453536519480800,5.035480712890625,1.5509155988693237,0.6424906253814697,0.8861450552940369
1789453536529420500,5.045420654296875,1.4785714149475098,0.6426776051521301,0.8746585845947266
1789453536539360800,5.05536083984375,1.410770297050476,0.5972029566764832,0.8783383369445801
1789453536549299700,5.0652998046875,1.36155104637146,0.5230890512466431,0.888126790523529
1789453536559239700,5.07523974609375,1.3137366771697998,0.4692714810371399,0.8880107402801514
1789453536569178600,5.0851787109375,1.2593352794647217,0.4234214425086975,0.9161704778671265
1789453536579118800,5.095118896484375,1.2150014638900757,0.34414544701576233,0.9552192687988281
1789453536589058600,5.10505859375,1.1917763948440552,0.28890562057495117,0.968001127243042
1789453536598997500,5.11499755859375,1.1208164691925049,0.23138804733753204,0.9808561205863953
1789453536608937700,5.124937744140625,1.025105357170105,0.17800258100032806,0.9956374764442444
1789453536618876700,5.134876708984375,0.986202597618103,0.13297012448310852,0.9754589796066284
1789453536628816600,5.144816650390625,0.9738940000534058,0.08707533776760101,0.9418227076530457
1789453536638756900,5.1547568359375,0.9607079029083252,0.061080414801836014,0.9299857020378113
1789453536648695800,5.16469580078125,0.982545793056488,0.017454108223319054,0.9572018980979919
1789453536658635500,5.174635498046875,1.025585412979126,-0.041581325232982635,0.9391030073165894
1789453536668575700,5.18457568359375,1.0398848056793213,-0.12037894129753113,0.9296578764915466
1789453536678514700,5.1945146484375,1.056520938873291,-0.16550232470035553,0.9555251598358154
1789453536688454700,5.20445458984375,1.0768134593963623,-0.19359467923641205,0.9693134427070618
1789453536698393600,5.2143935546875,1.0641638040542603,-0.21948684751987457,0.9625677466392517
1789453536708333800,5.224333740234375,1.0359092950820923,-0.19426724314689636,0.9474515914916992
1789453536718273500,5.2342734375,0.9816134572029114,-0.2333662062883377,0.903704047203064
1789453536728212500,5.24421240234375,0.9271243810653687,-0.2500666081905365,0.820326030254364
1789453536738152700,5.254152587890625,0.8671244382858276,-0.209038645029068,0.8001647591590881
1789453536748091600,5.264091552734375,0.8336735367774963,-0.10302885621786118,0.8465466499328613
1789453536758031600,5.274031494140625,0.8458929061889648,-0.030137907713651657,0.8488138914108276
1789453536767971800,5.283971923828125,0.8150079846382141,-0.08195769786834717,0.8495004773139954
1789453536777910800,5.293910888671875,0.8388760089874268,-0.12432486563920975,0.8396691083908081
1789453536787850500,5.3038505859375,0.7820252180099487,-0.19324694573879242,0.8307837843894958
1789453536797790700,5.313790771484375,0.7133060693740845,-0.11034075915813446,0.8411250114440918
1789453536807729700,5.323729736328125,0.6386829614639282,-0.0855664312839508,0.8581535220146179
1789453536817669600,5.333669677734375,0.6134671568870544,-0.06773972511291504,0.8518198728561401
1789453536827608600,5.343608642578125,0.5753034949302673,-0.18650764226913452,0.8164498805999756
1789453536837548800,5.353548828125,0.5276795029640198,-0.21697627007961273,0.7635984420776367
1789453536847488800,5.36348876953125,0.4412817060947418,-0.17131663858890533,0.7394060492515564
1789453536857427700,5.373427734375,0.35518360137939453,-0.08620821684598923,0.7148969173431396
1789453536867367700,5.38336767578125,0.316150426864624,-0.0393696092069149,0.6767537593841553
1789453536877307600,5.3933076171875,0.317465603351593,0.014804153703153133,0.5977761149406433
1789453536887246600,5.40324658203125,0.23117519915103912,0.05180850997567177,0.5085471868515015
1789453536897186800,5.413186767578125,0.12711085379123688,0.012158303521573544,0.4043489098548889
1789453536907125800,5.423125732421875,0.05255671963095665,-0.0018179663456976414,0.25448963046073914
1789453536917065700,5.433065673828125,-0.03153572976589203,-0.009790368378162384,0.12844237685203552
1789453536927005700,5.443005615234375,-0.12492000311613083,-0.12429244816303253,0.024196919053792953
1789453536936944600,5.452944580078125,-0.20533207058906555,-0.21438148617744446,-0.07772792130708694
1789453536946884600,5.462884521484375,-0.2982542812824249,-0.23831398785114288,-0.15245409309864044
1789453536956824800,5.472824951171875,-0.3578110337257385,-0.21897326409816742,-0.21511252224445343
1789453536966763800,5.482763671875,-0.3967943787574768,-0.19372250139713287,-0.2823839783668518
1789453536976703700,5.492703857421875,-0.42405274510383606,-0.16106487810611725,-0.3293488025665283
1789453536986643000,5.502642822265625,-0.4912096858024597,-0.1136944368481636,-0.3550315201282501
1789453536996582700,5.512582763671875,-0.5418239831924438,-0.09978055953979492,-0.3844616115093231
1789453537006522600,5.522522705078125,-0.600242555141449,-0.04922017827630043,-0.43294447660446167
1789453537016461800,5.5324619140625,-0.6506689786911011,0.021124020218849182,-0.478498637676239
1789453537026401800,5.54240185546875,-0.6974160075187683,0.11959386616945267,-0.5144166946411133
1789453537036341800,5.552341796875,-0.7177579998970032,0.20290805399417877,-0.5468580722808838
1789453537046280700,5.56228076171875,-0.7304546236991882,0.21992965042591095,-0.5741685032844543
1789453537056220700,5.572220703125,-0.7180141806602478,0.251360684633255,-0.5862029790878296
1789453537066159600,5.58215966796875,-0.674354076385498,0.26350149512290955,-0.568080723285675
1789453537076099600,5.592099609375,-0.6538180112838745,0.25391995906829834,-0.5306146740913391
1789453537086039800,5.602039794921875,-0.6377847194671631,0.21837632358074188,-0.49735796451568604
1789453537095978800,5.611978759765625,-0.6252299547195435,0.14236082136631012,-0.45604798197746277
1789453537105918700,5.621918701171875,-0.6238184571266174,0.1443725824356079,-0.4273473620414734
1789453537115858700,5.631858642578125,-0.6028045415878296,0.13648484647274017,-0.3943791389465332
1789453537125797600,5.641797607421875,-0.5893403887748718,0.1718793362379074,-0.39307233691215515
1789453537135737600,5.651737548828125,-0.575086772441864,0.2016788125038147,-0.3912798762321472
1789453537145676800,5.6616767578125,-0.5550102591514587,0.2455754280090332,-0.40048748254776
1789453537155616800,5.67161669921875,-0.5456790328025818,0.3278731107711792,-0.4580029249191284
1789453537165556700,5.681556640625,-0.5630061030387878,0.44931456446647644,-0.5476744771003723
1789453537175495700,5.69149560546875,-0.592054009437561,0.5249056220054626,-0.5952202081680298
1789453537185435600,5.701435546875,-0.595119833946228,0.5534131526947021,-0.5763341784477234
1789453537195375600,5.711375732421875,-0.5769156813621521,0.5593142509460449,-0.5361561179161072
1789453537205314600,5.721314453125,-0.5575507879257202,0.4357041120529175,-0.5577716827392578
1789453537215254800,5.7312548828125,-0.557869017124176,0.29771459102630615,-0.6349348425865173
1789453537225193700,5.74119384765625,-0.6002638339996338,0.2938961684703827,-0.6667385697364807
1789453537235133700,5.7511337890625,-0.6533553004264832,0.37062981724739075,-0.6522341966629028
1789453537245074000,5.761073974609375,-0.688931405544281,0.44204914569854736,-0.646102786064148
1789453537255012900,5.771012939453125,-0.7256650924682617,0.44625401496887207,-0.6739302277565002
1789453537264952600,5.78095263671875,-0.7765080332756042,0.3928893208503723,-0.709821879863739
1789453537274892800,5.790892822265625,-0.8032922148704529,0.3298591077327728,-0.70596843957901
1789453537284831700,5.800831787109375,-0.8092973828315735,0.3093098998069763,-0.652170717716217
1789453537294771700,5.810771728515625,-0.7755863070487976,0.2617989480495453,-0.5887157320976257
1789453537304712000,5.8207119140625,-0.7468422651290894,0.14438125491142273,-0.5572688579559326
1789453537314651000,5.83065087890625,-0.7318618893623352,0.03168483451008797,-0.5658389925956726
1789453537324590600,5.840590576171875,-0.7069498896598816,-0.056176576763391495,-0.6122722625732422
1789453537334529500,5.850529541015625,-0.6892121434211731,-0.08480910211801529,-0.6800379753112793
1789453537344469800,5.8604697265625,-0.6794468760490417,-0.06362045556306839,-0.7395966649055481
1789453537354409700,5.87040966796875,-0.6560027003288269,-0.08158133924007416,-0.7783302664756775
1789453537364348700,5.8803486328125,-0.6385230422019958,-0.0403129979968071,-0.7838829159736633
1789453537374289000,5.890288818359375,-0.613571047782898,-0.011542178690433502,-0.7590467929840088
1789453537384228600,5.900228515625,-0.584280788898468,-0.037304531782865524,-0.7501975893974304
1789453537394167600,5.91016748046875,-0.5481968522071838,-0.10757336765527725,-0.7600685954093933
1789453537404107800,5.920107666015625,-0.5285283327102661,-0.12730419635772705,-0.7822785973548889
1789453537414046700,5.930046630859375,-0.5075409412384033,-0.19209152460098267,-0.8427464962005615
1789453537423986700,5.939986572265625,-0.4964454174041748,-0.26332205533981323,-0.9012457132339478
1789453537433927000,5.949927001953125,-0.5351158976554871,-0.24721196293830872,-0.9103696942329407
1789453537443865900,5.959865966796875,-0.5279852747917175,-0.3346366286277771,-0.9502170085906982
1789453537453805600,5.9698056640625,-0.5423189401626587,-0.3258969187736511,-0.9512806534767151
1789453537463745800,5.979745849609375,-0.565980076789856,-0.3272322416305542,-0.9380942583084106
1789453537473684700,5.989684814453125,-0.5653274655342102,-0.3526588976383209,-0.9235427975654602
1789453537483624700,5.999624755859375,-0.574391782283783,-0.3861108720302582,-0.938799262046814
1789453537493565000,6.00956494140625,-0.5882152318954468,-0.407258540391922,-0.9707238078117371
1789453537503504000,6.01950390625,-0.5801075100898743,-0.46711787581443787,-1.0124709606170654
1789453537513443600,6.029443603515625,-0.5780283808708191,-0.5073122978210449,-1.0501888990402222
1789453537523382800,6.0393828125,-0.5972073674201965,-0.5060006976127625,-1.086965560913086
1789453537533322800,6.04932275390625,-0.6512980461120605,-0.5288456678390503,-1.1026748418807983
1789453537543262700,6.0592626953125,-0.6643741726875305,-0.5591253042221069,-1.083841323852539
1789453537553201700,6.06920166015625,-0.6777963638305664,-0.6010019779205322,-1.0746824741363525
1789453537563142000,6.079141845703125,-0.6600224375724792,-0.6362036466598511,-1.0876981019973755
1789453537573081900,6.089081787109375,-0.6092588901519775,-0.6729853749275208,-1.0992202758789062
1789453537583020800,6.099020751953125,-0.5511603951454163,-0.7131181359291077,-1.109725832939148
1789453537592960800,6.108960693359375,-0.5401083827018738,-0.7992000579833984,-1.1220518350601196
1789453537602899700,6.118899658203125,-0.5712255835533142,-0.7921240329742432,-1.1100332736968994
1789453537612839700,6.128839599609375,-0.635129451751709,-0.6711298823356628,-1.0925625562667847
1789453537622780000,6.13877978515625,-0.6589128375053406,-0.7462446093559265,-1.1131788492202759
1789453537632718800,6.14871875,-0.6266525983810425,-0.9009022116661072,-1.1002689599990845
1789453537642658800,6.158658935546875,-0.6169328689575195,-0.9917075037956238,-1.036509394645691
1789453537652598500,6.1685986328125,-0.570285439491272,-0.917876660823822,-0.9808397889137268
1789453537662537700,6.178537841796875,-0.5370388031005859,-0.638355553150177,-0.8527670502662659
1789453537672477700,6.188477783203125,-0.43917179107666016,-0.6053367853164673,-0.7850632667541504
1789453537682417700,6.198417724609375,-0.44207170605659485,-0.4737750291824341,-0.696696400642395
1789453537692356900,6.20835693359375,-0.47045809030532837,-0.25402456521987915,-0.592471182346344
1789453537702296800,6.218296875,-0.5560417175292969,-0.0639084205031395,-0.5524899363517761
1789453537712235800,6.22823583984375,-0.663695752620697,0.3612101972103119,-0.44911617040634155
1789453537722175700,6.23817578125,-0.5890913009643555,0.29682642221450806,-0.3993526101112366
1789453537732115700,6.24811572265625,-0.5589661002159119,0.2584956884384155,-0.2734089493751526
1789453537742054700,6.2580546875,-0.46973052620887756,0.2371765524148941,-0.11601240932941437
1789453537751995000,6.267994873046875,-0.36000674962997437,0.28361207246780396,0.055526528507471085
1789453537761934800,6.277934814453125,-0.2821657657623291,0.3678678572177887,0.09202674776315689
1789453537771873800,6.287873779296875,-0.21267858147621155,0.3234117031097412,0.08956891298294067
1789453537781813500,6.2978134765625,-0.19404470920562744,0.2442052811384201,0.1591533124446869
1789453537791753700,6.307753662109375,-0.17169348895549774,0.27305519580841064,0.28216585516929626
1789453537801692700,6.317692626953125,-0.1286674588918686,0.19977138936519623,0.34996381402015686
1789453537811632600,6.327632568359375,-0.12074631452560425,0.2098241001367569,0.49841082096099854
1789453537821571800,6.33757177734375,-0.12489365041255951,0.25581637024879456,0.5261950492858887
1789453537831511800,6.34751171875,-0.1284824162721634,0.2269926518201828,0.5891105532646179
1789453537841451500,6.357451416015625,-0.09491220861673355,0.11091212183237076,0.6236666440963745
1789453537851390700,6.367390625,-0.05257130414247513,0.10357192903757095,0.6723050475120544
1789453537861330700,6.37733056640625,0.016153965145349503,0.08472020924091339,0.745647132396698
1789453537871270700,6.387270751953125,0.10528522729873657,0.03023797646164894,0.8048611283302307
1789453537881209900,6.3972099609375,0.1769769936800003,0.016302986070513725,0.8689021468162537
1789453537891149800,6.40714990234375,0.25319704413414,0.0023377961479127407,0.9146202206611633
1789453537901089800,6.41708984375,0.3484173119068146,-0.008052259683609009,0.9181350469589233
1789453537911028700,6.42702880859375,0.48635947704315186,-0.03844543173909187,0.9301851391792297
1789453537920968700,6.43696875,0.6240033507347107,-0.03155982866883278,0.9343066215515137
1789453537930907100,6.4469072265625,0.736356794834137,0.005699091125279665,0.9429678320884705
1789453537940847000,6.45684716796875,0.8485448360443115,0.0913090705871582,0.9914150238037109
1789453537950787000,6.466787109375,0.9466836452484131,0.14821483194828033,1.017748475074768
1789453537960726000,6.47672607421875,1.0685503482818604,0.18114641308784485,1.0330193042755127
1789453537970666200,6.486666259765625,1.1776423454284668,0.23010866343975067,1.0545575618743896
1789453537980606000,6.49660595703125,1.256445050239563,0.30120545625686646,1.0806994438171387
1789453537990545200,6.506545166015625,1.3065860271453857,0.430854469537735,1.0917320251464844
1789453538000485000,6.516485107421875,1.2963141202926636,0.44645369052886963,1.1279385089874268
1789453538010425000,6.526425048828125,1.324552059173584,0.46183598041534424,1.0933283567428589
1789453538020364000,6.536364013671875,1.3235571384429932,0.4300681948661804,1.077492356300354
1789453538030304300,6.54630419921875,1.3065632581710815,0.440068781375885,1.085329532623291
1789453538040243200,6.5562431640625,1.3215980529785156,0.4290986955165863,1.0666394233703613
1789453538050183200,6.56618310546875,1.3330408334732056,0.4297645688056946,1.057525634765625
1789453538060123100,6.576123046875,1.3247877359390259,0.4850592613220215,1.08800208568573
1789453538070062000,6.58606201171875,1.3025561571121216,0.47992372512817383,1.078008770942688
1789453538080002000,6.596001953125,1.2351230382919312,0.42565810680389404,1.0315145254135132
1789453538089942300,6.6059423828125,1.1272478103637695,0.3797026574611664,1.0315792560577393
1789453538099881200,6.615881103515625,1.0769292116165161,0.29221728444099426,1.056915521621704
1789453538109821200,6.6258212890625,1.0739489793777466,0.1663241982460022,1.026607632637024
1789453538119761200,6.63576123046875,1.100521445274353,0.08517954498529434,1.004412293434143
1789453538129700000,6.6457001953125,1.148460865020752,0.06893926113843918,1.042850375175476
1789453538139640000,6.65564013671875,1.2116988897323608,0.044428858906030655,1.0724297761917114
1789453538149579000,6.6655791015625,1.2228449583053589,-0.016666289418935776,1.0747671127319336
1789453538159519200,6.675519287109375,1.2008370161056519,-0.11031314730644226,1.065696120262146
1789453538169459200,6.685459228515625,1.142844319343567,-0.16728469729423523,1.0185673236846924
1789453538179398100,6.695398193359375,1.0437361001968384,-0.13322553038597107,1.0309358835220337
1789453538189338000,6.705338134765625,1.0098439455032349,-0.11297604441642761,1.0919774770736694
1789453538199278000,6.715278076171875,1.0294605493545532,-0.13278090953826904,1.0959538221359253
1789453538209217000,6.725217041015625,1.0399857759475708,-0.17812871932983398,1.0427954196929932
1789453538219157200,6.7351572265625,1.0188847780227661,-0.1887321025133133,1.0279695987701416
1789453538229097200,6.74509716796875,0.9623373746871948,-0.15780118107795715,1.0416483879089355
1789453538239036200,6.7550361328125,0.9057233333587646,-0.12438224256038666,1.0385866165161133
1789453538248976100,6.76497607421875,0.8417982459068298,-0.09486331790685654,1.0214401483535767
1789453538258915000,6.7749150390625,0.7994292378425598,-0.12684522569179535,1.0454522371292114
1789453538268855000,6.78485498046875,0.7959519028663635,-0.18279175460338593,1.0542713403701782
1789453538278795000,6.794794921875,0.7849102020263672,-0.20988862216472626,1.0315204858779907
1789453538288734200,6.804734130859375,0.7446755170822144,-0.16660965979099274,0.9830428957939148
1789453538298674200,6.814674072265625,0.700395941734314,-0.09330695122480392,0.9454028606414795
1789453538308614000,6.82461376953125,0.653462827205658,-0.057627372443675995,0.9459326267242432
1789453538318553000,6.834552978515625,0.6431840658187866,-0.0198040958493948,0.9275379180908203
1789453538328493000,6.8444931640625,0.6194069981575012,-0.006072613410651684,0.9061445593833923
1789453538338433000,6.85443310546875,0.5630449056625366,-0.030012832954525948,0.8559663891792297
1789453538348372200,6.864372314453125,0.482734352350235,-0.03474662825465202,0.8057680130004883
1789453538358312200,6.874312255859375,0.3717851936817169,-0.008001299574971199,0.7642304301261902
1789453538368252200,6.884252197265625,0.31597763299942017,0.06395897269248962,0.6863069534301758
1789453538378191000,6.894191162109375,0.27461156249046326,0.11424664407968521,0.5879499912261963
1789453538388131000,6.904131103515625,0.20286329090595245,0.12476553022861481,0.4861748516559601
1789453538398070000,6.914070068359375,0.12183927744626999,0.14273175597190857,0.3702932596206665
1789453538408010000,6.924010009765625,0.027021048590540886,0.18618428707122803,0.25274887681007385
1789453538417950200,6.9339501953125,-0.0767785906791687,0.2142673134803772,0.16982924938201904
1789453538427889200,6.94388916015625,-0.13244307041168213,0.1740541309118271,0.1029852032661438
1789453538437829000,6.9538291015625,-0.17874611914157867,0.08885189145803452,0.021117502823472023
1789453538447769000,6.96376904296875,-0.23118136823177338,-0.0036294013261795044,-0.05379483476281166
1789453538457708000,6.9737080078125,-0.28486698865890503,-0.056527502834796906,-0.11418654024600983
1789453538467648000,6.98364794921875,-0.3413710296154022,-0.09486483037471771,-0.1663813591003418
1789453538477588200,6.993588134765625,-0.43008145689964294,-0.042903900146484375,-0.23632661998271942
1789453538487527200,7.003527099609375,-0.5208761096000671,-0.02306719869375229,-0.3542707562446594
1789453538497467100,7.013467041015625,-0.5915811657905579,-0.05175956338644028,-0.4912903904914856
1789453538507406000,7.023406005859375,-0.6817425489425659,-0.04816223308444023,-0.5961729288101196
1789453538517346000,7.033345947265625,-0.7345796823501587,0.0069513521157205105,-0.6750629544258118
1789453538527286000,7.0432861328125,-0.7648388743400574,0.08991236984729767,-0.6973908543586731
1789453538537225000,7.053224853515625,-0.7854024767875671,0.24178658425807953,-0.6602655649185181
1789453538547165200,7.063165283203125,-0.795847475528717,0.3823511302471161,-0.5968863368034363
1789453538557105200,7.073105224609375,-0.7950935363769531,0.48315390944480896,-0.5734249353408813
1789453538567044000,7.083044189453125,-0.8205924034118652,0.5362135767936707,-0.5741096138954163
1789453538576984000,7.092984130859375,-0.8426644206047058,0.5429369807243347,-0.564196765422821
1789453538586924000,7.102924072265625,-0.8425535559654236,0.46574023365974426,-0.5311830043792725
1789453538596863000,7.112863037109375,-0.8040876388549805,0.37913769483566284,-0.4693976640701294
1789453538606803200,7.12280322265625,-0.7513830065727234,0.37639883160591125,-0.40666186809539795
1789453538616743200,7.1327431640625,-0.7267516851425171,0.4359351396560669,-0.37782248854637146
1789453538626682000,7.14268212890625,-0.7134880423545837,0.4399818480014801,-0.405466228723526
1789453538636622000,7.1526220703125,-0.6849059462547302,0.42001134157180786,-0.4597441256046295
1789453538646561000,7.16256103515625,-0.6294696927070618,0.44451847672462463,-0.47929665446281433
1789453538656501000,7.1725009765625,-0.5537118315696716,0.5046915411949158,-0.45090895891189575
1789453538666441200,7.182441162109375,-0.47739338874816895,0.5005679726600647,-0.42311379313468933
1789453538676380200,7.192380126953125,-0.41667306423187256,0.4036310613155365,-0.4151916801929474
1789453538686320000,7.202320068359375,-0.39234063029289246,0.3146032691001892,-0.4399886131286621
1789453538696260000,7.212260009765625,-0.41352102160453796,0.24526973068714142,-0.48296085000038147
1789453538706199300,7.22219921875,-0.4406231641769409,0.21799302101135254,-0.5323745012283325
1789453538716139000,7.232138916015625,-0.45263004302978516,0.2672226130962372,-0.5946695804595947
1789453538726079200,7.242079345703125,-0.447003036737442,0.33389803767204285,-0.6561848521232605
1789453538736018200,7.25201806640625,-0.4360816776752472,0.37308940291404724,-0.708149254322052
1789453538745958100,7.261958251953125,-0.44280481338500977,0.33478793501853943,-0.7422172427177429
1789453538755897000,7.27189697265625,-0.45848554372787476,0.22921358048915863,-0.750045657157898
1789453538765837300,7.28183740234375,-0.4716409742832184,0.1275254338979721,-0.7442675828933716
1789453538775777000,7.291777099609375,-0.48208746314048767,0.06217227131128311,-0.7383750677108765
1789453538785716000,7.301716064453125,-0.4651079475879669,0.007757211569696665,-0.7349192500114441
1789453538795656200,7.31165625,-0.4437882602214813,-0.06448929011821747,-0.7602384686470032
1789453538805596200,7.32159619140625,-0.48610588908195496,-0.1265915483236313,-0.8192149996757507
1789453538815535000,7.33153515625,-0.5708309412002563,-0.17481499910354614,-0.8892393708229065
1789453538825475300,7.341475341796875,-0.6667338013648987,-0.19471681118011475,-0.931574285030365
1789453538835415000,7.3514150390625,-0.7706633806228638,-0.1414911448955536,-0.941001832485199
1789453538845354000,7.36135400390625,-0.81626296043396,-0.056378453969955444,-0.9233781695365906
1789453538855294200,7.371294189453125,-0.8213799595832825,-0.022646591067314148,-0.9177956581115723
1789453538865234200,7.381234130859375,-0.8033831119537354,-0.08641728013753891,-0.9671590328216553
1789453538875173000,7.391173095703125,-0.7617120742797852,-0.1939285546541214,-1.0275030136108398
1789453538885113000,7.401113037109375,-0.7019558548927307,-0.314557284116745,-1.083241581916809
1789453538895053000,7.411052978515625,-0.6373672485351562,-0.31989556550979614,-1.1029095649719238
1789453538904992000,7.420991943359375,-0.6015967726707458,-0.31651777029037476,-1.0920796394348145
1789453538914932000,7.430931884765625,-0.6254831552505493,-0.21673338115215302,-1.1098746061325073
1789453538924871200,7.44087109375,-0.6703575253486633,-0.14975011348724365,-1.1451104879379272
1789453538934811100,7.45081103515625,-0.7172622084617615,-0.1868191957473755,-1.1623669862747192
1789453538944751000,7.460751220703125,-0.7776439189910889,-0.16976028680801392,-1.1771578788757324
1789453538954690000,7.47068994140625,-0.793316125869751,-0.20131900906562805,-1.1723095178604126
1789453538964630000,7.480630126953125,-0.8073619604110718,-0.2025235891342163,-1.1476114988327026
1789453538974570000,7.490570068359375,-0.7902511954307556,-0.2761373817920685,-1.1588540077209473
1789453538984509000,7.500509033203125,-0.7539078593254089,-0.3458813726902008,-1.148089051246643
1789453538994449200,7.51044921875,-0.726921796798706,-0.34098780155181885,-1.10325288772583
1789453539004389000,7.52038916015625,-0.7578896880149841,-0.36725032329559326,-1.0611598491668701
1789453539014328000,7.530328125,-0.7938844561576843,-0.3847563564777374,-1.0581352710723877
1789453539024268000,7.54026806640625,-0.7986418604850769,-0.45472341775894165,-1.0659466981887817
1789453539034208000,7.5502080078125,-0.7776239514350891,-0.6024569272994995,-1.0658165216445923
1789453539044147000,7.56014697265625,-0.7682026624679565,-0.6823036670684814,-1.0608820915222168
1789453539054087000,7.5700869140625,-0.7339040637016296,-0.7182270288467407,-1.037864089012146
1789453539064027100,7.580027099609375,-0.7403509616851807,-0.7294781804084778,-1.0284309387207031
1789453539073966000,7.589966064453125,-0.7106181383132935,-0.745897650718689,-1.0029139518737793
1789453539083906000,7.599906005859375,-0.6891126036643982,-0.7085081338882446,-0.968036413192749
1789453539093846000,7.609845947265625,-0.6602282524108887,-0.659316897392273,-0.9449782371520996
1789453539103785000,7.619784912109375,-0.5654615163803101,-0.6500940918922424,-0.9060960412025452
1789453539113725000,7.629724853515625,-0.5267860293388367,-0.6675034165382385,-0.8587048649787903
1789453539123664100,7.6396640625,-0.478073388338089,-0.5476768612861633,-0.7540306448936462
1789453539133604000,7.64960400390625,-0.436308354139328,-0.3661949932575226,-0.6602141261100769
1789453539143544000,7.6595439453125,-0.36562231183052063,-0.36955687403678894,-0.5747716426849365
1789453539153483000,7.66948291015625,-0.3505336344242096,-0.29423683881759644,-0.4544143080711365
1789453539163423000,7.679423095703125,-0.35740038752555847,-0.1927897334098816,-0.3471880555152893
1789453539173363000,7.689363037109375,-0.4023228585720062,-0.034436848014593124,-0.33066633343696594
1789453539183302000,7.699302001953125,-0.418091744184494,0.12289921939373016,-0.36079084873199463
1789453539193242000,7.7092421875,-0.4345325231552124,0.35515615344047546,-0.2559610903263092
1789453539203182000,7.71918212890625,-0.38307151198387146,0.34901952743530273,-0.1206134632229805
1789453539213121000,7.72912109375,-0.3002019226551056,0.4215185046195984,0.052711982280015945
1789453539223061000,7.73906103515625,-0.19695813953876495,0.44096556305885315,0.11577769368886948
1789453539233001000,7.7490009765625,-0.07359013706445694,0.4431101977825165,0.10496313124895096
1789453539242940000,7.75893994140625,0.026659667491912842,0.39642342925071716,0.0719621554017067
1789453539252880100,7.768880126953125,0.041470304131507874,0.37991130352020264,0.1395643651485443
1789453539262820000,7.778820068359375,-0.0034607346169650555,0.3421628177165985,0.2043149620294571
1789453539272759000,7.788759033203125,-0.042646221816539764,0.21716177463531494,0.23426701128482819
1789453539282699000,7.798698974609375,-0.10271909832954407,0.2363581657409668,0.32495465874671936
1789453539292639000,7.808638916015625,-0.1428460031747818,0.2480851262807846,0.4104365110397339
1789453539302578000,7.818577880859375,-0.14464417099952698,0.287833034992218,0.5115035772323608
1789453539312518100,7.82851806640625,-0.10169217735528946,0.21690960228443146,0.5326882004737854
1789453539322458000,7.8384580078125,-0.0704004094004631,0.18469597399234772,0.6024187207221985
1789453539332397000,7.84839697265625,-0.021202506497502327,0.1039143055677414,0.6425133943557739
1789453539342337000,7.8583369140625,0.03362128138542175,0.050294578075408936,0.658418595790863
1789453539352277000,7.868277099609375,0.10819111764431,0.04491419345140457,0.732022225856781
1789453539362216000,7.8782158203125,0.20009899139404297,0.08771323412656784,0.8520844578742981
1789453539372156200,7.88815625,0.28094083070755005,0.027851494029164314,0.8057017922401428
1789453539382096100,7.89809619140625,0.3865908980369568,-0.03487193584442139,0.8378041982650757
1789453539392035000,7.90803515625,0.482882559299469,0.01607380248606205,0.8929893970489502
1789453539401975000,7.91797509765625,0.605388879776001,0.09473517537117004,0.9489907622337341
1789453539411915000,7.9279150390625,0.7663894891738892,0.19776222109794617,1.0167804956436157
1789453539421854000,7.93785400390625,0.885177493095398,0.35072407126426697,1.0085718631744385
1789453539431794000,7.9477939453125,1.0123906135559082,0.45939064025878906,1.046818494796753
1789453539441733000,7.957733154296875,1.1411677598953247,0.5719664692878723,1.1176718473434448
1789453539451673000,7.967673095703125,1.2518484592437744,0.6270960569381714,1.1313549280166626
1789453539461613000,7.977613037109375,1.3338769674301147,0.678897500038147,1.1367568969726562
1789453539471553000,7.987552978515625,1.3808386325836182,0.6765283346176147,1.1362519264221191
1789453539481492000,7.997491943359375,1.408951997756958,0.6424615383148193,1.0829644203186035
1789453539491432000,8.007431884765625,1.4376180171966553,0.635162353515625,1.033003807067871
1789453539501371100,8.01737109375,1.464447021484375,0.6746514439582825,0.9980905055999756
1789453539511311000,8.02731103515625,1.5197556018829346,0.6899071335792542,0.9449008107185364
1789453539521251000,8.0372509765625,1.547936201095581,0.6993399858474731,0.9111082553863525
1789453539531190000,8.04718994140625,1.5594639778137207,0.6548374891281128,0.9156611561775208
1789453539541130000,8.0571298828125,1.5800347328186035,0.5239526629447937,0.8574275970458984
1789453539551070000,8.067070068359374,1.563992977142334,0.3978104591369629,0.8048890233039856
1789453539561009000,8.0770087890625,1.523087739944458,0.3145962357521057,0.7901370525360107
1789453539570949000,8.08694921875,1.5122483968734741,0.2629719376564026,0.7930718660354614
1789453539580889000,8.09688916015625,1.5346359014511108,0.23317068815231323,0.8337212800979614
1789453539590828000,8.106828125,1.5504900217056274,0.1410098820924759,0.8773214817047119
1789453539600768000,8.11676806640625,1.535803198814392,0.023467712104320526,0.8678047060966492
1789453539610708000,8.1267080078125,1.4834274053573608,-0.051032356917858124,0.8893352746963501
1789453539620647000,8.13664697265625,1.4595973491668701,-0.0626068264245987,0.9036322832107544
1789453539630587100,8.146587158203126,1.4052762985229492,-0.08938198536634445,0.9225202202796936
1789453539640527000,8.156527099609375,1.3649718761444092,-0.13501226902008057,0.9257691502571106
1789453539650466000,8.166466064453125,1.3260796070098877,-0.1891615241765976,0.8895037770271301
1789453539660406000,8.176406005859375,1.2698630094528198,-0.2241549789905548,0.857921302318573
1789453539670346000,8.186345947265625,1.2103326320648193,-0.3076735734939575,0.879825234413147
1789453539680285000,8.196284912109375,1.1577075719833374,-0.3298238515853882,0.9012351036071777
1789453539690225200,8.20622509765625,1.1207047700881958,-0.3401705026626587,0.9042900204658508
1789453539700165000,8.2161650390625,1.081188440322876,-0.2351987212896347,0.8963583111763
1789453539710104000,8.22610400390625,1.0295132398605347,-0.09017415344715118,0.9794004559516907
1789453539720044000,8.2360439453125,0.98720782995224,-0.0597868412733078,1.0512700080871582
1789453539729984000,8.24598388671875,0.993863582611084,-0.16280989348888397,0.9999067187309265
1789453539739923000,8.2559228515625,0.9834396839141846,-0.2360731065273285,0.8899770379066467
1789453539749863200,8.26586328125,0.9157381057739258,-0.19412165880203247,0.8367761373519897
1789453539759803100,8.27580322265625,0.8240169286727905,-0.12922027707099915,0.8374468088150024
1789453539769742000,8.2857421875,0.7695459723472595,-0.07048985362052917,0.808650016784668
1789453539779682000,8.29568212890625,0.7389604449272156,-0.08320394158363342,0.7400810718536377
1789453539789622000,8.3056220703125,0.70493483543396,-0.1323576420545578,0.6967298984527588
1789453539799561000,8.31556103515625,0.6543808579444885,-0.11794933676719666,0.6841917037963867
1789453539809501000,8.3255009765625,0.5637745261192322,-0.07482849806547165,0.651897132396698
1789453539819441200,8.335441162109374,0.48474884033203125,-0.11303654313087463,0.5922285914421082
1789453539829380000,8.345380126953126,0.3945121467113495,-0.16718153655529022,0.488822340965271
1789453539839320000,8.355320068359376,0.3335559666156769,-0.2477174699306488,0.37396204471588135
1789453539849260000,8.365260009765626,0.2171846181154251,-0.20188286900520325,0.26479560136795044
1789453539859199000,8.375198974609376,0.11267675459384918,-0.11035875231027603,0.14997299015522003
1789453539869139000,8.385138916015626,-0.012026823125779629,-0.13897548615932465,0.047978177666664124
1789453539879079200,8.3950791015625,-0.09170728921890259,-0.18421778082847595,-0.06126875802874565
1789453539889018000,8.40501806640625,-0.15896408259868622,-0.19026155769824982,-0.14007888734340668
1789453539898958000,8.4149580078125,-0.2535789906978607,-0.15751002728939056,-0.18645375967025757
1789453539908898000,8.42489794921875,-0.3536909520626068,-0.0817316398024559,-0.23498988151550293
1789453539918837000,8.4348369140625,-0.43370747566223145,0.013511529192328453,-0.30790430307388306
1789453539928777000,8.44477685546875,-0.5288361310958862,-0.0021028518676757812,-0.38984283804893494
1789453539938717200,8.45471728515625,-0.6296843886375427,-0.029032031074166298,-0.4685206115245819
1789453539948656000,8.46465625,-0.7070385813713074,-0.05578961223363876,-0.5073018074035645
1789453539958596400,8.474596435546875,-0.7474545240402222,-0.029724203050136566,-0.49424004554748535
1789453539968536000,8.4845361328125,-0.7473248243331909,0.017627067863941193,-0.4636906683444977
1789453539978475000,8.49447509765625,-0.7269545793533325,0.116639643907547,-0.4472828507423401
1789453539988415000,8.5044150390625,-0.7250933051109314,0.2224808633327484,-0.44917744398117065
1789453539998355200,8.514355224609375,-0.7206435799598694,0.3469233512878418,-0.4561804234981537
1789453540008294100,8.524294189453125,-0.7248892188072205,0.41927745938301086,-0.4457176625728607
1789453540018234000,8.534234130859375,-0.6741729378700256,0.40229812264442444,-0.3997494876384735
1789453540028174000,8.544174072265625,-0.601367712020874,0.385365754365921,-0.3549913167953491
1789453540038113000,8.554113037109374,-0.5293182134628296,0.3210636377334595,-0.3571945130825043
1789453540048053000,8.564052978515624,-0.4866607189178467,0.22058868408203125,-0.4197729527950287
1789453540057993200,8.5739931640625,-0.46543845534324646,0.18171720206737518,-0.4717259407043457
1789453540067932200,8.58393212890625,-0.43010789155960083,0.17516262829303741,-0.5020585060119629
1789453540077872000,8.5938720703125,-0.41440191864967346,0.1946650892496109,-0.5427008867263794
1789453540087812000,8.60381201171875,-0.40450161695480347,0.17286737263202667,-0.5952229499816895
1789453540097751000,8.6137509765625,-0.4103226661682129,0.18186961114406586,-0.6356913447380066
1789453540107691000,8.62369091796875,-0.4405370056629181,0.23206859827041626,-0.6533704996109009
1789453540117631200,8.63363134765625,-0.4624433219432831,0.2861315906047821,-0.6422107815742493
1789453540127570200,8.643570068359375,-0.46910548210144043,0.3370930254459381,-0.6229926347732544
1789453540137510100,8.65351025390625,-0.4916988015174866,0.3846251964569092,-0.6255974769592285
1789453540147450000,8.6634501953125,-0.5103662014007568,0.3509543240070343,-0.6656131148338318
1789453540157389000,8.67338916015625,-0.5307937860488892,0.23398399353027344,-0.7276001572608948
1789453540167329000,8.6833291015625,-0.5572671890258789,0.10088106989860535,-0.7745639085769653
1789453540177269200,8.693269287109375,-0.5933765769004822,-0.03887380659580231,-0.7945581674575806
1789453540187208200,8.703208251953125,-0.6298784017562866,-0.1483134925365448,-0.785251796245575
1789453540197148200,8.713148193359375,-0.6650113463401794,-0.16003844141960144,-0.749726414680481
1789453540207087900,8.723087890625,-0.6805793642997742,-0.08678925782442093,-0.7184297442436218
1789453540217027000,8.733027099609375,-0.6758185625076294,-0.017313042655587196,-0.7172540426254272
1789453540226967000,8.742967041015625,-0.6895431876182556,0.005137938540428877,-0.7567095756530762
1789453540236907000,8.752906982421875,-0.6841281652450562,-0.0052943360060453415,-0.816543698310852
1789453540246846200,8.76284619140625,-0.6921453475952148,-0.033002663403749466,-0.8846617341041565
1789453540256786200,8.7727861328125,-0.7403674721717834,0.02472030185163021,-0.9293382167816162
1789453540266726100,8.78272607421875,-0.7816064953804016,0.09174034744501114,-0.9472333192825317
1789453540276665000,8.7926650390625,-0.7886036038398743,0.06468081474304199,-0.9649243354797363
1789453540286605000,8.80260498046875,-0.7993161678314209,0.002520505338907242,-1.000749945640564
1789453540296545000,8.812544921875,-0.8336905241012573,-0.10991623997688293,-1.0145013332366943
1789453540306484200,8.822484130859374,-0.8426619172096252,-0.23498041927814484,-1.015644907951355
1789453540316424200,8.832424072265624,-0.8436015844345093,-0.2624766528606415,-1.008703351020813
1789453540326364200,8.8423642578125,-0.8703045845031738,-0.26436564326286316,-0.9782527685165405
1789453540336303000,8.85230322265625,-0.8425682783126831,-0.2685685157775879,-0.969508171081543
1789453540346243000,8.8622431640625,-0.8268311023712158,-0.28712356090545654,-0.9786936640739441
1789453540356183000,8.87218310546875,-0.8330686688423157,-0.3655184209346771,-0.9862844347953796
1789453540366122000,8.8821220703125,-0.882140040397644,-0.42795276641845703,-0.997307300567627
1789453540376062200,8.892062255859376,-0.9452784061431885,-0.44883430004119873,-1.0071626901626587
1789453540386002200,8.902002197265626,-0.9587228298187256,-0.5228515863418579,-1.005472183227539
1789453540395941000,8.911941162109375,-0.9668801426887512,-0.5023273825645447,-1.0445033311843872
1789453540405881000,8.921881103515625,-0.8883717656135559,-0.5517972111701965,-1.077971339225769
1789453540415821000,8.931821044921875,-0.7986140847206116,-0.6563539505004883,-1.1192606687545776
1789453540425760000,8.941760009765625,-0.7983914017677307,-0.6414958834648132,-1.1761207580566406
1789453540435700200,8.9517001953125,-0.816330075263977,-0.6527896523475647,-1.1903935670852661
1789453540445640200,8.96164013671875,-0.8152158260345459,-0.6988093256950378,-1.1607741117477417
1789453540455579100,8.9715791015625,-0.8059007525444031,-0.6258447766304016,-1.105533242225647
1789453540465519000,8.98151904296875,-0.8071486949920654,-0.6036494374275208,-1.0495319366455078
1789453540475459000,8.991458984375,-0.7990360856056213,-0.5672910809516907,-1.0024363994598389
1789453540485398000,9.00139794921875,-0.7718143463134766,-0.589066207408905,-0.9920119047164917
1789453540495338200,9.011338134765625,-0.7526426315307617,-0.5890974402427673,-0.9978958964347839
1789453540505278200,9.0212783203125,-0.8173947334289551,-0.5024954080581665,-0.9796698093414307
1789453540515217200,9.031217041015625,-0.7637627124786377,-0.5506730675697327,-0.9435024857521057
1789453540525157000,9.0411572265625,-0.7099234461784363,-0.5914891958236694,-0.8680822849273682
1789453540535097000,9.05109716796875,-0.6753987669944763,-0.4716944992542267,-0.8231040239334106
1789453540545036000,9.0610361328125,-0.617304801940918,-0.5184398889541626,-0.811577320098877
1789453540554976300,9.070976318359374,-0.5840982794761658,-0.5058107972145081,-0.7400702834129333
1789453540564916200,9.080916259765624,-0.5678820013999939,-0.4541045129299164,-0.6034716963768005
1789453540574855200,9.090855224609374,-0.5970127582550049,-0.36296287178993225,-0.47077491879463196
1789453540584795000,9.100794921875,-0.5791426301002502,-0.29540541768074036,-0.36016663908958435
1789453540594735000,9.110735107421876,-0.5675556659698486,-0.11753656715154648,-0.2812831401824951
1789453540604674000,9.120674072265626,-0.6021690368652344,0.13469168543815613,-0.23044605553150177
1789453540614614000,9.130614013671876,-0.6957360506057739,0.4706703722476959,-0.24931825697422028
1789453540624554200,9.14055419921875,-0.6459812521934509,0.4363243877887726,-0.23387086391448975
1789453540634493200,9.1504931640625,-0.5352579355239868,0.3945581316947937,-0.007532983552664518
1789453540644433000,9.160432861328125,-0.40453243255615234,0.41778966784477234,0.14745526015758514
1789453540654373000,9.170373046875,-0.29056689143180847,0.49135875701904297,0.18398146331310272
1789453540664312000,9.18031201171875,-0.21199801564216614,0.5525174736976624,0.1591445505619049
1789453540674252000,9.190251953125,-0.13133469223976135,0.47895559668540955,0.20620682835578918
1789453540684192300,9.200192138671875,-0.06031617149710655,0.3372216522693634,0.2340128868818283
1789453540694131200,9.210131103515625,-0.04040200635790825,0.3158484995365143,0.2747042775154114
1789453540704071200,9.2200712890625,-0.06782590597867966,0.31133684515953064,0.33730000257492065
1789453540714011100,9.23001123046875,-0.09250181913375854,0.26274538040161133,0.40062007308006287
1789453540723950000,9.2399501953125,-0.0614837184548378,0.26032429933547974,0.44858306646347046
1789453540733890000,9.24989013671875,-0.026740942150354385,0.264945924282074,0.47417303919792175
1789453540743830300,9.259830322265625,0.03176577761769295,0.2884368598461151,0.5549395084381104
1789453540753769200,9.269769287109375,0.11197128891944885,0.2793884873390198,0.6539085507392883
1789453540763709200,9.279709228515625,0.1863832026720047,0.2664487361907959,0.7072500586509705
1789453540773649200,9.289649169921875,0.25111210346221924,0.20788709819316864,0.7795996069908142
1789453540783589000,9.299589111328125,0.3276025950908661,0.1346251368522644,0.8579287528991699
1789453540793528000,9.309528076171874,0.42752397060394287,0.09421571344137192,0.9040011763572693
1789453540803468300,9.31946826171875,0.5608071684837341,0.06039303541183472,0.9664248824119568
1789453540813408300,9.329408203125,0.6930766701698303,0.07324870675802231,1.0394043922424316
1789453540823347200,9.33934716796875,0.8147796988487244,0.12771141529083252,1.1108214855194092
1789453540833287000,9.349286865234374,0.9365507364273071,0.22937992215156555,1.189929723739624
1789453540843227100,9.35922705078125,0.9865608811378479,0.3849503695964813,1.2540935277938843
1789453540853166000,9.369166015625,1.0447322130203247,0.48125648498535156,1.300492286682129
1789453540863106000,9.37910595703125,1.1219422817230225,0.5603656768798828,1.3382071256637573
1789453540873046300,9.38904638671875,1.1728113889694214,0.6383582949638367,1.3780198097229004
1789453540882985200,9.398985107421876,1.2392395734786987,0.6719908714294434,1.3693618774414062
1789453540892925000,9.408925048828126,1.292191982269287,0.6992917656898499,1.333901047706604
1789453540902865200,9.418865234375,1.3384281396865845,0.6629175543785095,1.2850035429000854
1789453540912804000,9.42880419921875,1.3963617086410522,0.6228747367858887,1.2472238540649414
1789453540922744000,9.438744140625,1.4283137321472168,0.6387413144111633,1.1805592775344849
1789453540932684800,9.448684814453125,1.4406861066818237,0.6334325075149536,1.1279282569885254
1789453540942623700,9.458623779296875,1.4783626794815063,0.5687589645385742,1.066067099571228
1789453540952563700,9.468563720703125,1.4995325803756714,0.49235671758651733,1.0240508317947388
1789453540962504000,9.47850390625,1.4963210821151733,0.4562671482563019,0.9984171390533447
1789453540972443000,9.48844287109375,1.459920048713684,0.4097394645214081,0.962955117225647
1789453540982382800,9.4983828125,1.4121967554092407,0.30932897329330444,0.9067879915237427
1789453540992322800,9.50832275390625,1.3907206058502197,0.21901941299438477,0.8748260140419006
1789453541002261800,9.51826171875,1.4231549501419067,0.20405083894729614,0.8864166140556335
1789453541012201700,9.52820166015625,1.47122061252594,0.20353999733924866,0.9113826751708984
1789453541022142000,9.538141845703125,1.5084526538848877,0.17764848470687866,0.9193928837776184
1789453541032081000,9.548080810546875,1.5400044918060303,0.10930214822292328,0.9645513892173767
1789453541042020900,9.558020751953125,1.5352331399917603,0.05881127715110779,0.9932427406311035
1789453541051960800,9.5679609375,1.4609230756759644,0.03524434193968773,1.0077540874481201
1789453541061899800,9.577899658203124,1.3269256353378296,0.0469055250287056,1.0510517358779907
1789453541071839700,9.58783984375,1.236217975616455,0.040168941020965576,1.086443543434143
1789453541081780000,9.597780029296874,1.176377296447754,-0.0013055317103862762,1.0561050176620483
1789453541091719000,9.607718994140624,1.1386016607284546,-0.03461688384413719,1.0286800861358643
1789453541101659000,9.617658935546874,1.1062341928482056,-0.08685984462499619,1.0019826889038086
1789453541111598800,9.627598876953124,1.0654643774032593,-0.04100075364112854,1.0069334506988525
1789453541121538000,9.6375380859375,1.0060926675796509,-0.06831520050764084,1.0388535261154175
1789453541131477800,9.647477783203126,0.9614655375480652,-0.1270875781774521,1.032902479171753
1789453541141418000,9.65741796875,0.9247623682022095,-0.11884643882513046,1.0098214149475098
1789453541151357000,9.66735693359375,0.8708881735801697,-0.10603773593902588,0.9575722813606262
1789453541161297000,9.677296875,0.8105949759483337,-0.112791508436203,0.9092516303062439
1789453541171236900,9.68723681640625,0.7767807245254517,-0.1170845702290535,0.8888756036758423
1789453541181176000,9.697176025390625,0.741568922996521,-0.09300214052200317,0.8545740842819214
1789453541191115800,9.70711572265625,0.6826923489570618,-0.01755356602370739,0.8006795644760132
1789453541201055700,9.7170556640625,0.6511834263801575,-0.0009988248348236084,0.7381240129470825
1789453541210995000,9.726994873046875,0.6067836880683899,-0.009271322749555111,0.6554496884346008
1789453541220935000,9.736934814453125,0.5468287467956543,0.007474101614207029,0.5727806091308594
1789453541230875000,9.746875,0.48806917667388916,-0.009773120284080505,0.48398011922836304
1789453541240814000,9.75681396484375,0.4103304445743561,-0.09803080558776855,0.39369308948516846
1789453541250753800,9.76675390625,0.3179364800453186,-0.15193510055541992,0.28133097290992737
1789453541260693800,9.77669384765625,0.21495309472084045,-0.15419453382492065,0.176376074552536
1789453541270632700,9.7866328125,0.09015101194381714,-0.1087334081530571,0.07541323453187943
1789453541280573000,9.796572998046875,0.015470648184418678,-0.11245197802782059,-0.007920540869235992
1789453541290513000,9.806512939453125,-0.030618052929639816,-0.16855588555335999,-0.07412432879209518
1789453541300452900,9.816452880859375,-0.061905935406684875,-0.2599795460700989,-0.11032946407794952
1789453541310391800,9.826391845703125,-0.12707693874835968,-0.30741164088249207,-0.11734060198068619
1789453541320331800,9.836331787109375,-0.2165447622537613,-0.29147636890411377,-0.11856219172477722
1789453541330272000,9.84627197265625,-0.34176555275917053,-0.19147732853889465,-0.14311181008815765
1789453541340211000,9.8562109375,-0.4377421438694,-0.08249463886022568,-0.21364536881446838
1789453541350151000,9.86615087890625,-0.5120189189910889,0.03983158618211746,-0.28010573983192444
1789453541360091000,9.8760908203125,-0.532994270324707,0.1602219194173813,-0.3093768060207367
1789453541370029800,9.88602978515625,-0.513866126537323,0.270099014043808,-0.3240869343280792
1789453541379969800,9.8959697265625,-0.4985593259334564,0.33329877257347107,-0.31971484422683716
1789453541389909800,9.90590966796875,-0.4791272282600403,0.3588760197162628,-0.31656375527381897
1789453541399849000,9.915848876953126,-0.4617282450199127,0.32569384574890137,-0.3282265365123749
1789453541409789000,9.925788818359376,-0.44736751914024353,0.27597421407699585,-0.3609142005443573
1789453541419728600,9.935728759765626,-0.43359658122062683,0.19802989065647125,-0.3976637125015259
1789453541429667800,9.945667724609375,-0.4381251931190491,0.1379583477973938,-0.4494112730026245
1789453541439607800,9.95560791015625,-0.4329075217247009,0.06178875267505646,-0.5021586418151855
1789453541449547800,9.9655478515625,-0.44028908014297485,0.020250696688890457,-0.5567415952682495
1789453541459487000,9.975487060546875,-0.449097216129303,0.03484614938497543,-0.5956293344497681
1789453541469427000,9.985427001953125,-0.44727203249931335,0.08499125391244888,-0.6070460081100464
1789453541479366700,9.99536669921875,-0.46585768461227417,0.16730476915836334,-0.6019988059997559
1789453541489305900,10.005305908203125,-0.49104055762290955,0.2779981195926666,-0.6093649864196777
1789453541499245800,10.015245849609375,-0.5071508288383484,0.3819599449634552,-0.6069899797439575
1789453541509185800,10.025185791015625,-0.548929750919342,0.47752201557159424,-0.5998746752738953
1789453541519124700,10.035124755859375,-0.5927667617797852,0.5037810206413269,-0.6246503591537476
1789453541529065000,10.04506494140625,-0.6269525289535522,0.4644049406051636,-0.6677431464195251
1789453541539005000,10.0550048828125,-0.6470341086387634,0.35894936323165894,-0.6984426975250244
1789453541548944000,10.06494384765625,-0.6609371304512024,0.24562570452690125,-0.738446056842804
1789453541558883800,10.0748837890625,-0.6798083186149597,0.145560622215271,-0.7792813777923584
1789453541568823800,10.08482373046875,-0.7027934789657593,0.07835201919078827,-0.8023690581321716
1789453541578762800,10.0947626953125,-0.7169039845466614,0.05338409170508385,-0.7945161461830139
1789453541588703000,10.104702880859374,-0.7404929995536804,0.059382837265729904,-0.7560086846351624
1789453541598643000,10.114642822265624,-0.7576011419296265,0.08452893793582916,-0.7284084558486938
1789453541608582000,10.124581787109374,-0.7725959420204163,0.13297271728515625,-0.7240839600563049
1789453541618521900,10.13452197265625,-0.7996541857719421,0.17435424029827118,-0.7154572010040283
1789453541628461800,10.1444619140625,-0.8428783416748047,0.20814763009548187,-0.7247074246406555
1789453541638400800,10.15440087890625,-0.8395099639892578,0.20337390899658203,-0.7499315738677979
1789453541648341000,10.164341064453126,-0.8482165932655334,0.17162734270095825,-0.7739218473434448
1789453541658281000,10.174281005859376,-0.8469204306602478,0.18732000887393951,-0.7870973348617554
1789453541668220000,10.184219970703126,-0.819959282875061,0.16440704464912415,-0.8084097504615784
1789453541678160000,10.194159912109376,-0.8338798880577087,0.1016901358962059,-0.8343047499656677
1789453541688099800,10.204099853515626,-0.8831223845481873,0.06803169846534729,-0.8534121513366699
1789453541698038800,10.214038818359375,-0.9342867732048035,0.05528607964515686,-0.8392167091369629
1789453541707979000,10.22397900390625,-0.9827768206596375,0.04844564199447632,-0.8249674439430237
1789453541717919000,10.2339189453125,-0.9777016043663025,0.033082664012908936,-0.8371830582618713
1789453541727858700,10.243858642578125,-0.9079064130783081,-0.04350806400179863,-0.8701716661453247
1789453541737798000,10.2537978515625,-0.8413527011871338,-0.18921706080436707,-0.9262533187866211
1789453541747737900,10.26373779296875,-0.8293723464012146,-0.26032525300979614,-0.9908900856971741
1789453541757677800,10.273677734375,-0.8350920081138611,-0.2900671660900116,-1.007722020149231
1789453541767616800,10.28361669921875,-0.8589402437210083,-0.31363406777381897,-0.9798161387443542
1789453541777557000,10.293556884765625,-0.888267993927002,-0.2208935022354126,-0.9582335948944092
1789453541787496700,10.30349658203125,-0.8797407150268555,-0.23669756948947906,-0.9921468496322632
1789453541797435600,10.313435546875,-0.8620946407318115,-0.3304629325866699,-1.0421199798583984
1789453541807376000,10.3233759765625,-0.8528545498847961,-0.32774680852890015,-1.0415714979171753
1789453541817315800,10.33331591796875,-0.7973974347114563,-0.37092065811157227,-1.0147433280944824
1789453541827254800,10.3432548828125,-0.7413184642791748,-0.4266040325164795,-0.9998623728752136
1789453541837195000,10.353195068359375,-0.7464285492897034,-0.44340431690216064,-1.0223954916000366
1789453541847134700,10.363134765625,-0.765509307384491,-0.3878074884414673,-1.0792043209075928
1789453541857073700,10.37307373046875,-0.7694529294967651,-0.363737016916275,-1.116106629371643
1789453541867014000,10.383013916015624,-0.7383933067321777,-0.386576384305954,-1.100862979888916
1789453541876953900,10.392953857421874,-0.718417227268219,-0.4505385756492615,-1.0771019458770752
1789453541886892800,10.402892822265626,-0.6938820481300354,-0.5699726939201355,-1.093520164489746
1789453541896833000,10.4128330078125,-0.6705090999603271,-0.6270841956138611,-1.0624842643737793
1789453541906772700,10.422772705078126,-0.5852487683296204,-0.6265130639076233,-0.9869455099105835
1789453541916711700,10.432711669921876,-0.5358482003211975,-0.6585695147514343,-0.9546940922737122
1789453541926652000,10.44265185546875,-0.5729495286941528,-0.517484724521637,-0.9567781090736389
1789453541936591600,10.452591552734376,-0.6338062286376953,-0.37309956550598145,-0.9120170474052429
1789453541946530600,10.462530517578125,-0.610614001750946,-0.4785175621509552,-0.8279913663864136
1789453541956470800,10.472470703125,-0.6234011650085449,-0.3960929811000824,-0.683607816696167
1789453541966410800,10.48241064453125,-0.6083669662475586,-0.34262731671333313,-0.5989074110984802
1789453541976349700,10.492349609375,-0.5941007137298584,-0.21789975464344025,-0.4974074065685272
1789453541986289400,10.502289306640625,-0.5509148836135864,-0.14121097326278687,-0.531280517578125
1789453541996229600,10.512229736328125,-0.527040958404541,0.08498141914606094,-0.528814971446991
1789453542006168600,10.52216845703125,-0.471486896276474,0.21440064907073975,-0.45018118619918823
1789453542016108500,10.532108642578125,-0.39365652203559875,0.23579968512058258,-0.31348299980163574
1789453542026048800,10.542048828125,-0.3687830865383148,0.3055435121059418,-0.13881976902484894
1789453542035987700,10.55198779296875,-0.32372212409973145,0.3518896996974945,-0.058998703956604004
1789453542045927400,10.561927490234375,-0.2555372714996338,0.37118640542030334,-0.008577845990657806
1789453542055867600,10.57186767578125,-0.20462456345558167,0.4183667004108429,0.04002884030342102
1789453542065806600,10.581806640625,-0.11804533004760742,0.39531564712524414,0.06901232153177261
1789453542075746600,10.59174658203125,-0.015265426598489285,0.3256920874118805,0.07837147265672684
1789453542085686800,10.601686767578125,0.03082769177854061,0.3580876886844635,0.14629952609539032
1789453542095625700,10.611625732421874,0.052143633365631104,0.32303863763809204,0.20088820159435272
1789453542105565400,10.6215654296875,0.07392612844705582,0.2740902006626129,0.2687329053878784
1789453542115505700,10.631505615234374,0.09156957268714905,0.22115670144557953,0.3070635199546814
1789453542125444600,10.641444580078126,0.11573150753974915,0.12398989498615265,0.3553573787212372
1789453542135384600,10.651384521484376,0.15603071451187134,0.02526385337114334,0.41497328877449036
1789453542145324800,10.66132470703125,0.21067629754543304,-0.018387282267212868,0.4596885144710541
1789453542155263700,10.671263671875,0.3060914874076843,-0.015282303094863892,0.5272587537765503
1789453542165203500,10.681203369140626,0.42504990100860596,-0.004861056338995695,0.5967921614646912
1789453542175143700,10.691143798828126,0.5302101373672485,0.017749179154634476,0.6677930951118469
1789453542185082600,10.70108251953125,0.6305580735206604,0.05504781752824783,0.7464336156845093
1789453542195022600,10.711022705078125,0.714051365852356,0.04236530885100365,0.8185170888900757
1789453542204962800,10.720962890625,0.79697585105896,0.03941899165511131,0.8651007413864136
1789453542214901800,10.73090185546875,0.8686556220054626,0.07459695637226105,0.9167786240577698
1789453542224841500,10.740841552734375,0.9300360083580017,0.18442611396312714,0.988913893699646
1789453542234781400,10.750781494140625,1.0362714529037476,0.2788865864276886,1.0781042575836182
1789453542244720600,10.760720703125,1.146167278289795,0.3683021366596222,1.1324255466461182
1789453542254660600,10.77066064453125,1.2435636520385742,0.38102033734321594,1.1529806852340698
1789453542264600600,10.7806005859375,1.333383560180664,0.3771424889564514,1.162614107131958
1789453542274539800,10.790539794921875,1.3695173263549805,0.3613973557949066,1.159037470817566
1789453542284479700,10.800479736328125,1.4021191596984863,0.38101518154144287,1.1586741209030151
1789453542294419500,10.81041943359375,1.4167615175247192,0.390567421913147,1.1509575843811035
1789453542304358700,10.820358642578125,1.457403540611267,0.4382510483264923,1.1575658321380615
1789453542314298600,10.830298583984375,1.488973617553711,0.4919968247413635,1.1393218040466309
1789453542324238600,10.840238525390625,1.5003421306610107,0.46814796328544617,1.121273159980774
1789453542334177500,10.850177490234374,1.5416795015335083,0.4192943871021271,1.0951427221298218
1789453542344117800,10.86011767578125,1.562499761581421,0.3569047152996063,1.0364269018173218
1789453542354057500,10.870057373046874,1.5343778133392334,0.3398517072200775,0.9617394208908081
1789453542363996400,10.879996337890624,1.497881293296814,0.29579657316207886,0.904603123664856
1789453542373936600,10.8899365234375,1.4748386144638062,0.2078712433576584,0.8739272356033325
1789453542383876600,10.899876708984374,1.4794607162475586,0.11883846670389175,0.8295968174934387
1789453542393815600,10.909815673828126,1.4644356966018677,0.06747061759233475,0.7975842952728271
1789453542403755800,10.919755859375,1.4458038806915283,-0.02598000317811966,0.7854033708572388
1789453542413695500,10.929695556640626,1.4165089130401611,-0.08049091696739197,0.7787584662437439
1789453542423634400,10.939634521484376,1.3933640718460083,-0.0865936130285263,0.8215658068656921
1789453542433574700,10.94957470703125,1.3827269077301025,-0.11609211564064026,0.8832917809486389
1789453542443514600,10.9595146484375,1.379677653312683,-0.17207178473472595,0.9279466271400452
1789453542453453600,10.96945361328125,1.371222972869873,-0.23505981266498566,0.9544376134872437
1789453542463393800,10.979393798828125,1.3210490942001343,-0.24036970734596252,1.0065977573394775
1789453542473333500,10.98933349609375,1.1951379776000977,-0.19958366453647614,1.1005895137786865
1789453542483272400,10.9992724609375,1.054276943206787,-0.18562637269496918,1.1946067810058594
1789453542493212700,11.009212646484375,0.9306856989860535,-0.12039995938539505,1.2148364782333374
1789453542503152600,11.019152587890625,0.9024549722671509,-0.10571061074733734,1.1735635995864868
1789453542513091600,11.029091552734375,0.9129126667976379,-0.14561115205287933,1.0941801071166992
1789453542523031800,11.03903173828125,0.9329291582107544,-0.19370587170124054,1.061016321182251
1789453542532971500,11.048971435546875,0.9207262992858887,-0.23962515592575073,1.0589267015457153
1789453542542910500,11.058910400390625,0.8596440553665161,-0.28760361671447754,1.0424977540969849
1789453542552850700,11.0688505859375,0.7596898078918457,-0.23659555613994598,1.0236880779266357
1789453542562790700,11.078790771484375,0.6666991114616394,-0.13299083709716797,1.0050724744796753
1789453542572729600,11.0887294921875,0.586409330368042,-0.1246439665555954,0.935174822807312
1789453542582669600,11.098669677734375,0.5176879167556763,-0.2000112235546112,0.7843077778816223
1789453542592609500,11.108609619140625,0.4527986943721771,-0.27145689725875854,0.6512964963912964
1789453542602548500,11.118548583984374,0.3977399170398712,-0.31958773732185364,0.5927542448043823
1789453542612488400,11.128488525390624,0.332825630903244,-0.2718234062194824,0.5635931491851807
1789453542622428700,11.1384287109375,0.2646217942237854,-0.26279687881469727,0.4878722131252289
1789453542632367600,11.14836767578125,0.18198710680007935,-0.2789899706840515,0.34698063135147095
1789453542642307600,11.1583076171875,0.09733303636312485,-0.28834185004234314,0.20092973113059998
1789453542652247600,11.16824755859375,0.01954236999154091,-0.2971007227897644,0.0656973347067833
1789453542662186500,11.1781865234375,-0.05457865819334984,-0.3201088309288025,-0.030117560178041458
1789453542672126500,11.18812646484375,-0.1191461980342865,-0.29784560203552246,-0.10608530044555664
1789453542682066700,11.198066650390626,-0.19959044456481934,-0.2699870467185974,-0.1564292311668396
1789453542692005600,11.208005615234375,-0.2927300035953522,-0.230528324842453,-0.18686090409755707
1789453542701945600,11.217945556640625,-0.378085196018219,-0.1650172919034958,-0.22833223640918732
1789453542711884500,11.227884521484375,-0.4644680321216583,-0.06561268121004105,-0.2690437436103821
1789453542721824800,11.23782470703125,-0.5443726181983948,0.028099605813622475,-0.32038813829421997
1789453542731764500,11.247764404296875,-0.6042053699493408,0.08333462476730347,-0.37994733452796936
1789453542741703400,11.257703369140625,-0.6334773898124695,0.11841339617967606,-0.4415535628795624
1789453542751643600,11.2676435546875,-0.6439250111579895,0.09876618534326553,-0.49211636185646057
1789453542761583600,11.27758349609375,-0.6348240971565247,0.09206309169530869,-0.5064774751663208
1789453542771522600,11.2875224609375,-0.6035907864570618,0.16998480260372162,-0.44262203574180603
1789453542781462800,11.297462890625,-0.5861380100250244,0.25906553864479065,-0.3726745843887329
1789453542791402500,11.307402587890625,-0.5776667594909668,0.2750413119792938,-0.35876011848449707
1789453542801341400,11.317341552734375,-0.5695774555206299,0.258190780878067,-0.38853928446769714
1789453542811281700,11.32728173828125,-0.5815422534942627,0.2250823676586151,-0.43252110481262207
1789453542821221600,11.3372216796875,-0.549321174621582,0.16881075501441956,-0.48173391819000244
1789453542831160600,11.34716064453125,-0.4997060000896454,0.1271381378173828,-0.5106073617935181
1789453542841100800,11.357100830078124,-0.463602215051651,0.12816624343395233,-0.514534592628479
1789453542851040500,11.36704052734375,-0.4778629243373871,0.20852793753147125,-0.5246335864067078
1789453542860979500,11.3769794921875,-0.4959109425544739,0.3274308741092682,-0.5394420623779297
1789453542870919700,11.386919677734374,-0.514584481716156,0.42772287130355835,-0.5494332313537598
1789453542880859600,11.396859619140624,-0.5529137849807739,0.5350791215896606,-0.5616036057472229
1789453542890798600,11.406798583984376,-0.5744369029998779,0.5341635346412659,-0.5901068449020386
1789453542900738800,11.41673876953125,-0.5983456969261169,0.47732746601104736,-0.6220560073852539
1789453542910678500,11.426678466796876,-0.6017364263534546,0.40684422850608826,-0.6358479857444763
1789453542920617500,11.436617431640625,-0.627854585647583,0.3539500832557678,-0.6581066250801086
1789453542930557700,11.4465576171875,-0.6431872248649597,0.28720247745513916,-0.7053353786468506
1789453542940497200,11.4564970703125,-0.6477823853492737,0.209247425198555,-0.7577880620956421
1789453542950436400,11.466436279296875,-0.6594794988632202,0.14374218881130219,-0.7750322818756104
1789453542960376300,11.476376220703125,-0.6534329056739807,0.13826721906661987,-0.7538168430328369
1789453542970316300,11.48631640625,-0.6587533950805664,0.14939497411251068,-0.7141706347465515
1789453542980255200,11.496255126953125,-0.7032237648963928,0.18535968661308289,-0.6992789506912231
1789453542990195200,11.5061953125,-0.7316266894340515,0.1789979338645935,-0.693538248538971
1789453543000135200,11.51613525390625,-0.7680849432945251,0.11719656735658646,-0.691418468952179
1789453543010074000,11.52607421875,-0.7900267243385315,0.0665951743721962,-0.7038021683692932
1789453543020014300,11.536014404296875,-0.8055893182754517,0.020189767703413963,-0.7391974329948425
1789453543029953300,11.545953369140625,-0.8018798828125,-0.07612797617912292,-0.7940723896026611
1789453543039893200,11.555893310546875,-0.7989180088043213,-0.1679738461971283,-0.8506607413291931
1789453543049833200,11.565833251953125,-0.8358877301216125,-0.1721949577331543,-0.8962143659591675
1789453543059772200,11.575772216796874,-0.8995130062103271,-0.13155370950698853,-0.9278618097305298
1789453543069712100,11.585712158203124,-0.9948338866233826,-0.05896873399615288,-0.9401642680168152
1789453543079652400,11.59565234375,-1.034537434577942,-0.06556586921215057,-0.9432922601699829
1789453543089591300,11.60559130859375,-1.0637155771255493,-0.07336573302745819,-0.9484516382217407
1789453543099531300,11.61553125,-1.0381336212158203,-0.12967224419116974,-0.9519256949424744
1789453543109471200,11.62547119140625,-0.993179976940155,-0.18383722007274628,-0.9615000486373901
1789453543119410200,11.63541015625,-0.92771977186203,-0.22746732831001282,-0.9924185872077942
1789453543129350100,11.64535009765625,-0.8496121764183044,-0.241219624876976,-1.0395679473876953
1789453543139290400,11.655290283203126,-0.8510162830352783,-0.2876654267311096,-1.0811768770217896
1789453543149229300,11.665229248046876,-0.9117296934127808,-0.2853298485279083,-1.0909379720687866
1789453543159169300,11.675169189453126,-0.9859850406646729,-0.24902909994125366,-1.082711100578308
1789453543169109200,11.685109130859376,-0.9674901962280273,-0.32843446731567383,-1.074720859527588
1789453543179048200,11.695048095703125,-0.9623607993125916,-0.40757817029953003,-1.07851243019104
1789453543188988200,11.70498828125,-0.9353512525558472,-0.4916624128818512,-1.106387972831726
1789453543198928400,11.714928466796875,-0.9050925970077515,-0.5774330496788025,-1.1162116527557373
1789453543208867300,11.724867431640625,-0.8581042885780334,-0.580903947353363,-1.1159708499908447
1789453543218807300,11.734807373046875,-0.8055386543273926,-0.6875587105751038,-1.1431864500045776
1789453543228747000,11.7447470703125,-0.8296940922737122,-0.7452214360237122,-1.1819086074829102
1789453543238686200,11.754686279296875,-0.8329454064369202,-0.7541448473930359,-1.1499401330947876
1789453543248626200,11.764626220703125,-0.8614503145217896,-0.6860814094543457,-1.1101754903793335
1789453543258566100,11.774566162109375,-0.8553526997566223,-0.5630069971084595,-1.0513319969177246
1789453543268505300,11.78450537109375,-0.7803714275360107,-0.5487889051437378,-0.9688926935195923
1789453543278445300,11.7944453125,-0.7051711082458496,-0.5437405705451965,-0.9302913546562195
1789453543288385300,11.80438525390625,-0.6246182322502136,-0.5086401104927063,-0.9485033750534058
1789453543298324200,11.81432421875,-0.5605580806732178,-0.4358145296573639,-0.8677996397018433
1789453543308264200,11.82426416015625,-0.5251476168632507,-0.39162176847457886,-0.7467227578163147
1789453543318204200,11.8342041015625,-0.5517768263816833,-0.31415027379989624,-0.6348041296005249
1789453543328143000,11.84414306640625,-0.599331259727478,-0.2086792141199112,-0.5922979712486267
1789453543338083300,11.854083251953124,-0.57447350025177,-0.3277369737625122,-0.6068121790885925
1789453543348022300,11.864022216796876,-0.5760775208473206,-0.2155526578426361,-0.5387458205223083
1789453543357962200,11.873962158203126,-0.5700663924217224,-0.04090718924999237,-0.485379695892334
1789453543367902200,11.883902099609376,-0.4429644048213959,0.023106418550014496,-0.47189849615097046
1789453543377841200,11.893841064453126,-0.37283802032470703,0.17632615566253662,-0.3642096221446991
1789453543387781000,11.903781005859376,-0.35150638222694397,0.3747561573982239,-0.21908198297023773
1789453543397721300,11.913721435546876,-0.37197646498680115,0.5228784084320068,-0.019008832052350044
1789453543407660300,11.923660400390625,-0.30701130628585815,0.4745471179485321,0.07058896869421005
1789453543417600300,11.933600341796875,-0.23948733508586884,0.41709184646606445,0.13463495671749115
1789453543427540200,11.943540283203125,-0.21110735833644867,0.3857067823410034,0.16920730471611023
1789453543437479200,11.953479248046875,-0.17557896673679352,0.3504225015640259,0.18413229286670685
1789453543447419100,11.963419189453125,-0.09733743965625763,0.26654118299484253,0.22521021962165833
1789453543457359400,11.973359375,-0.02704538032412529,0.19577425718307495,0.24156682193279266
1789453543467298300,11.98329833984375,0.006841214839369059,0.17222020030021667,0.2705041766166687
1789453543477238300,11.99323828125,0.05340296030044556,0.1695733517408371,0.3278631567955017
1789453543487178200,12.00317822265625,0.09521113336086273,0.16104377806186676,0.3704785108566284
1789453543497117200,12.0131171875,0.14339448511600494,0.18575328588485718,0.438565731048584
1789453543507057200,12.02305712890625,0.20138294994831085,0.19603069126605988,0.5178866386413574
1789453543516997400,12.032997314453125,0.276071697473526,0.17637912929058075,0.5824804902076721
1789453543526936300,12.042936279296875,0.3789274990558624,0.17047783732414246,0.6348568797111511
1789453543536876300,12.052876220703125,0.4906781315803528,0.1588759869337082,0.6800097227096558
1789453543546816300,12.062816162109375,0.6112349033355713,0.180781289935112,0.7416355013847351
1789453543556755200,12.072755126953124,0.7290753722190857,0.17833910882472992,0.7963367104530334
1789453543566695200,12.082695068359374,0.8315868377685547,0.15194158256053925,0.8580451011657715
1789453543576635100,12.09263525390625,0.926314651966095,0.14762644469738007,0.9180395603179932
1789453543586574300,12.10257421875,1.0152634382247925,0.18868625164031982,0.9790781140327454
1789453543596514300,12.112514404296874,1.0994224548339844,0.2754766345024109,1.0761502981185913
1789453543606453200,12.122453369140626,1.1483063697814941,0.3487929403781891,1.1864054203033447
1789453543616393200,12.132393310546876,1.204457402229309,0.3909459114074707,1.2429450750350952
1789453543626333200,12.142333251953126,1.2464033365249634,0.4155460596084595,1.2578707933425903
1789453543636272000,12.152272216796876,1.2710292339324951,0.4290091395378113,1.2523106336593628
1789453543646212400,12.16221240234375,1.3195654153823853,0.45402848720550537,1.2834011316299438
1789453543656152300,12.17215234375,1.3962923288345337,0.49282753467559814,1.3029100894927979
1789453543666091300,12.18209130859375,1.4203171730041504,0.46326032280921936,1.2444186210632324
1789453543676031200,12.19203125,1.4181976318359375,0.42473626136779785,1.208686351776123
1789453543685971200,12.20197119140625,1.4121671915054321,0.36096206307411194,1.2269132137298584
1789453543695910100,12.21191015625,1.4397774934768677,0.3069325387477875,1.238715648651123
1789453543705850000,12.22185009765625,1.4531638622283936,0.2976341247558594,1.224455714225769
1789453543715790300,12.231790283203125,1.4297398328781128,0.29170966148376465,1.2059813737869263
1789453543725729300,12.241729248046875,1.4173029661178589,0.25055184960365295,1.1978265047073364
1789453543735669200,12.251669189453125,1.3871631622314453,0.2533714771270752,1.197625994682312
1789453543745609200,12.261609130859375,1.3432897329330444,0.14904190599918365,1.1809591054916382
1789453543755548200,12.271548095703125,1.3361791372299194,0.02940421551465988,1.14837646484375
1789453543765488000,12.281488037109375,1.3417694568634033,-0.044468674808740616,1.1087052822113037
1789453543775428400,12.291428466796875,1.3283064365386963,-0.07954409718513489,1.0607880353927612
1789453543785367300,12.3013671875,1.313973069190979,-0.029333122074604034,1.0463905334472656
1789453543795307300,12.311307373046875,1.3257336616516113,-0.014181675389409065,1.0259896516799927
1789453543805247200,12.321247314453124,1.318827509880066,-0.019314652308821678,1.0011471509933472
1789453543815186200,12.331186279296874,1.3037084341049194,-0.00866987556219101,1.026535987854004
1789453543825126100,12.341126220703124,1.2817219495773315,0.03475616127252579,1.0782781839370728
1789453543835065000,12.351065185546876,1.1795278787612915,0.05896405130624771,1.0918512344360352
1789453543845005300,12.36100537109375,1.0418648719787598,0.06823824346065521,1.0953726768493652
1789453543854945300,12.3709453125,0.9496967792510986,0.05777133256196976,1.0850435495376587
1789453543864884200,12.38088427734375,0.958636999130249,0.00707379961386323,1.0004873275756836
1789453543874824200,12.39082421875,1.0669827461242676,-0.04070175811648369,0.8759583830833435
1789453543884764200,12.40076416015625,1.1281065940856934,-0.10306606441736221,0.7762163281440735
1789453543894703000,12.410703125,1.080942153930664,-0.17321395874023438,0.738695502281189
1789453543904643300,12.420643310546875,0.9541845321655273,-0.18791566789150238,0.8123779892921448
