time,seconds_elapsed,z,y,x
1789620426807674600,0.044674560546875,5.568464148712158,7.081001047515869,-1.0690110412597655
1789620426817645800,0.054645751953125,5.73920065460205,6.908618527984618,-0.9265560424804687
1789620426827616800,0.06461669921875,5.402815321350097,6.755239984130859,-0.8197147933959961
1789620426837587700,0.074587646484375,5.2928316825866695,6.417507912445068,-1.2446855880737304
1789620426847559700,0.0845595703125,4.162020310974121,6.069301208496094,-1.5186720405578613
1789620426857530600,0.094530517578125,4.931157594299316,5.625625713348389,-1.7700632148742674
1789620426867501800,0.104501708984375,5.926995847320557,5.117905323791503,-1.666962905883789
1789620426877472500,0.114472412109375,6.802375829315185,4.131943152618408,-1.1979986557006834
1789620426887443700,0.124443603515625,7.628076126861572,2.945616230010986,-0.6165069274902344
1789620426897414700,0.13441455078125,8.332719602966309,2.0965724662780763,0.21652561264038084
1789620426907385600,0.144385498046875,8.78477480392456,2.027739168548584,1.2823942642211914
1789620426917357600,0.154357666015625,9.92740754623413,2.8576293190002438,1.2713210815429687
1789620426927328500,0.16432861328125,10.415824684906005,3.50496159286499,1.539322029876709
1789620426937299700,0.1742998046875,9.970054263305663,4.0267479171752925,1.9490297889709471
1789620426947270700,0.184270751953125,9.38482159500122,3.0166940917968748,1.1239280418395996
1789620426957241900,0.194241943359375,8.626607856750487,1.7152958518981933,0.8755296195983886
1789620426967212800,0.204212890625,8.6183777885437,2.8823195236206054,1.9693805030822753
1789620426977183700,0.214183837890625,9.69831237487793,3.7982512962341306,2.60474176864624
1789620426987154700,0.22415478515625,11.52359186553955,4.558111048126221,2.6096798095703124
1789620426997127000,0.234126953125,11.451765815734863,8.833407025146483,1.659181750488281
1789620427007097600,0.24409765625,6.544999150848389,10.657788690185546,0.27084406280517576
1789620427017068500,0.254068603515625,3.988141415405273,9.074922117614745,-0.7166144844055176
1789620427027039700,0.264039794921875,4.4960114425659174,6.267421395874023,0.02902969512939453
1789620427037010700,0.2740107421875,4.675576567077637,3.527407233428955,1.2560580459594726
1789620427046982000,0.28398193359375,4.657320779418945,2.1288941886901855,1.16837041015625
1789620427056952800,0.293952880859375,4.291905751037597,1.4411597618103027,0.32890345306396485
1789620427066923500,0.303923583984375,3.3132758224487304,1.6078560523986816,-1.3428478561401367
1789620427076895700,0.313895751953125,4.408623081970215,2.0968717414855957,-3.0042741706848144
1789620427086866700,0.32386669921875,17.176301985168458,0.6289268486022949,-3.5275568710327145
1789620427096837600,0.333837646484375,8.799140013885497,-3.5045126800537107,-2.8188731796264648
1789620427106808600,0.34380859375,6.282385156249999,-2.9300539192199704,-1.8210896377563475
1789620427116779800,0.35377978515625,7.454197231292724,1.402702897644043,-2.9701567970275877
1789620427126750700,0.363750732421875,8.763226988983154,6.086659170532227,-5.492597883605956
1789620427136721700,0.3737216796875,9.475651620483397,8.020725199127197,-6.063315704345703
1789620427146693600,0.383693603515625,10.327987411499024,4.989216984558105,-1.2624924629211425
1789620427156664600,0.39366455078125,10.569053591156004,2.5912743843078614,3.227982388305664
1789620427166635800,0.4036357421875,10.172813216400145,1.9755156448364257,5.05640426864624
1789620427176606700,0.413606689453125,9.376441889190673,2.2985832313537595,5.559934805297852
1789620427186578000,0.423577880859375,8.352022853851318,2.9122470443725583,5.014505739593505
1789620427196548600,0.433548583984375,7.312640058135986,4.491223039245606,5.441122547912597
1789620427206519600,0.44351953125,6.171503691864014,5.31827007522583,6.316053617095947
1789620427216490800,0.45349072265625,5.4613236244201655,4.720916761016845,6.789656632995605
1789620427226462700,0.463462646484375,5.342661004638671,4.651484912872315,6.791003371429443
1789620427236433700,0.47343359375,5.456834496307373,5.105036489868164,6.51851329498291
1789620427246404600,0.483404541015625,5.57953733139038,5.660491275024413,6.80521894378662
1789620427256375800,0.493375732421875,7.141753914642334,6.086808808135986,7.650970680236816
1789620427266970600,0.503970703125,10.824634618377685,6.451026735687256,8.999504765319823
1789620427276941800,0.51394189453125,13.89235513305664,6.899340996551513,9.578901567077637
1789620427286912800,0.523912841796875,15.238046103668212,7.525724005889892,9.062352558898926
1789620427296883500,0.533883544921875,15.376161611938477,7.9210665550231925,7.6190978706359855
1789620427306854700,0.543854736328125,15.04860489730835,8.049156343841553,6.111947925567627
1789620427316825600,0.55382568359375,14.611064543914795,8.138041080474853,4.939238024902344
1789620427326796800,0.563796875,14.4027689994812,8.173056279754638,4.16261886138916
1789620427336768500,0.5737685546875,14.721197820281981,8.081328428649902,3.8043864379882812
1789620427346739700,0.58373974609375,15.26453195953369,7.886799543762207,3.660285425567627
1789620427356710700,0.593710693359375,15.378106900787353,7.7401546920776365,3.3617584060668944
1789620427366681900,0.603681884765625,15.010596945953369,7.499088512420654,3.040187195587158
1789620427376652800,0.61365283203125,14.200159683990478,7.172279985809325,2.564040340423584
1789620427386623700,0.623623779296875,13.416058640289306,6.74192223739624,2.0820576187133786
1789620427396594700,0.6335947265625,13.00395667953491,6.179733760070801,2.0316297462463377
1789620427406566700,0.643566650390625,12.457031237792968,5.8862944190979,1.7827824111938475
1789620427416537900,0.653537841796875,11.713033071899414,5.657947435760498,1.5378256538391113
1789620427426508500,0.663508544921875,10.973823309326171,5.256918657684325,1.1507131729125977
1789620427436479700,0.673479736328125,10.38080948562622,4.706850826263428,0.7499836700439453
1789620427446450700,0.68345068359375,9.55690483932495,4.415356774139404,0.49679684448242184
1789620427456421600,0.693421630859375,8.744522288513183,4.59028313293457,0.8339303657531738
1789620427466392800,0.703392822265625,8.482357206726073,4.762216739654541,1.5876549758911132
1789620427476364500,0.713364501953125,8.285883032989501,5.100696999359131,1.9297265380859374
1789620427486335700,0.723335693359375,7.715314849853515,5.246144750213623,1.9211971946716306
1789620427496306700,0.733306640625,6.942286988830566,5.059995571136474,1.5234604438781738
1789620427506278000,0.74327783203125,6.514323442077636,4.961384390258789,1.5004162528991698
1789620427516248600,0.75324853515625,6.87599753036499,4.75623123550415,1.7139491134643554
1789620427526219500,0.763219482421875,7.415441091918945,4.590582408142089,1.998859111022949
1789620427536190700,0.773190673828125,7.491456994628906,4.415057498931884,2.0048446151733397
1789620427546162700,0.78316259765625,7.433696879577636,4.215740210723877,1.7516577896118164
1789620427556133600,0.793133544921875,7.387159584808349,4.093336650848388,1.4592659118652342
1789620427566104600,0.8031044921875,7.36127227935791,4.148852201843262,1.4378677345275879
1789620427576075800,0.81307568359375,7.6659344406127925,4.300734369659423,1.6301520553588866
1789620427586046700,0.823046630859375,7.96087015762329,4.338891958618164,1.7229273696899412
1789620427596017700,0.833017578125,7.776815904998779,4.355950645446777,1.6252140144348144
1789620427605988900,0.84298876953125,7.3545385871887206,4.34143579788208,1.567304261779785
1789620427615960600,0.852960693359375,6.799682352447509,4.472967251586914,1.553238327026367
1789620427625931800,0.862931884765625,6.244377204895019,4.681711708831787,1.6491560310363769
1789620427635902700,0.87290283203125,5.880757827758789,4.870554364776611,1.608903515625
1789620427645873700,0.882873779296875,5.795464393615722,5.0182466796875,1.7193360671997069
1789620427655844600,0.8928447265625,6.097433078002929,5.183745869445801,1.885284169769287
1789620427665815600,0.902815673828125,6.375160470581054,5.186588983917236,2.1676503280639645
1789620427675786800,0.912786865234375,6.402993064880371,5.240757796478271,1.9152116905212402
1789620427685758500,0.922758544921875,5.970540390014648,5.274126982116699,1.7705121276855467
1789620427695729700,0.932729736328125,5.748178910827637,5.339668252563476,1.7233762825012207
1789620427705700600,0.94270068359375,5.968744738769531,5.351938536071777,1.7383400428771971
1789620427715671800,0.952671875,6.213252583312988,5.336675500488281,1.6466121917724608
1789620427725642800,0.962642822265625,6.242132640838623,5.412691403198242,1.6391303115844726
1789620427735613700,0.97261376953125,6.176591370391845,5.542876118469238,1.6853683311462402
1789620427745584600,0.982584716796875,5.95677373046875,5.594201816558837,1.5819687469482422
1789620427755556600,0.992556640625,5.606771375274658,5.58028551940918,1.599925259399414
1789620427765527800,1.00252783203125,5.5449710449218745,5.647173528289795,1.8522142593383788
1789620427775498800,1.012498779296875,5.691017346191406,5.691765534210205,1.8984522789001463
1789620427785469700,1.0224697265625,5.891531735229492,5.491101507568359,1.8589479515075682
1789620427795440600,1.032440673828125,6.20562106552124,5.1699792098999025,1.8218378257751464
1789620427805410800,1.042410888671875,6.25664748840332,4.885069212341309,1.7721581413269043
1789620427815382000,1.052382080078125,5.832125606536865,4.653729476928711,1.8927660499572754
1789620427825354000,1.06235400390625,5.536890614318847,4.371064043426514,2.1823148132324217
1789620427835325000,1.072324951171875,5.477484485626221,4.0985739669799806,2.3719056571960446
1789620427845295900,1.0822958984375,5.2742766197204585,3.925143984222412,2.563441790008545
1789620427855267000,1.09226708984375,4.4565071151733395,3.7563527671813963,2.487276249694824
1789620427865238000,1.102238037109375,2.9403789138793943,3.3351229125976563,2.2177789253234863
1789620427875209000,1.112208984375,1.3545195892333983,2.5790041007995606,1.7711106781005859
1789620427885180000,1.122179931640625,0.21877017669677734,1.8115128311157225,1.010053825378418
1789620427895151900,1.13215185546875,-0.47749359359741206,1.0446201118469238,0.9910498497009277
1789620427905123000,1.142123046875,-0.5481225425720214,0.20679916839599607,1.7254712089538573
1789620427915094000,1.152093994140625,0.15068506698608397,-0.6386532928466796,-0.3280056274414062
1789620427925065000,1.16206494140625,0.49111061553955077,-2.196979298400879,0.41314942398071286
1789620427935036000,1.172035888671875,0.9822212310791015,-3.5966894439697263,1.3826514587402343
1789620427945006800,1.1820068359375,1.6710031211853027,-4.394257872009277,1.9749170944213865
1789620427954978800,1.191978759765625,2.3335984306335447,-4.754884497070313,3.12173968963623
1789620427964949800,1.20194970703125,2.6122236488342283,-5.124190103149414,4.787505494689941
1789620427974921000,1.2119208984375,2.5335142692565915,-5.121646263885498,5.4792801368713375
1789620427984892000,1.221891845703125,1.6757915245056152,-5.354632012939453,6.131999364471435
1789620427994863000,1.231863037109375,1.0763432838439941,-5.840804587554931,6.319046369171142
1789620428004834000,1.241833984375,0.7984662536621093,-6.815992851257324,6.031891807556152
1789620428014804700,1.2518046875,0.982520506286621,-7.422174784088134,6.361693086242675
1789620428024777000,1.26177685546875,1.5652093353271483,-7.32939946975708,7.438784558105469
1789620428034748000,1.271747802734375,2.2840683837890623,-7.404966459655761,8.424297816467284
1789620428044719000,1.281718994140625,2.4027310035705565,-6.588244418334961,10.060734651184081
1789620428054689800,1.291689697265625,1.218798282623291,-5.981763210296631,11.850998942565917
1789620428064661000,1.301660888671875,1.3896844261169432,-6.587945143127441,12.725930011749266
1789620428074632000,1.3116318359375,1.7212813560485838,-6.7657146163940425,14.149432536315917
1789620428084603100,1.32160302734375,0.8533832542419433,-6.638672290802002,15.544354278564452
1789620428094574800,1.331574951171875,-0.9100959060668945,-5.438129795837402,15.250166749572752
1789620428104546000,1.341546142578125,0.6189011291503906,-3.9713820037841794,13.523498439788817
1789620428114517000,1.35151708984375,4.460996243286132,-3.9653964996337887,13.245022859191893
1789620428124488000,1.361488037109375,6.9612909645080565,-4.547187503051758,13.948918147277832
1789620428134459100,1.371459228515625,7.998578833770751,-4.651335275268554,14.86933904800415
1789620428144429800,1.381429931640625,7.752873888397216,-4.116680117034912,16.186748511505126
1789620428154402000,1.391402099609375,5.916670852661133,-3.65819049911499,17.292570403289794
1789620428164373000,1.401373046875,3.5110967346191404,-2.7465982170104977,17.844882798767088
1789620428174344000,1.411343994140625,1.4586673614501953,-1.7399860565185545,18.37355245285034
1789620428184315000,1.42131494140625,0.7046434761047363,-0.9730933372497558,18.989161554718017
1789620428194285800,1.431285888671875,1.491288359069824,-0.05491700057983398,20.273501107788086
1789620428204257000,1.441257080078125,2.887407202148437,1.3736732025146483,22.873753748321533
1789620428214228000,1.45122802734375,2.34287596206665,2.465578797149658,25.368661515808103
1789620428224200000,1.461199951171875,-0.02154781494140625,3.0062194595336913,26.73066298522949
1789620428234171000,1.4711708984375,-4.059368914794922,3.0105589500427246,25.963171715545652
1789620428244142000,1.48114208984375,-9.564685994720458,4.321384358978271,23.54427985076904
1789620428254113000,1.491113037109375,-18.134581199645996,6.733542531585693,20.639215411376952
1789620428264084000,1.501083984375,-26.796503530883786,8.927828353118896,20.120122563934324
1789620428274055000,1.511054931640625,-18.167052559661865,6.679373719024658,19.965846194458006
1789620428284027000,1.52102685546875,0.1001075569152832,5.111470906829834,20.714183850860593
1789620428293998000,1.530998046875,4.340238697052001,5.222053096008301,21.76478946685791
1789620428303969000,1.540968994140625,3.552247075653076,5.614103617858887,22.866122230529783
1789620428313940000,1.55093994140625,-4.496759630584717,5.7882817886352536,21.397878062438963
1789620428323911000,1.560910888671875,-9.320627062988281,5.396680179595947,18.408118739318848
1789620428333881900,1.5708818359375,-10.835408525848388,3.5796307571411132,15.029750559234618
1789620428343853000,1.58085302734375,-7.3934443641662595,0.05117606048583984,15.026458531951903
1789620428353824800,1.59082470703125,-7.077559382629394,-0.4513070129394531,17.579575327301026
1789620428363796000,1.6007958984375,-7.320121938323974,-0.32561142578124996,18.401385047149656
1789620428373767000,1.610766845703125,-4.369866942596436,-2.448969023132324,17.0191825012207
1789620428383738000,1.620738037109375,-0.7435492530822754,-6.541407848358154,11.8231663482666
1789620428393709000,1.630708984375,0.9171288734436035,-9.631274728393555,5.957521918487548
1789620428403679700,1.6406796875,1.1218331153869627,-9.409212524414063,6.2213330139160155
1789620428413652000,1.65065185546875,0.7981669784545898,-7.912686849212646,9.073425741577148
1789620428423623000,1.660622802734375,0.32785598983764647,-6.789207720184326,10.059238275146484
1789620428433594000,1.670593994140625,-0.6714239280700683,-5.141248789978027,10.474632263183594
1789620428443564800,1.680564697265625,-1.5131354492187499,-0.1370680450439453,16.81777028656006
1789620428453536000,1.690535888671875,-5.456834496307373,4.594921898651123,16.760159809112547
1789620428463507000,1.7005068359375,0.7510311332702636,1.660528488922119,8.998606939697265
1789620428473479000,1.71047900390625,2.369810730743408,-2.282422370147705,0.07811082916259765
1789620428483449900,1.720449951171875,1.8997990173339843,-2.111386589050293,-4.648342523193359
1789620428493420800,1.7304208984375,1.1653776580810546,-2.9631238296508786,-3.8296751930236814
1789620428503392000,1.74039208984375,0.764199242401123,-4.693832354736328,-2.6090812591552734
1789620428513363000,1.750363037109375,0.0056862289428710935,-5.318868625640869,-0.6865373260498047
1789620428523334100,1.760334228515625,1.2624924629211425,-8.247725444030761,-1.251868193054199
1789620428533305900,1.770305908203125,0.5280711036682129,-9.322123439025878,-0.9630676177978515
1789620428543277000,1.780277099609375,-2.251597023773193,-7.119457911682129,3.4748844345092773
1789620428553248000,1.790248046875,-2.141463747406006,-4.659565343475341,6.293009426116943
1789620428563219000,1.800218994140625,-1.720533168029785,-2.6828525978088376,6.041019701385498
1789620428573190000,1.81018994140625,-1.952920366668701,-1.3928268157958983,5.944204171752929
1789620428583160800,1.820160888671875,-1.881393592071533,-0.12389993591308593,6.760327662658691
1789620428593132000,1.830132080078125,-1.4890437950134277,0.902763663482666,7.748684035491943
1789620428603104000,1.84010400390625,-0.953191535949707,1.2927192588806151,7.962366533660888
1789620428613075000,1.850074951171875,-1.680430290222168,1.070058504486084,7.920767279815673
1789620428623046000,1.8600458984375,-2.8030115936279296,1.3422493057250975,10.931924780273437
1789620428633017000,1.87001708984375,-2.7097873664855956,1.0266635993957518,14.798111548614502
1789620428642988000,1.879988037109375,-2.016665985870361,0.323666136932373,14.922610034942625
1789620428652959000,1.889958984375,-1.6519991455078125,-0.7638999671936034,13.109451190185545
1789620428662931000,1.899930908203125,-2.166004314422607,-1.7149965766906736,10.724975974273681
1789620428672902000,1.90990185546875,-2.4684219116210935,-2.7563246612548826,10.49647935333252
1789620428682873000,1.919873046875,-2.148197439575195,-2.6039935806274412,13.825167848968505
1789620428692844000,1.929843994140625,-0.6530185028076172,-2.4117092597961425,17.835904542541503
1789620428702815000,1.93981494140625,-0.31169512863159177,-3.329436683654785,17.279103018951414
1789620428712786000,1.949785888671875,-0.9062053283691406,-4.429273071289062,16.410456729125976
1789620428722758100,1.959758056640625,-0.28086978225708004,-5.925649108886718,14.190882152557371
1789620428732728800,1.969728759765625,1.034893667602539,-6.430526383972167,12.695104665374755
1789620428742699800,1.97969970703125,0.6866869636535644,-6.114491764831542,12.197709270477294
1789620428752671000,1.9896708984375,0.037708676147460936,-5.403713146972656,12.288389658355712
1789620428762642000,1.999641845703125,0.5611410140991211,-4.908263040924072,12.79416475906372
1789620428772613000,2.009613037109375,1.4022539848327635,-5.008819510650635,13.810353726196288
1789620428782584800,2.019584716796875,0.7730278610229492,-5.519233377075195,12.393435256195067
1789620428792556000,2.02955615234375,-1.6901567344665527,-4.999691616821289,9.213187263488768
1789620428802527000,2.03952685546875,-0.898274535369873,-4.827758010101318,8.614187935638427
1789620428812498200,2.049498291015625,0.42063130416870115,-4.316147042846679,12.132467275238037
1789620428822469000,2.05946923828125,5.10698177871704,-4.557811772918701,13.664457062530516
1789620428832439800,2.069439697265625,5.777657518768311,-3.0193875686645506,11.166855818176268
1789620428842412000,2.079412109375,3.4090438888549803,0.17387889556884764,10.957363172912597
1789620428852383000,2.089383056640625,-5.813720181274414,1.1272200691223144,9.42971287612915
1789620428862354000,2.09935400390625,-4.037372187042236,-0.3995324020385742,0.6495768379211425
1789620428872324900,2.109324951171875,-4.76281529006958,-2.771587696838379,-6.036081660461425
1789620428882296000,2.119296142578125,-3.9803602600097654,-1.7806874847412109,1.1646294700622557
1789620428892267000,2.12926708984375,-2.288108599090576,-0.4987421333312988,6.653935326385498
1789620428902239000,2.139239013671875,-2.5207950729370117,0.36047698745727536,7.5902178131103515
1789620428912210000,2.1492099609375,-2.601150466156006,1.1517606361389159,7.608323963165283
1789620428922180900,2.159180908203125,-2.130989115142822,1.6406266876220703,7.8800658515930175
1789620428932152000,2.169152099609375,-0.6480804618835448,1.6002245346069335,9.093177905273437
1789620428942123000,2.179123046875,-0.5047276374816895,1.6319477066040038,9.413103102111815
1789620428952094000,2.189093994140625,-1.665616167449951,1.530343773651123,9.381230292510987
1789620428962066000,2.19906591796875,-2.546832015991211,1.2779051361083984,9.132981507873534
1789620428972037000,2.209037109375,-2.8157307899475095,1.0378864196777342,8.026112152862549
1789620428982008000,2.219008056640625,-3.2980127868652342,0.9418190780639648,5.7788546195983885
1789620428991979000,2.22897900390625,-4.650138174438476,0.7155670211791991,3.684975630187988
1789620429001950000,2.238949951171875,-5.511901134490967,0.7787140899658203,3.5009213775634764
1789620429011921000,2.2489208984375,-4.735880521392822,2.246210070037842,4.619163190460204
1789620429021893000,2.25889306640625,-3.5755905418395995,-1.1700164237976074,6.430227108764648
1789620429031863800,2.26886376953125,-1.6769886253356932,-3.979312796783447,6.5200096710205075
1789620429041835000,2.2788349609375,0.6298246742248534,-4.519504546356201,5.020191968536377
1789620429051806000,2.288805908203125,5.082441211700439,-5.942408520507812,3.9043443572998044
1789620429061777000,2.29877685546875,2.231395947265625,-8.246827618408203,7.917475252532959
1789620429071748900,2.308748779296875,-0.3972878379821777,-8.583063314056396,8.146570423889159
1789620429081719800,2.3187197265625,0.177470198059082,-6.278644216156006,4.104559471130371
1789620429091691000,2.32869091796875,-2.778620664215088,-6.461202092742919,12.211924842834472
1789620429101662000,2.338661865234375,0.2558803024291992,-8.077587488555908,15.183578015899657
1789620429111633200,2.348633056640625,4.566191478729248,-6.471377449798584,10.72572416229248
1789620429121603800,2.358603759765625,3.2290298515319824,-4.686649749755859,7.90415750579834
1789620429131576000,2.368576171875,0.48183308410644526,-5.898265427398681,6.551882480621337
1789620429141547000,2.378547119140625,-1.017685343170166,-7.992294054412842,2.8197710052490232
1789620429151518200,2.388518310546875,0.6631938598632812,-7.698705075836181,5.695955387115478
1789620429161489000,2.398489013671875,1.9077298103332518,-8.0314991065979,11.215338401794433
1789620429171459800,2.4084599609375,-1.060481697845459,-7.867496292877197,8.75305163192749
1789620429181431000,2.41843115234375,-1.0823287879943848,-6.980594215393066,7.7250412940979
1789620429191403000,2.428403076171875,1.0146925910949707,-7.044190196990966,9.035866703033447
1789620429201374000,2.4383740234375,2.1167735427856442,-7.823203562164307,11.661557736206055
1789620429211345000,2.448344970703125,2.4072201316833493,-10.147524461364746,13.614627740478515
1789620429221316000,2.458316162109375,3.2219968841552733,-12.51284606399536,14.451251583099364
1789620429231287000,2.468287109375,3.156455613708496,-11.726051543426513,14.138957904052733
1789620429241258000,2.478258056640625,1.7380407676696776,-10.657339777374267,15.202133078765868
1789620429251230000,2.48822998046875,1.2696750679016113,-7.789535101318359,13.552528134918212
1789620429261201000,2.498200927734375,0.16445172653198242,-8.288875785064697,10.48301196899414
1789620429271172000,2.508172119140625,2.329109302520752,-13.230956924438475,9.672574707031249
1789620429281143000,2.51814306640625,-0.20350714111328125,-10.967837805175781,10.002525623321533
1789620429291114000,2.528114013671875,-2.798821740722656,-5.437680883026123,3.608810089874267
1789620429301085000,2.5380849609375,1.116595799255371,-3.118896575164795,1.5887024391174316
1789620429311057200,2.54805712890625,1.8079215286254882,-3.321805165863037,7.336731712341308
1789620429321028000,2.558028076171875,1.2951134605407715,-3.895815013885498,8.933813857269287
1789620429330998800,2.567998779296875,0.6389525680541992,-4.5413516365051265,7.317278823852539
1789620429340970000,2.577969970703125,-0.411802685546875,-5.368697947692871,6.685209585571289
1789620429350941000,2.58794091796875,-1.2339116806030272,-6.6516907623291015,7.8721350585937495
1789620429360913200,2.5979130859375,-1.2802993377685545,-7.368305246734619,8.748412866210938
1789620429370883800,2.6078837890625,-0.5211877738952636,-6.8967971572875975,8.085667919158935
1789620429380855000,2.61785498046875,-0.18240823898315428,-5.904550206756592,8.12098239364624
1789620429390826000,2.627825927734375,-0.4510077377319336,-5.315277323150634,9.419986431884766
1789620429400797000,2.637796875,-0.8436568099975585,-5.4044613349914545,11.220874993133544
1789620429410768100,2.64776806640625,1.1598410667419432,-6.419752476501465,10.747720890045166
1789620429420739800,2.65773974609375,3.125181354522705,-3.6451720275878903,9.355642262268066
1789620429430711000,2.6677109375,2.5668834548950192,4.85184966430664,8.876652292633056
1789620429440682000,2.677681884765625,0.4756979423522949,6.240636264801025,6.494272003173828
1789620429450653200,2.687653076171875,-0.610371785736084,5.780949546051025,6.8034232925415035
1789620429460624000,2.697623779296875,-0.4964975692749023,7.932588650512695,8.962544277191162
1789620429470594800,2.7075947265625,0.7577648254394531,5.515043524169921,8.726865051269531
1789620429480567000,2.717567138671875,3.497330075073242,1.6953940505981444,7.867047380065918
1789620429490538000,2.7275380859375,4.467879573059082,1.5408184059143066,7.784597060394287
1789620429500509000,2.737509033203125,3.563769171142578,2.7310359062194824,7.829039428710937
1789620429510480000,2.74747998046875,1.7709610404968261,2.456600540924072,6.931363443756103
1789620429520451000,2.757451171875,0.4991910461425781,-0.5351040710449219,4.502595497131347
1789620429530422000,2.767422119140625,-0.6081272216796875,-5.934028814697265,3.07714768371582
1789620429540394000,2.77739404296875,0.21906945190429686,-11.521496939086914,3.41547830581665
1789620429550365000,2.787364990234375,4.59028313293457,-18.696769676971435,5.761795932769775
1789620429560336000,2.7973359375,3.0558991439819336,-16.38277377243042,8.825027319335938
1789620429570307000,2.80730712890625,-0.7466916427612305,-16.626234153747557,10.06133320159912
1789620429580278000,2.817278076171875,-0.8212111694335937,-25.011775830841064,18.606238926696776
1789620429590250000,2.82725,1.5013140785217285,-26.39831786727905,16.13272933654785
1789620429600221000,2.837220947265625,3.812317230987549,-17.602020967864988,1.8809446792602538
1789620429610192100,2.847192138671875,1.9348142166137694,-13.82187582168579,-0.4255693450927734
1789620429620163000,2.8571630859375,-1.375169578552246,-11.61995848236084,3.8486791687011714
1789620429630134000,2.867134033203125,-1.882141780090332,-9.373449137115477,6.75479107131958
1789620429640105000,2.87710498046875,-0.8078934226989746,-8.952368920135498,7.257124507141113
1789620429650077200,2.8870771484375,-0.42751463394165035,-8.260594277954102,7.567023984527587
1789620429660048100,2.897048095703125,0.22400749282836913,-7.912686849212646,6.750750856018066
1789620429670018800,2.907018798828125,0.00029927520751953123,-6.854000802612305,7.813177842712402
1789620429679990000,2.916989990234375,-0.14380173721313474,-4.882076460266113,9.695618898010252
1789620429689961000,2.9269609375,0.12375029830932617,-4.35415499420166,9.8449572265625
1789620429699933000,2.936932861328125,-0.021398177337646485,-4.961384390258789,9.450362865447998
1789620429709904000,2.94690380859375,-0.4525041137695312,-5.457582684326171,9.356839363098144
1789620429719875000,2.956875,-0.830638338470459,-5.07555788192749,9.179369165039063
1789620429729846000,2.966845947265625,-1.140837091064453,-5.269188941192627,7.856273472595214
1789620429739817000,2.97681689453125,-1.2668319534301757,-4.945822079467773,7.294683545684814
1789620429749788200,2.9867880859375,-0.7875427085876464,-4.368969116973877,7.293336807250976
1789620429759760000,2.996759765625,0.1396118843078613,-4.187309066009521,6.916399683380127
1789620429769731000,3.00673095703125,0.25348610076904293,-3.6483144172668456,7.906850982666016
1789620429779702000,3.016701904296875,-0.14933832855224607,-4.25225178604126,8.302492807006836
1789620429789673200,3.026673095703125,-0.8099883491516113,-5.066729263305664,9.422829546356201
1789620429799644200,3.03664404296875,-1.0274117874145507,-5.517437725830078,10.690409687805175
1789620429809615000,3.046614990234375,-0.4921580787658691,-5.770774188995361,10.437522137451172
1789620429819587300,3.05658740234375,-0.29284079055786133,-5.615450356292724,9.81293477935791
1789620429829558000,3.06655810546875,-0.8728361427307129,-5.093065481567383,9.85632968444824
1789620429839529200,3.076529296875,-0.9525929855346679,-5.198709629821777,9.848847804260254
1789620429849500200,3.086500244140625,-0.8653542625427245,-5.305850154113769,9.651775080108642
1789620429859471400,3.096471435546875,-0.9656114570617675,-5.430199002838134,8.980949702453612
1789620429869443000,3.106443115234375,-0.6536170532226562,-5.613505067443847,7.869740856933594
1789620429879414300,3.116414306640625,0.2603694305419922,-4.886864863586426,7.109581829833984
1789620429889385200,3.12638525390625,0.2289455337524414,-3.638288697814941,7.291690793609619
1789620429899356200,3.136356201171875,0.04115034103393554,-2.860771708679199,7.876624186706542
1789620429909327400,3.146327392578125,0.24735095901489257,-3.6961984504699705,7.9457567596435545
1789620429919299000,3.156299072265625,0.30196868438720703,-4.59043277053833,7.613561279296874
1789620429929270300,3.166270263671875,-0.05132569808959961,-4.770297170257568,7.145045941925049
1789620429939241200,3.1762412109375,-0.42227731781005856,-4.414907861328125,6.864625072479248
1789620429949212400,3.18621240234375,-0.8945335952758788,-3.5277065086364745,7.748983310699463
1789620429959183000,3.19618310546875,-0.716315209197998,-3.189076611328125,8.343643148040771
1789620429969154000,3.206154052734375,-0.46252983322143554,-3.21152225189209,8.952368920135498
1789620429979126300,3.216126220703125,-0.5951087501525879,-3.263745775604248,9.552714986419677
1789620429989097200,3.22609716796875,-1.0007762939453124,-3.637540509796142,9.932794499969482
1789620429999068200,3.236068115234375,-1.297806937408447,-3.897760302734375,10.446949306488037
1789620430009039000,3.2460390625,-0.849791951751709,-4.32841732635498,10.386794989776611
1789620430019010300,3.25601025390625,-0.13572130661010742,-4.64759433517456,9.931447761535644
1789620430028982300,3.265982177734375,0.08304887008666992,-4.773140284729004,9.03422068939209
1789620430038953200,3.275953125,-0.06569090805053711,-4.804564181518554,8.268225795745849
1789620430048924200,3.285924072265625,-0.5138555313110351,-4.533420843505859,8.30593447189331
1789620430058895000,3.29589501953125,-0.8964788841247558,-4.501398396301269,8.039579537200927
1789620430068866300,3.3058662109375,-0.30750527572631836,-5.0480245628356935,6.969820307922363
1789620430078837200,3.315837158203125,-0.48063598327636714,-5.056703543853759,7.237372343444823
1789620430088809200,3.325809326171875,-0.9290998817443847,-4.679467144775391,8.54206261062622
1789620430098780200,3.3357802734375,-1.5448586212158202,-4.57741429901123,9.345317267608642
1789620430108751400,3.34575146484375,-1.6306009681701659,-5.142146615600586,9.315539384460449
1789620430118722300,3.355722412109375,-1.279401512145996,-6.133346102905273,9.094973556518553
1789620430128693000,3.36569287109375,-0.6274304725646972,-6.056582012176514,9.564985269927979
1789620430138665200,3.375665283203125,-0.9157821350097656,-5.22235237121582,9.995492655944824
1789620430148636200,3.38563623046875,-1.313967798614502,-5.485415278625488,7.362918292999267
1789620430158607400,3.395607421875,-2.0988170303344726,-5.070320565795898,5.69505756149292
1789620430168578000,3.405578125,-2.1487959899902345,-3.9318776763916015,6.124068571472168
1789620430178549200,3.41554931640625,-1.1167454368591307,-3.379116368103027,6.7933975730895995
1789620430188520200,3.425520263671875,-0.4508581001281738,-3.242497235870361,7.773823152923583
1789620430198492400,3.435492431640625,-0.42586862030029293,-3.23681100692749,8.367585164642334
1789620430208463000,3.445463134765625,-1.50670103225708,-3.5736452529907226,8.784176253509521
1789620430218434000,3.45543408203125,-1.1783961296081542,-4.076876514434814,9.1293902053833
1789620430228405200,3.4654052734375,-1.09819037399292,-4.371512956237793,9.952696301269532
1789620430238376200,3.475376220703125,-1.3277344581604003,-3.978714246368408,10.399663823699951
1789620430248348200,3.48534814453125,-1.0096049125671387,-4.0520366722106935,10.098742602539062
1789620430258319000,3.495319091796875,-0.7121253562927246,-4.822520693969726,8.866925848388671
1789620430268290300,3.505290283203125,-1.0283096130371092,-3.942501946258545,8.596680335998535
1789620430278261200,3.51526123046875,-0.5354033462524413,-2.9529484725952146,7.695861961364746
1789620430288232200,3.525232177734375,0.1414075355529785,-3.1976059547424316,5.759252093505859
1789620430298204200,3.5352041015625,0.4779425064086914,-3.012653876495361,5.398625468444824
1789620430308175000,3.545175048828125,0.373495458984375,-2.481590020751953,5.990442191314697
1789620430318146300,3.555146240234375,0.16774375381469725,-2.527079852294922,6.357802508544921
1789620430328117200,3.5651171875,-0.2885013000488281,-1.4818611900329588,7.949497699737548
1789620430338088200,3.575088134765625,0.16744447860717773,-0.4112041351318359,9.705943892669676
1789620430348060200,3.58506005859375,-2.360233924102783,-0.8300397880554199,10.928932028198242
1789620430358031400,3.59503125,-3.3545758010864257,-2.536058108520508,10.136600916290282
1789620430368002300,3.605002197265625,-1.1387421646118163,-3.3261446563720702,9.541342528533935
1789620430377973200,3.61497314453125,-0.5006874221801757,-2.5917232971191404,9.166500331115722
1789620430387944200,3.624944091796875,-1.0108020133972166,-1.8716671478271483,8.474576051330565
1789620430397915100,3.6349150390625,-1.149815347290039,-1.732803451538086,8.436268824768065
1789620430407887000,3.64488720703125,-1.3311761230468748,-1.9352631294250486,9.172785110473633
1789620430417858000,3.654858154296875,-1.063624087524414,-2.89204596786499,8.452579323577881
1789620430427829200,3.664829345703125,0.37454292221069335,-2.918831098937988,8.148515712738037
1789620430437800200,3.67480029296875,0.007930792999267577,-1.9416975463867185,10.205583851623535
1789620430447771400,3.684771484375,-0.4629787460327148,-2.662801158905029,10.65569376373291
1789620430457743000,3.6947431640625,-0.948702407836914,-3.2225954345703123,11.7082446685791
1789620430467714300,3.70471435546875,-0.9109937316894531,-3.6961984504699705,11.52389114074707
1789620430477685200,3.714685302734375,-1.529745223236084,-3.8232407760620113,10.823287879943846
1789620430487656200,3.72465625,-1.9077298103332518,-3.6267666023254392,9.637110594940186
1789620430497627100,3.734627197265625,-1.2056301734924315,-3.357418915557861,7.783549597167968
1789620430507599000,3.74459912109375,-0.604535919189453,-2.8570307685852048,6.6617164817810055
1789620430517570300,3.7545703125,-0.526125814819336,-2.5047838493347165,5.669918444061279
1789620430527541200,3.764541259765625,0.2741360900878906,-2.064550019073486,5.280711036682129
1789620430537512200,3.77451220703125,0.783352855682373,-1.9907786804199217,5.297769723510742
1789620430547483100,3.784483154296875,-0.3242646873474121,-1.970128691101074,6.296301453399658
1789620430557455400,3.794455322265625,-0.5482721801757812,-2.6144682128906247,6.212504395294189
1789620430567426300,3.80442626953125,-0.4700117134094238,-4.00295553817749,5.389048661804199
1789620430577397000,3.81439697265625,-1.7278654106140137,-4.972457572937011,5.8925791984558105
1789620430587368200,3.8243681640625,-2.0638018310546875,-5.396380904388427,6.669796912384033
1789620430597339100,3.834339111328125,-1.5483002861022948,-5.385457359313965,7.292438981628417
1789620430607311400,3.844311279296875,-1.3280337333679197,-4.957643450164794,8.455721713256835
1789620430617282000,3.854281982421875,-1.3416507553100585,-4.623053768157959,9.884760829162596
1789620430627253200,3.864253173828125,-1.8368015861511229,-4.292354663848877,11.7089928565979
1789620430637224200,3.87422412109375,-2.079962692260742,-3.9918823554992673,12.964751627349854
1789620430647195100,3.884195068359375,-0.5382464607238769,-3.9860464889526366,11.529278094482422
1789620430657167000,3.8941669921875,0.7603086647033691,-4.109647149658203,9.240271669769287
1789620430667138000,3.904137939453125,-0.26755203552246093,-3.4573768348693847,9.237278917694091
1789620430677109200,3.914109130859375,-0.3699041564941406,-2.5291747787475582,9.122057962799072
1789620430687080200,3.924080078125,0.8494926765441894,-1.9352631294250486,9.343222341156006
1789620430697051400,3.934051513671875,1.0633248123168946,-2.2725462882995604,9.828497090148925
1789620430707022000,3.94402197265625,0.5825391914367676,-3.3946786788940426,9.13642317276001
1789620430716994300,3.953994384765625,0.9282020561218262,-4.157381545257568,8.316109828948974
1789620430726965200,3.96396533203125,1.1258733306884765,-4.094084838867187,8.646958570861816
1789620430736936200,3.973936279296875,1.5174749397277831,-3.902548706054687,8.602815477752685
1789620430746907100,3.9839072265625,1.4885948822021484,-3.6391865234374996,8.528146313476562
1789620430756878000,3.993878173828125,1.746121198272705,-4.422240103912353,8.07594147491455
1789620430766850300,4.003850341796875,1.4809633644104003,-6.184821438598632,9.382128118133544
1789620430776821200,4.0138212890625,0.15741875915527342,-7.93603031539917,11.557409963989258
1789620430786792200,4.023792236328125,0.7288847679138183,-8.568548466491698,11.256339105224608
1789620430796763100,4.03376318359375,1.2419921112060546,-8.355464518737792,9.502436751556395
1789620430806734800,4.04373486328125,0.012419921112060545,-7.410353413391113,8.764424089813232
1789620430816706800,4.053706787109375,-0.316034619140625,-6.031742169952392,8.321496782684326
1789620430826677800,4.063677734375,0.5446808776855468,-5.265298363494873,8.192209893035889
1789620430836649000,4.07364892578125,0.44577042160034175,-5.7064300193786615,9.369558559417724
1789620430846620000,4.083619873046875,0.3199251968383789,-7.1218521133422845,10.047716179656982
1789620430856590800,4.0935908203125,1.4712369201660156,-8.360851472473144,8.355763793945313
1789620430866562800,4.103562744140625,1.5951368560791015,-8.75290199432373,6.5963248489379875
1789620430876533800,4.11353369140625,0.2902969512939453,-8.353668867492676,6.008997254180908
1789620430886505000,4.1235048828125,-0.3320458427429199,-7.307552379608154,5.855618710327148
1789620430896476000,4.133475830078125,0.2027589530944824,-6.507889025115967,5.706579656982422
1789620430906446800,4.14344677734375,0.802506468963623,-6.130951901245117,5.626523538970947
1789620430916418800,4.153418701171875,0.8424597091674804,-5.543175393676758,5.740248117828369
1789620430926390000,4.16339013671875,1.3394061912536621,-4.989366622161865,5.21576831665039
1789620430936361000,4.17336083984375,1.829768618774414,-4.879682258605957,4.78825368270874
1789620430946331600,4.18333154296875,1.5568296295166015,-4.809202947235107,4.566041841125488
1789620430956302800,4.193302734375,0.8300397880554199,-5.167285733032227,5.2453965621948235
1789620430966274800,4.20327490234375,0.02663549346923828,-5.940612869262695,6.3064768104553215
1789620430976245800,4.213245849609375,0.0022445640563964844,-7.160308977508545,7.489661343383789
1789620430986216700,4.223216796875,0.5541080467224121,-8.1341505027771,8.799888201904297
1789620430996188000,4.23318798828125,0.5080196647644043,-8.288127597045898,10.346392836761474
1789620431006158800,4.243158935546875,0.009277531433105468,-8.493131114196776,10.583718076324462
1789620431016130800,4.253130859375,-0.5041290870666504,-8.264335218048096,9.3339448097229
1789620431026101800,4.263101806640625,-0.28206688308715816,-7.378031690979004,9.05980871963501
1789620431036072700,4.27307275390625,0.6751648681640625,-6.216544610595703,9.118017747497557
1789620431046044000,4.2830439453125,1.5159785636901855,-5.342212091827392,8.621969091033934
1789620431056014800,4.293014892578125,1.3298293846130371,-5.706130744171142,8.179789971923828
1789620431065986800,4.30298681640625,1.2241852363586425,-6.65872372970581,6.796240687561035
1789620431075957800,4.312957763671875,1.6606781265258788,-8.687809636688232,7.133972759246825
1789620431085929000,4.322928955078125,1.5236100814819336,-9.607631986999511,6.514323442077636
1789620431095900000,4.33289990234375,0.5629366653442383,-8.882338521575928,6.946327204132079
1789620431105870800,4.342870849609375,-0.4514566505432129,-8.073846548461914,8.80482624282837
1789620431115842800,4.3528427734375,-0.3274070770263672,-7.822156098937988,9.211092337036133
1789620431125813800,4.362813720703125,0.6667851623535156,-7.908945909118652,8.897003006744384
1789620431135785000,4.372784912109375,1.8338088340759275,-8.252513847351073,7.877522012329101
1789620431145755600,4.382755615234375,2.0235493156433106,-8.895207355499267,7.0263833221435545
1789620431155726800,4.392726806640625,1.4872481437683105,-9.158569538116454,7.144597029113769
1789620431165698800,4.40269873046875,1.439663385772705,-8.927229802703858,6.725312463378906
1789620431175670000,4.412669921875,0.5346551582336425,-9.106495652008055,6.496815842437743
1789620431185640700,4.422640625,-1.1182418128967284,-8.953715658569335,7.331344758605956
1789620431195611600,4.432611572265625,-1.1399392654418945,-8.358457270812988,6.938396411132812
1789620431205582800,4.442582763671875,0.15128361740112303,-8.298003678894043,5.135113648223877
1789620431215554800,4.452554931640625,0.687584789276123,-8.253112397766113,4.687547575378417
1789620431225525800,4.46252587890625,0.25962124252319335,-7.206546997070312,6.14801058807373
1789620431235496700,4.47249658203125,1.3476362594604492,-6.912808380889892,5.628019915008545
1789620431245468000,4.482468017578125,2.4494179359436035,-7.869142306518555,3.928136736297607
1789620431255438800,4.49243896484375,1.7389385932922363,-7.948899149322509,4.69921930847168
1789620431265410800,4.502410888671875,0.4444236831665039,-7.447463539123535,6.47377165145874
1789620431275381800,4.5123818359375,-0.022146365356445312,-7.834576020050048,7.037456504821777
1789620431285353000,4.52235302734375,0.19018939437866209,-8.438214113616944,7.2432082099914545
1789620431295324000,4.532323974609375,1.3301286598205566,-8.556427820587158,7.113173132324218
1789620431305294800,4.542294921875,1.6416741508483885,-8.291269986724853,7.6990043510437
1789620431315266800,4.552266845703125,0.5826888290405273,-7.032518463897705,9.664195001220703
1789620431325237800,4.56223779296875,0.5472247169494628,-5.74578470916748,10.832864686584472
1789620431335209000,4.572208984375,1.6891092712402342,-5.879261451721191,9.514557397460937
1789620431345180000,4.582179931640625,1.6980875274658203,-6.637475189971924,7.64827720336914
1789620431355150800,4.59215087890625,0.2284966209411621,-6.6151791870117185,7.413645440673828
1789620431365122800,4.602122802734375,-1.012597664642334,-6.432022760009765,7.450905204010009
1789620431375094000,4.612093994140625,-2.0636521934509275,-6.328174263000488,8.501959732818603
1789620431385065000,4.62206494140625,-1.4612112007141111,-6.329521001434326,9.497648348236083
1789620431395035600,4.63203564453125,0.2727893516540527,-6.317101080322265,9.281870923614502
1789620431405006800,4.6420068359375,1.2232874107360838,-5.981763210296631,8.26164174118042
1789620431414978800,4.651978759765625,0.9080009796142577,-5.388599748992919,8.15195737762451
1789620431424949800,4.66194970703125,0.967856021118164,-5.242104534912109,7.947702048492431
1789620431434920700,4.671920654296875,1.686715069580078,-5.7968111320495606,7.403320446014404
1789620431444892000,4.681891845703125,1.3979144943237305,-6.259640240478515,7.328800919342041
1789620431454862800,4.69186279296875,0.6751648681640625,-6.710797615814209,7.464073313140869
1789620431464834800,4.701834716796875,-0.15128361740112303,-7.174524549865723,8.426542380523681
1789620431474805800,4.7118056640625,-0.5110124168395995,-7.259817984008788,9.569025485229492
1789620431484776700,4.721776611328125,0.22939444656372068,-6.9716159591674804,9.781361244964598
1789620431494748000,4.731747802734375,0.4836287353515625,-6.254402924346923,9.186252494812011
1789620431504718800,4.74171875,0.23044190979003906,-5.160402403259277,8.489689449310303
1789620431514690800,4.75169091796875,-0.3315969299316406,-4.578162487030029,8.808716820526122
1789620431524661800,4.761661865234375,0.2615665313720703,-4.696675469207763,9.158120625305175
1789620431534633000,4.771633056640625,0.8833107749938964,-5.015852478027344,7.986158912658691
1789620431544604000,4.78160400390625,0.509516040802002,-4.69906967086792,7.010821011352538
1789620431554574800,4.791574951171875,-0.6274304725646972,-4.383783239746093,7.234229953765869
1789620431564546800,4.801546875,-1.096843635559082,-4.6538791145324705,8.195202645111083
1789620431574517800,4.811517822265625,0.20709844360351562,-4.7584757995605464,9.853935482788085
1789620431584489000,4.821489013671875,1.467047067260742,-4.6915877906799315,10.703577796936035
1789620431594459600,4.831459716796875,1.0462661254882812,-4.721066398620605,10.987739606475829
1789620431604430800,4.841430908203125,-0.04773439559936523,-4.8403275688171385,10.985495042419434
1789620431614402800,4.85140283203125,-0.1352723937988281,-5.076754982757568,10.215160658264159
1789620431624374000,4.8613740234375,-0.24735095901489257,-5.4506993545532225,9.169792358398437
1789620431634344700,4.8713447265625,-0.3559878593444824,-5.923853457641601,8.585158240509033
1789620431644315600,4.881315673828125,-0.25139117431640623,-6.503998447418213,8.762927713775634
1789620431654286800,4.891286865234375,0.01571194839477539,-6.843675807952881,9.219771318054198
1789620431664258800,4.9012587890625,-0.07287351303100585,-7.315333535003662,9.353696973419188
1789620431674229800,4.911229736328125,-0.6241384452819824,-7.496694310760498,9.292046280670165
1789620431684200700,4.92120068359375,-0.8795698348999023,-6.719326959228515,9.057414517974854
1789620431694172000,4.931171875,-0.354341845703125,-5.268889665985107,7.602338459014892
1789620431704142800,4.941142822265625,-0.13587094421386717,-4.026299004364013,6.488885049438476
1789620431714114800,4.95111474609375,-0.3173813575744629,-3.2124200775146483,6.70989979019165
1789620431724085800,4.961085693359375,-0.03815758895874023,-2.717568521881103,6.865672535705566
1789620431734056700,4.971056640625,0.09831190567016601,-2.6478373985290524,6.990171022033691
1789620431744028000,4.98102783203125,-0.3847182792663574,-2.1095909378051756,8.247426168823242
1789620431753999600,4.99099951171875,-0.7604583023071289,-2.0241478660583496,9.373149861907958
1789620431763970800,5.000970703125,-1.3220482292175293,-2.6960207069396973,10.281450116729737
1789620431773941800,5.010941650390625,-1.4624083015441893,-3.592349953460693,11.56159981689453
1789620431783913000,5.020912841796875,-0.6590040069580078,-4.923077163696289,11.959186930084227
1789620431793884000,5.0308837890625,-0.15846622238159178,-6.165218912506103,11.781417456817627
1789620431803856000,5.04085595703125,-0.0939724151611328,-6.613233898162841,11.463736824035644
1789620431813826800,5.050826904296875,-0.18031331253051758,-6.32667788696289,10.428394243621826
1789620431823798000,5.060798095703125,0.021697452545166016,-5.077353533172607,8.952668195343017
1789620431833769000,5.07076904296875,0.3570353225708008,-3.610156828308105,7.679551462554931
1789620431843739600,5.08073974609375,0.09711480484008789,-3.967790701293945,7.0920742301940916
1789620431853712000,5.0907119140625,0.17477672119140625,-4.553173007202148,6.9719152343749995
1789620431863682800,5.100682861328125,0.5226841499328613,-3.9481881752014156,7.45733962097168
1789620431873654000,5.110654052734375,0.501136334991455,-2.4230817176818844,9.088090226745605
1789620497692726300,70.92972631835937,6.310965938568115,7.6671315414428705,-0.24136545486450195
1789620497702697200,70.939697265625,7.069329314422607,7.628076126861572,-0.16265607528686524
1789620497712668400,70.94966845703125,7.423521522521972,7.4694602668762204,0.06494272003173827
1789620497722639400,70.95963940429688,7.666084078216552,7.270591891479492,0.23418284988403318
1789620497732610300,70.9696103515625,7.7970169815063475,7.039701068878173,0.23388357467651366
1789620497742581200,70.97958129882812,7.628375402069091,6.880486658477783,0.1527799934387207
1789620497752552200,70.98955224609375,7.286303839874267,6.899041721343994,0.0570119270324707
1789620497762523400,70.9995234375,7.116315522003173,7.037905417633056,-0.018255787658691406
1789620497772494300,71.00949438476563,7.034463752746581,7.014861226654053,0.08858546142578125
1789620497782465300,71.01946533203125,6.7471595535278315,6.879289557647705,0.27727847976684566
1789620497792435500,71.029435546875,6.389076767730712,6.720972972869872,0.19213468322753904
1789620497802406400,71.03940649414062,6.148309863281249,6.6346320755004875,-0.19602526092529296
1789620497812377000,71.04937719726563,5.907692596435546,6.53138212890625,-0.5861304939270019
1789620497822348300,71.05934838867188,5.613505067443847,6.428581095123291,-0.8204629814147949
1789620497832319200,71.0693193359375,5.234024104309082,6.60799658203125,-0.8123825508117676
1789620497842290400,71.07929052734374,5.082441211700439,7.082347785949707,-0.5169979209899902
1789620497852261400,71.08926147460937,5.153967986297607,7.389553786468506,-0.014065934753417967
1789620497862232300,71.099232421875,5.20918426208496,7.442675135803222,0.47494975433349607
1789620497872203500,71.10920361328125,5.265896913909912,7.314884622192382,0.7746738746643066
1789620497882174700,71.1191748046875,5.517886638641357,7.100304298400879,0.7562684494018554
1789620497892145700,71.12914575195313,5.965452711486816,6.9612909645080565,0.596305850982666
1789620497902116900,71.13911694335937,6.38413872680664,6.88901600189209,0.5478232673645019
1789620497912087600,71.14908764648438,6.572682107543945,6.83769030380249,0.7248445526123046
1789620497922058800,71.15905883789063,6.425588343048095,6.9621887901306145,0.9831190567016601
1789620497932028700,71.16902856445313,6.425887618255615,7.203254969787597,1.0525509048461914
1789620497941999600,71.17899951171874,6.65872372970581,7.445069337463378,1.2184990074157713
1789620497951970800,71.188970703125,6.75479107131958,7.5619363059997555,1.5759832427978515
1789620497961941800,71.19894165039062,6.7477581039428705,7.578546080017089,1.956212393951416
1789620497971912700,71.20891259765625,6.874351516723633,7.475894683837891,2.1938369087219236
1789620497981883600,71.21888354492188,7.147140868377685,7.331195121002197,2.179621336364746
1789620497991854600,71.2288544921875,7.4694602668762204,7.253383567047119,2.0049942527770996
1789620498001825800,71.23882568359375,7.738209403228759,7.261314360046386,1.8323124580383299
1789620498011796700,71.24879663085937,7.902361854553222,7.254730305480956,1.7961001579284668
1789620498021767700,71.258767578125,7.936479228210449,7.206247721862793,1.789516103363037
1789620498031739000,71.26873876953125,7.900865478515625,7.126191603851318,1.6525976959228514
1789620498041709600,71.27870947265625,7.780556845092773,7.0935706062316894,1.3771148674011229
1789620498051680800,71.2886806640625,7.602039183807372,7.066037287139892,1.0904092185974121
1789620498061651700,71.29865161132813,7.428010650634765,7.0950669822692864,0.8863035270690918
1789620498071622700,71.30862255859375,7.276427758026123,7.147589781188964,0.8885480911254883
1789620498081592800,71.3185927734375,7.132626020812988,7.177966214752197,0.9840168823242187
1789620498091563800,71.32856372070313,7.083395249176025,7.155819849395751,1.0488099647521971
1789620498101534700,71.33853466796874,7.197568740844726,7.141305001831054,1.09160631942749
1789620498111505700,71.34850561523437,7.406911748504638,7.1026985000610345,1.1156979736328125
1789620498121476600,71.3584765625,7.574655502319335,6.986729357147216,1.0685621284484863
1789620498131447800,71.36844775390625,7.595754404449463,6.894702230834961,1.0459668502807618
1789620498141418800,71.37841870117188,7.489212430572509,6.852504426574707,0.9626187049865722
1789620498151389700,71.3883896484375,7.370549810791015,6.905476138305664,0.821660082244873
1789620498161360600,71.39836059570312,7.256825231933593,7.013514488220214,0.7993640792846679
1789620498171331600,71.40833154296875,7.20774409790039,7.049577150726318,0.8506897773742675
1789620498181302800,71.418302734375,7.213430326843262,6.985981169128418,0.9035118515014647
1789620498191273700,71.42827368164062,7.187393383789062,6.935852571868896,0.9741408004760742
1789620498201244700,71.43824462890625,7.08010322189331,6.911312004852294,1.0316016403198243
1789620498211215600,71.44821557617188,6.913257293701172,6.861183407592773,1.0395324333190918
1789620498221186600,71.4581865234375,6.6896987136840815,6.852504426574707,1.0242693977355957
1789620498231157800,71.46815771484376,6.476914041137695,6.912509105682372,1.0564414825439452
1789620498241127700,71.47812768554688,6.426785443878173,6.9630866157531734,1.0705074172973632
1789620498251098600,71.4880986328125,6.481852082061767,6.967126831054687,1.0527005424499511
1789620498261069800,71.49806982421875,6.552032118225097,6.895749694061279,1.0173860679626465
1789620498271040800,71.50804077148437,6.5586161727905266,6.827963859558105,1.039981346130371
1789620498281011700,71.51801171875,6.58839405593872,6.808361333465576,1.0031704956054688
1789620498290982700,71.52798266601563,6.585251666259765,6.7748425102233885,0.985064345550537
1789620498300953600,71.53795361328125,6.571634644317626,6.733093618774413,0.9693523971557617
1789620498310924800,71.5479248046875,6.6537856887817375,6.713790367889404,0.8337807281494141
1789620498320895700,71.55789575195313,6.823923644256592,6.725911013793945,0.6133645378112793
1789620498330866700,71.56786669921875,6.997952177429199,6.68386284713745,0.5434837768554687
1789620498340837600,71.57783764648437,7.077709020233154,6.69044690170288,0.6214449684143066
1789620498350808600,71.58780859375,7.055113742065429,6.83739102859497,0.6673837127685547
1789620498360779800,71.59777978515625,7.004386594390868,7.013065575408935,0.6622960342407226
1789620498370750700,71.60775073242188,6.968473569488525,7.180510054016112,0.6732195793151855
1789620498380720600,71.617720703125,6.893355492401122,7.266850951385497,0.6495768379211425
1789620498390691800,71.62769189453125,6.878990282440185,7.294982820892334,0.5871779571533203
1789620498400662800,71.63766284179688,6.848164936065674,7.278672322082519,0.5316624061584473
1789620498410633700,71.6476337890625,6.8320040748596185,7.267599139404297,0.4402338302612304
1789620498420604700,71.65760473632812,6.865971810913085,7.242160746765136,0.3229179489135742
1789620498430575600,71.66757568359375,7.005284420013427,7.181707154846191,0.16774375381469725
1789620498440546800,71.677546875,7.198316928863525,7.045686573028564,0.023792378997802732
1789620498450517800,71.68751782226562,7.309647306060791,6.954108359527588,0.0474351203918457
1789620498460488700,71.69748876953125,7.2331824905395505,6.995258700561523,0.16071078643798828
1789620498470459600,71.70745971679688,7.04808077468872,7.142951015472412,0.2353799507141113
1789620498480430600,71.7174306640625,6.896048969268798,7.204900983428955,0.21877017669677734
1789620498490401800,71.72740185546876,6.763170777130126,7.173327449035644,0.17058686828613281
1789620498500372700,71.73737280273437,6.65273822555542,7.134720947265625,0.11596914291381835
1789620498510343700,71.74734375,6.5969233993530265,7.098359009552001,0.006584054565429687
1789620498520314600,71.75731469726563,6.6896987136840815,6.986878994750976,-0.11387421646118163
1789620498530285600,71.76728564453126,6.806864957427978,6.841281606292724,-0.1288379768371582
1789620498540255700,71.777255859375,6.903680487060546,6.7365352836608885,-0.13482348098754882
1789620498550226700,71.78722680664063,7.026832234954834,6.679373719024658,-0.15502455749511718
1789620498560197600,71.79719775390625,7.06109924621582,6.698976245117187,-0.1001075569152832
1789620498570168800,71.8071689453125,6.950367419433594,6.77349577178955,-0.051475335693359374
1789620498580139500,71.81713940429688,6.758980924224853,6.85040950012207,-0.05820902786254883
1789620498590110700,71.82711083984375,6.581361088562011,6.873304053497314,-0.12210428466796874
1789620498600081700,71.83708154296875,6.480804618835449,6.800131265258789,-0.23777415237426758
1789620498610052600,71.84705249023438,6.412420233917236,6.758382373809814,-0.3317465675354004
1789620498620023800,71.85702392578125,6.328772813415527,6.707206313323974,-0.38097733917236326
1789620498629994800,71.86699487304688,6.329371363830566,6.7088523269653315,-0.38741175613403317
1789620498639965700,71.87696557617187,6.373664094543456,6.706907038116455,-0.35179800643920894
1789620498649936600,71.8869365234375,6.330119551849365,6.712742904663085,-0.2609679809570312
1789620498659907800,71.89690795898437,6.2310594581604,6.743119338226318,-0.2219125663757324
1789620498669878800,71.90687866210938,6.128258424377441,6.808810246276855,-0.3130418670654297
1789620498679849700,71.916849609375,6.092495037078857,6.885125424194335,-0.4661211357116699
1789620498689820700,71.92682055664062,6.10970336151123,6.897545345306396,-0.5984007774353027
1789620498699791600,71.93679150390625,6.118681617736816,6.906673239135742,-0.6968623207092285
1789620498709761500,71.94676147460937,6.100425830078125,6.952013433074951,-0.7115268058776855
1789620498719732700,71.95673266601563,6.147412037658691,7.010671373748779,-0.6931213806152343
1789620498729703700,71.96670361328125,6.256198575592041,7.025934409332275,-0.7125742691040039
1789620498739675000,71.9766748046875,6.363937650299072,7.029675349426269,-0.733523533630371
1789620498749645800,71.98664575195312,6.40389089050293,7.117063710021972,-0.7583633758544921
1789620498759616500,71.99661645507813,6.3612441734313965,7.251438278198242,-0.6982090591430664
1789620498769587700,72.00658764648438,6.294206526947021,7.311592594909667,-0.6932710182189941
1789620498779558700,72.01655859375,6.245275030517578,7.27822340927124,-0.8102876243591308
1789620498789529900,72.02652978515626,6.181978324127197,7.234678866577148,-0.9403227020263671
1789620498799500800,72.03650073242187,6.0884548217773435,7.15028325805664,-1.055394019317627
1789620498809471500,72.04647143554688,5.999869360351562,7.082048510742187,-1.1541548377990722
1789620498819442700,72.05644262695313,5.962310321807861,7.029974624633788,-1.2330138549804688
1789620498829413600,72.06641357421876,6.027701954650879,6.9992989158630365,-1.2565069587707518
1789620498839384800,72.076384765625,6.183773975372314,7.012915937805175,-1.1966519172668457
1789620498849355800,72.08635571289062,6.3615434486389155,7.032518463897705,-1.0082581741333008
1789620498859326700,72.09632666015625,6.494720915985107,7.066635837554931,-0.8035539321899413
1789620498869297400,72.10629736328124,6.61428136138916,7.179163315582275,-0.6651391487121582
1789620498879268400,72.11626831054687,6.69104545211792,7.2529346542358395,-0.5889736083984375
1789620498889238300,72.12623828125,6.817788502502441,7.182904255676269,-0.6162076522827148
1789620498899209500,72.13620947265625,6.941838076019287,7.100154660797119,-0.7082347785949706
1789620498909180400,72.14618041992188,6.917447146606445,7.098059734344482,-0.8028057441711425
1789620498919151600,72.15615161132813,6.805069306182861,7.096563358306884,-0.9711480484008789
1789620498929122600,72.16612255859376,6.645106707763672,7.084592350006103,-1.130661734008789
1789620498939093200,72.17609326171875,6.546944439697265,7.078157933044433,-1.2509703674316406
1789620498949064400,72.186064453125,6.489333962249756,7.088034014892577,-1.2802993377685545
1789620498959035400,72.19603540039063,6.418555375671386,7.126939791870117,-1.265335577392578
1789620498969006600,72.20600659179688,6.353163742828369,7.151779634094238,-1.268627604675293
1789620498978977500,72.2159775390625,6.351966641998291,7.154622748565673,-1.3301286598205566
1789620498988948200,72.2259482421875,6.465840858459472,7.151480358886718,-1.370680450439453
1789620498998919400,72.23591943359375,6.706458125305176,7.070975328063964,-1.4181155708312987
1789620499008890400,72.24589038085938,6.941239525604248,7.005434057617187,-1.3926771781921385
1789620499018861600,72.25586157226563,7.001393842315673,7.013065575408935,-1.3054384552001952
1789620499028832500,72.26583251953124,6.936750397491455,7.115716971588134,-1.301248602294922
1789620499038803500,72.27580346679687,6.817040314483642,7.2723875427246085,-1.412878254699707
1789620499048774400,72.2857744140625,6.788160256958007,7.33568424911499,-1.5197195037841795
1789620499058745300,72.29574536132813,6.8408326934814445,7.296329559326171,-1.563563321685791
1789620499068716500,72.30571655273438,6.839485955047607,7.276278120422363,-1.5777788940429687
1789620499078687500,72.3156875,6.848613848876953,7.334337510681152,-1.546205359649658
1789620499088658700,72.32565869140625,6.911312004852294,7.38686030960083,-1.4749778602600097
1789620499098628600,72.33562866210937,6.948272492980957,7.370699448394775,-1.393724641418457
1789620499108599600,72.345599609375,6.993313411712646,7.218069092559814,-1.4181155708312987
1789620499118570500,72.35557055664063,7.160608252716064,6.999747828674316,-1.5210662422180175
1789620499128541400,72.36554150390624,7.351246559906006,6.840982331085205,-1.6726491348266601
1789620499138512400,72.37551245117187,7.477241422271728,6.746710640716552,-1.834257746887207
1789620499148483600,72.38548364257812,7.52093560256958,6.67189183883667,-1.9014450309753417
1789620499158454500,72.39545458984375,7.403918996429443,6.706907038116455,-1.9131167640686033
1789620499168425500,72.40542553710938,7.381174080657958,6.870760214233398,-1.9598036964416503
1789620499178396400,72.415396484375,7.432948691558837,6.935104383850097,-1.8691233085632324
1789620499188367400,72.42536743164062,7.446864988708495,6.953809084320068,-1.6521487831115722
