time,seconds_elapsed,z,y,x
1789620426817645800,0.054645751953125,-0.6366246342658997,-0.18932951986789703,-0.3823803663253784
1789620426827616800,0.06461669921875,-0.5585072040557861,0.0714149922132492,-0.6866875886917114
1789620426837587700,0.074587646484375,-0.3692619502544403,0.1012488454580307,-1.2322577238082886
1789620426847559700,0.0845595703125,-0.13723482191562653,0.27531197667121887,-1.760542392730713
1789620426857530600,0.094530517578125,0.15892432630062103,0.6540436148643494,-2.1529834270477295
1789620426867501800,0.104501708984375,0.496221661567688,1.2264926433563232,-2.5246784687042236
1789620426877472500,0.114472412109375,0.9178982973098755,1.954115390777588,-2.9452695846557617
1789620426887443700,0.124443603515625,1.4122190475463867,2.6110599040985107,-3.378347396850586
1789620426897414700,0.13441455078125,1.8483859300613403,3.008005380630493,-3.813749313354492
1789620426907385600,0.144385498046875,2.1876533031463623,3.4748148918151855,-4.165317058563232
1789620426917357600,0.154357666015625,2.436194658279419,4.052143096923828,-4.3791890144348145
1789620426927328500,0.16432861328125,2.588459014892578,4.377305507659912,-4.434964656829834
1789620426937299700,0.1742998046875,2.6556396484375,4.316992282867432,-4.291707992553711
1789620426947270700,0.184270751953125,2.751389265060425,3.848384141921997,-3.9666225910186768
1789620426957241900,0.194241943359375,2.781527280807495,3.218796491622925,-3.533557653427124
1789620426967212800,0.204212890625,2.681353807449341,2.566723108291626,-2.9959824085235596
1789620426977183700,0.214183837890625,2.2008354663848877,2.4758718013763428,-2.023470640182495
1789620426987154700,0.22415478515625,1.0560133457183838,2.522719383239746,-0.4652210474014282
1789620426997127000,0.234126953125,-0.4171188771724701,1.084835410118103,0.7003025412559509
1789620427007097600,0.24409765625,-1.2117584943771362,-1.5529556274414062,1.179186463356018
1789620427017068500,0.254068603515625,-1.3562991619110107,-3.668822765350342,1.5288736820220947
1789620427027039700,0.264039794921875,-1.4525539875030518,-5.203267574310303,1.8987691402435303
1789620427037010700,0.2740107421875,-1.7279175519943237,-6.579568386077881,2.19511342048645
1789620427046982000,0.28398193359375,-2.1252505779266357,-7.824257850646973,2.3826587200164795
1789620427056952800,0.293952880859375,-2.458695650100708,-9.161723136901855,2.3329410552978516
1789620427066923500,0.303923583984375,-2.4796266555786133,-10.572972297668457,2.0919198989868164
1789620427076895700,0.313895751953125,-2.3457789421081543,-7.622600555419922,0.9486278295516968
1789620427086866700,0.32386669921875,-2.252035617828369,-3.4050230979919434,-0.17859260737895966
1789620427096837600,0.333837646484375,-1.5514285564422607,-1.9476220607757568,-0.6345435976982117
1789620427106808600,0.34380859375,-0.7544475197792053,-0.4166886508464813,-1.161963701248169
1789620427116779800,0.35377978515625,0.1876012533903122,0.3272240459918976,-1.683281660079956
1789620427126750700,0.363750732421875,1.1420115232467651,-0.134433314204216,-2.066246509552002
1789620427136721700,0.3737216796875,1.6863211393356323,-0.7524770498275757,-1.9431313276290894
1789620427146693600,0.383693603515625,1.734320878982544,-0.934097409248352,-1.523538589477539
1789620427156664600,0.39366455078125,1.590592384338379,-1.3410179615020752,-0.9863761067390442
1789620427166635800,0.4036357421875,1.3785160779953003,-1.8095476627349854,-0.4195381999015808
1789620427176606700,0.413606689453125,1.1798827648162842,-2.3954312801361084,0.08574617654085159
1789620427186578000,0.423577880859375,1.077833890914917,-3.1066927909851074,0.4179973602294922
1789620427196548600,0.433548583984375,0.9149361848831177,-3.704756498336792,0.5149894952774048
1789620427206519600,0.44351953125,0.7144694328308105,-3.871330976486206,0.3529915511608124
1789620427216490800,0.45349072265625,0.6024171710014343,-3.5203380584716797,-0.0635908991098404
1789620427226462700,0.463462646484375,0.6159124374389648,-2.634056329727173,-0.6768122315406799
1789620427236433700,0.47343359375,0.6669824719429016,-1.5558384656906128,-1.431320071220398
1789620427246404600,0.483404541015625,0.662324070930481,-0.706436038017273,-2.147557020187378
1789620427256375800,0.493375732421875,0.5516698360443115,-0.13838715851306915,-2.5547354221343994
1789620427266970600,0.503970703125,0.3163206875324249,0.32791954278945923,-2.5342116355895996
1789620427276941800,0.51394189453125,-0.0005914946086704731,0.5876402854919434,-2.206315517425537
1789620427286912800,0.523912841796875,-0.3009484112262726,0.5708003044128418,-1.803459644317627
1789620427296883500,0.533883544921875,-0.49458324909210205,0.45786935091018677,-1.455731987953186
1789620427306854700,0.543854736328125,-0.5978028774261475,0.3887999951839447,-1.18915593624115
1789620427316825600,0.55382568359375,-0.6566846370697021,0.39284875988960266,-1.0246773958206177
1789620427326796800,0.563796875,-0.6907065510749817,0.5210826396942139,-0.9106943607330322
1789620427336768500,0.5737685546875,-0.7092961668968201,0.7982531785964966,-0.7866529822349548
1789620427346739700,0.58373974609375,-0.7411065697669983,1.0847954750061035,-0.6134796142578125
1789620427356710700,0.593710693359375,-0.7902740240097046,1.2910940647125244,-0.3730222284793854
1789620427366681900,0.603681884765625,-0.8451897501945496,1.3829166889190674,-0.08565115183591843
1789620427376652800,0.61365283203125,-0.8918417692184448,1.345245599746704,0.21017274260520935
1789620427386623700,0.623623779296875,-0.9157396554946899,1.2529966831207275,0.5086555480957031
1789620427396594700,0.6335947265625,-0.9226923584938049,1.1420711278915405,0.819890022277832
1789620427406566700,0.643566650390625,-0.9210593104362488,0.9631181359291077,1.1226097345352173
1789620427416537900,0.653537841796875,-0.9098834991455078,0.7741051912307739,1.3709694147109985
1789620427426508500,0.663508544921875,-0.8522819876670837,0.7035607099533081,1.5257291793823242
1789620427436479700,0.673479736328125,-0.7325519919395447,0.7597231268882751,1.58181893825531
1789620427446450700,0.68345068359375,-0.5882083773612976,0.794252336025238,1.5707060098648071
1789620427456421600,0.693421630859375,-0.5298689603805542,0.7178183794021606,1.5652681589126587
1789620427466392800,0.703392822265625,-0.5414084196090698,0.601230800151825,1.5699204206466675
1789620427476364500,0.713364501953125,-0.6380906105041504,0.5344076752662659,1.5376887321472168
1789620427486335700,0.723335693359375,-0.6973810791969299,0.4448314309120178,1.461688756942749
1789620427496306700,0.733306640625,-0.6902980208396912,0.34504324197769165,1.3279954195022583
1789620427506278000,0.74327783203125,-0.6908469200134277,0.2759992182254791,1.1660155057907104
1789620427516248600,0.75324853515625,-0.6895922422409058,0.3092994689941406,1.057189702987671
1789620427526219500,0.763219482421875,-0.6850504875183105,0.37517303228378296,0.9719367027282715
1789620427536190700,0.773190673828125,-0.6575580835342407,0.44608792662620544,0.8752856254577637
1789620427546162700,0.78316259765625,-0.5833072662353516,0.5376218557357788,0.7726980447769165
1789620427556133600,0.793133544921875,-0.4842790961265564,0.6004619002342224,0.6744576692581177
1789620427566104600,0.8031044921875,-0.4033820927143097,0.5958514213562012,0.6163131594657898
1789620427576075800,0.81307568359375,-0.34165725111961365,0.559735894203186,0.6230171918869019
1789620427586046700,0.823046630859375,-0.2880414128303528,0.5230354070663452,0.6571956872940063
1789620427596017700,0.833017578125,-0.23150348663330078,0.5067065358161926,0.6829872131347656
1789620427605988900,0.84298876953125,-0.18127334117889404,0.5077776312828064,0.6835635304450989
1789620427615960600,0.852960693359375,-0.15228112041950226,0.4620164632797241,0.6755874156951904
1789620427625931800,0.862931884765625,-0.1384798288345337,0.36366674304008484,0.6665747165679932
1789620427635902700,0.87290283203125,-0.13039526343345642,0.25403931736946106,0.6499283909797668
1789620427645873700,0.882873779296875,-0.12907247245311737,0.1482851654291153,0.6471573710441589
1789620427655844600,0.8928447265625,-0.14918363094329834,0.10044249147176743,0.6538445353507996
1789620427665815600,0.902815673828125,-0.1574506163597107,0.09677984565496445,0.6687536835670471
1789620427675786800,0.912786865234375,-0.13948817551136017,0.10616994649171829,0.6578271389007568
1789620427685758500,0.922758544921875,-0.1231699213385582,0.08666922152042389,0.6044323444366455
1789620427695729700,0.932729736328125,-0.1047818660736084,0.08109026402235031,0.5465830564498901
1789620427705700600,0.94270068359375,-0.08095642924308777,0.11771725118160248,0.5094676613807678
1789620427715671800,0.952671875,-0.05272133648395538,0.14792317152023315,0.49189603328704834
1789620427725642800,0.962642822265625,-0.04919371381402016,0.12083030492067337,0.4937961995601654
1789620427735613700,0.97261376953125,-0.06495358794927597,0.04382777959108353,0.500368595123291
1789620427745584600,0.982584716796875,-0.07638946920633316,-0.08454404026269913,0.4951852560043335
1789620427755556600,0.992556640625,-0.10365837812423706,-0.24572810530662537,0.47287988662719727
1789620427765527800,1.00252783203125,-0.13940200209617615,-0.35995641350746155,0.4342201054096222
1789620427775498800,1.012498779296875,-0.15907543897628784,-0.4278213083744049,0.38006696105003357
1789620427785469700,1.0224697265625,-0.1483631432056427,-0.43459853529930115,0.3251395523548126
1789620427795440600,1.032440673828125,-0.09836100786924362,-0.3885928988456726,0.29741108417510986
1789620427805410800,1.042410888671875,-0.04106469452381134,-0.4008474349975586,0.2705323398113251
1789620427815382000,1.052382080078125,0.0018017715774476528,-0.5347095727920532,0.2359425276517868
1789620427825354000,1.06235400390625,0.033670488744974136,-0.7142875790596008,0.2235817313194275
1789620427835325000,1.072324951171875,0.055906470865011215,-0.8655688762664795,0.24176205694675446
1789620427845295900,1.0822958984375,0.07123801857233047,-0.9347383379936218,0.2473541647195816
1789620427855267000,1.09226708984375,0.10980219393968582,-0.9833782911300659,0.18248382210731506
1789620427865238000,1.102238037109375,0.20594017207622528,-1.1394635438919067,0.020055752247571945
1789620427875209000,1.112208984375,0.39275020360946655,-1.453092098236084,-0.18910446763038635
1789620427885180000,1.122179931640625,0.6502983570098877,-1.9325904846191406,-0.3758767247200012
1789620427895151900,1.13215185546875,0.8450150489807129,-2.632622241973877,-0.5101938247680664
1789620427905123000,1.142123046875,1.1421446800231934,-3.448115348815918,-0.48528262972831726
1789620427915094000,1.152093994140625,1.5097252130508423,-4.186638832092285,-0.37591177225112915
1789620427925065000,1.16206494140625,1.9170069694519043,-4.965780258178711,-0.15676771104335785
1789620427935036000,1.172035888671875,2.3416194915771484,-5.620846271514893,0.12031031399965286
1789620427945006800,1.1820068359375,2.76877498626709,-6.044864177703857,0.42235592007637024
1789620427954978800,1.191978759765625,3.1433725357055664,-6.201780796051025,0.709449052810669
1789620427964949800,1.20194970703125,3.4524734020233154,-6.134843826293945,0.8897543549537659
1789620427974921000,1.2119208984375,3.731999397277832,-6.029126167297363,0.9709357619285583
1789620427984892000,1.221891845703125,3.972482442855835,-6.013766765594482,1.0224207639694214
1789620427994863000,1.231863037109375,4.261200904846191,-5.962458610534668,1.0655146837234497
1789620428004834000,1.241833984375,4.608478546142578,-5.831656455993652,1.1239793300628662
1789620428014804700,1.2518046875,4.940040588378906,-5.667085647583008,1.2447688579559326
1789620428024777000,1.26177685546875,5.202259063720703,-5.424781322479248,1.3942148685455322
1789620428034748000,1.271747802734375,5.420459747314453,-5.003773212432861,1.5717740058898926
1789620428044719000,1.281718994140625,5.290734767913818,-4.649824142456055,1.3991268873214722
1789620428054689800,1.291689697265625,5.241804599761963,-4.162209510803223,1.0591473579406738
1789620428064661000,1.301660888671875,5.233242511749268,-3.3751730918884277,0.7333348393440247
1789620428074632000,1.3116318359375,5.050538063049316,-2.5752618312835693,0.3806135654449463
1789620428084603100,1.32160302734375,4.79486608505249,-1.7591753005981445,-0.11290881037712097
1789620428094574800,1.331574951171875,4.659501075744629,-2.3499841690063477,-0.5363848209381104
1789620428104546000,1.341546142578125,4.623903751373291,-2.9739747047424316,-0.46500271558761597
1789620428114517000,1.35151708984375,4.61472225189209,-2.839186668395996,-0.03828104957938194
1789620428124488000,1.361488037109375,4.686178684234619,-2.35542368888855,0.47321632504463196
1789620428134459100,1.371459228515625,4.6461334228515625,-1.740785002708435,1.019937515258789
1789620428144429800,1.381429931640625,4.517717361450195,-1.1433095932006836,1.4661378860473633
1789620428154402000,1.391402099609375,4.335585117340088,-0.7595842480659485,1.7039794921875
1789620428164373000,1.401373046875,4.029063701629639,-0.7729189395904541,1.785267949104309
1789620428174344000,1.411343994140625,3.665865898132324,-1.077660322189331,1.889885425567627
1789620428184315000,1.42131494140625,3.302279233932495,-1.492945909500122,2.1053123474121094
1789620428194285800,1.431285888671875,2.8338587284088135,-1.783327579498291,2.5355887413024902
1789620428204257000,1.441257080078125,2.2724602222442627,-1.6465567350387573,3.1206791400909424
1789620428214228000,1.45122802734375,1.5676167011260986,-1.512839674949646,3.489983320236206
1789620428224200000,1.461199951171875,0.756077766418457,-1.5715298652648926,3.6934123039245605
1789620428234171000,1.4711708984375,0.07064301520586014,-1.3579599857330322,3.362396240234375
1789620428244142000,1.48114208984375,-0.23829218745231628,-0.3209383189678192,2.3281328678131104
1789620428254113000,1.491113037109375,-0.24512441456317902,1.6297000646591187,-0.07414116710424423
1789620428264084000,1.501083984375,-0.3836130201816559,2.5693953037261963,-2.5156469345092773
1789620428274055000,1.511054931640625,-0.9209880828857422,1.2549010515213013,-2.4270377159118652
1789620428284027000,1.52102685546875,-1.326555609703064,0.2772558927536011,-0.8384854793548584
1789620428293998000,1.530998046875,-1.8052412271499634,-1.0262298583984375,0.8080215454101562
1789620428303969000,1.540968994140625,-2.3818206787109375,-1.6429392099380493,1.4320250749588013
1789620428313940000,1.55093994140625,-2.503150463104248,-1.5132285356521606,1.1038498878479004
1789620428323911000,1.560910888671875,-2.1656649112701416,-0.8371008634567261,0.2828509509563446
1789620428333881900,1.5708818359375,-1.6282144784927368,-0.406228631734848,-0.14949803054332733
1789620428343853000,1.58085302734375,-1.4233534336090088,-0.4329494535923004,-0.12045466899871826
1789620428353824800,1.59082470703125,-1.4243930578231812,-0.8429544568061829,-0.21856950223445892
1789620428363796000,1.6007958984375,-1.4918458461761475,-1.20078706741333,-0.2511884272098541
1789620428373767000,1.610766845703125,-1.4373126029968262,-1.2923386096954346,-0.0728040486574173
1789620428383738000,1.620738037109375,-1.0287439823150635,-1.2187941074371338,0.2456439733505249
1789620428393709000,1.630708984375,-0.6469470262527466,-1.1535723209381104,0.5571760535240173
1789620428403679700,1.6406796875,-0.6370317935943604,-1.1945139169692993,0.8291119337081909
1789620428413652000,1.65065185546875,-0.9102089405059814,-1.2409294843673706,1.1198647022247314
1789620428423623000,1.660622802734375,-1.2648714780807495,-1.287623405456543,1.3034409284591675
1789620428433594000,1.670593994140625,-1.98855721950531,-1.1662039756774902,1.4138460159301758
1789620428443564800,1.680564697265625,-2.8367738723754883,-0.8402159810066223,0.7610722780227661
1789620428453536000,1.690535888671875,-3.1832516193389893,-0.8056114315986633,0.6355019211769104
1789620428463507000,1.7005068359375,-2.866854429244995,-0.8818997740745544,1.0144003629684448
1789620428473479000,1.71047900390625,-1.9305734634399414,-1.2447549104690552,1.3464142084121704
1789620428483449900,1.720449951171875,-1.0090065002441406,-1.3599144220352173,1.5380403995513916
1789620428493420800,1.7304208984375,-0.198995441198349,-1.1801470518112183,1.6938257217407227
1789620428503392000,1.74039208984375,0.15637117624282837,-0.8397322297096252,1.609962821006775
1789620428513363000,1.750363037109375,0.4632701277732849,-0.5119814872741699,1.5094505548477173
1789620428523334100,1.760334228515625,0.734707236289978,-0.256986528635025,1.4354194402694702
1789620428533305900,1.770305908203125,0.7477619051933289,0.23482806980609894,0.9887706637382507
1789620428543277000,1.780277099609375,0.6031176447868347,0.944751501083374,0.3910673260688782
1789620428553248000,1.790248046875,0.5453019738197327,1.4115654230117798,-0.053138960152864456
1789620428563219000,1.800218994140625,0.6474320888519287,1.7738924026489258,-0.4758009910583496
1789620428573190000,1.81018994140625,0.7942250370979309,2.2030129432678223,-0.8762520551681519
1789620428583160800,1.820160888671875,0.9378208518028259,2.539759635925293,-1.1705572605133057
1789620428593132000,1.830132080078125,1.0317763090133667,2.5708298683166504,-1.2934938669204712
1789620428603104000,1.84010400390625,1.2302143573760986,2.4666171073913574,-1.305930256843567
1789620428613075000,1.850074951171875,1.4089261293411255,2.2434909343719482,-1.3536324501037598
1789620428623046000,1.8600458984375,1.2408391237258911,1.8002586364746094,-1.299079179763794
1789620428633017000,1.87001708984375,0.9158996939659119,1.4859073162078857,-1.1565444469451904
1789620428642988000,1.879988037109375,0.6890942454338074,1.3485132455825806,-1.0370523929595947
1789620428652959000,1.889958984375,0.6141326427459717,1.0720053911209106,-0.9121788740158081
1789620428662931000,1.899930908203125,0.7801260948181152,0.8134993314743042,-0.8903987407684326
1789620428672902000,1.90990185546875,0.8565115332603455,0.6053352355957031,-0.9470240473747253
1789620428682873000,1.919873046875,0.5858027935028076,0.5001918077468872,-0.9703352451324463
1789620428692844000,1.929843994140625,0.22171150147914886,0.5791110992431641,-0.8770179152488708
1789620428702815000,1.93981494140625,-0.04982493072748184,0.6450051665306091,-0.8720471262931824
1789620428712786000,1.949785888671875,-0.23250839114189148,0.8304354548454285,-1.0114401578903198
1789620428722758100,1.959758056640625,-0.2034977823495865,1.222230076789856,-1.182842493057251
1789620428732728800,1.969728759765625,-0.07243255525827408,1.5005184412002563,-1.2701349258422852
1789620428742699800,1.97969970703125,0.04107563570141792,1.5579884052276611,-1.3652151823043823
1789620428752671000,1.9896708984375,0.11076891422271729,1.602763295173645,-1.502897024154663
1789620428762642000,1.999641845703125,0.08305846154689789,1.6856573820114136,-1.5519607067108154
1789620428772613000,2.009613037109375,-0.08108178526163101,1.3806971311569214,-1.369044303894043
1789620428782584800,2.019584716796875,-0.1025892049074173,0.5801358222961426,-1.126581072807312
1789620428792556000,2.02955615234375,-0.01586684212088585,-0.07338249683380127,-0.742566704750061
1789620428802527000,2.03952685546875,-0.10420948266983032,-0.43299391865730286,-0.3176949918270111
1789620428812498200,2.049498291015625,-0.58138507604599,-0.3955976068973541,0.21238616108894348
1789620428822469000,2.05946923828125,-0.9537365436553955,0.15496300160884857,0.8923860192298889
1789620428832439800,2.069439697265625,-1.2001084089279175,0.5910834670066833,1.0769532918930054
1789620428842412000,2.079412109375,-1.327521562576294,0.6293882727622986,0.6608819961547852
1789620428852383000,2.089383056640625,-1.1262943744659424,0.22258038818836212,0.09486555308103561
1789620428862354000,2.09935400390625,-0.049487873911857605,-0.6046453714370728,0.003764399792999029
1789620428872324900,2.109324951171875,0.5170631408691406,-0.594845712184906,-0.33941298723220825
1789620428882296000,2.119296142578125,0.5096177458763123,-0.26205867528915405,-0.5157235860824585
1789620428892267000,2.12926708984375,0.3036811053752899,-0.10269900411367416,-0.5999359488487244
1789620428902239000,2.139239013671875,0.08105044066905975,-0.03671865537762642,-0.6874096393585205
1789620428912210000,2.1492099609375,-0.05603000149130821,0.04943551495671272,-0.8041384220123291
1789620428922180900,2.159180908203125,-0.18347744643688202,0.09293266385793686,-0.8302837014198303
1789620428932152000,2.169152099609375,-0.4127900302410126,-0.004769982770085335,-0.673838198184967
1789620428942123000,2.179123046875,-0.654647946357727,-0.17132993042469025,-0.4931959807872772
1789620428952094000,2.189093994140625,-0.9001967310905457,-0.3838947117328644,-0.36997607350349426
1789620428962066000,2.19906591796875,-1.0707074403762817,-0.5209354162216187,-0.29634180665016174
1789620428972037000,2.209037109375,-0.9877007603645325,-0.5270208716392517,-0.3028043508529663
1789620428982008000,2.219008056640625,-0.5445398092269897,-0.4886936843395233,-0.4965496063232422
1789620428991979000,2.22897900390625,0.1551932692527771,-0.5880225896835327,-0.9138937592506409
1789620429001950000,2.238949951171875,0.8591187000274658,-0.5492203235626221,-1.4594495296478271
1789620429011921000,2.2489208984375,1.5115728378295898,0.02006557770073414,-2.141134262084961
1789620429021893000,2.25889306640625,1.9654852151870728,0.7538463473320007,-2.8509907722473145
1789620429031863800,2.26886376953125,2.3908531665802,1.04344642162323,-3.2144007682800293
1789620429041835000,2.2788349609375,2.9326210021972656,0.7570154070854187,-2.893972873687744
1789620429051806000,2.288805908203125,3.2575948238372803,0.13726173341274261,-2.381862163543701
1789620429061777000,2.29877685546875,3.187965154647827,-0.21129465103149414,-2.233214855194092
1789620429071748900,2.308748779296875,3.678799629211426,-0.1927829384803772,-1.9869952201843262
1789620429081719800,2.3187197265625,3.9080569744110107,-0.006492155604064465,-2.111558437347412
1789620429091691000,2.32869091796875,3.344998598098755,0.6387181878089905,-2.157172918319702
1789620429101662000,2.338661865234375,2.9697389602661133,1.577588677406311,-1.7542035579681396
1789620429111633200,2.348633056640625,3.0368213653564453,2.3151581287384033,-1.2299076318740845
1789620429121603800,2.358603759765625,3.167958974838257,2.8006961345672607,-0.7494331002235413
1789620429131576000,2.368576171875,3.695477247238159,3.798140525817871,-0.7025769948959351
1789620429141547000,2.378547119140625,4.428483963012695,4.581338405609131,-1.1659342050552368
1789620429151518200,2.388518310546875,4.042011737823486,4.463247776031494,-1.303475022315979
1789620429161489000,2.398489013671875,3.531562089920044,3.8284361362457275,-1.403021216392517
1789620429171459800,2.4084599609375,3.219708204269409,2.341731548309326,-1.4231575727462769
1789620429181431000,2.41843115234375,2.745521306991577,0.9508295059204102,-1.2189189195632935
1789620429191403000,2.428403076171875,2.3788516521453857,0.2016199231147766,-1.0661680698394775
1789620429201374000,2.4383740234375,1.8468996286392212,-0.25682756304740906,-0.9155173301696777
1789620429211345000,2.448344970703125,1.2854177951812744,-0.6512246131896973,-0.6509402394294739
1789620429221316000,2.458316162109375,0.8883109092712402,-0.2846710979938507,-0.4936813712120056
1789620429231287000,2.468287109375,0.13902154564857483,0.2269262820482254,-0.44167453050613403
1789620429241258000,2.478258056640625,-0.9415757656097412,0.10225386172533035,-0.27743446826934814
1789620429251230000,2.48822998046875,-2.3600873947143555,-0.2333618551492691,-0.45023486018180847
1789620429261201000,2.498200927734375,-2.8250739574432373,0.043282266706228256,-0.9230519533157349
1789620429271172000,2.508172119140625,-2.7402749061584473,1.0390836000442505,-0.9418609142303467
1789620429281143000,2.51814306640625,-1.1377681493759155,-1.6449947357177734,-1.4301562309265137
1789620429291114000,2.528114013671875,0.5569806098937988,-1.9678699970245361,-1.633876919746399
1789620429301085000,2.5380849609375,1.2391599416732788,-1.218389868736267,-1.4238712787628174
1789620429311057200,2.54805712890625,1.041092038154602,-0.5591141581535339,-1.0125137567520142
1789620429321028000,2.558028076171875,0.6601036190986633,-0.096716970205307,-0.5095001459121704
1789620429330998800,2.567998779296875,0.3339686393737793,0.04197866469621658,-0.03672778606414795
1789620429340970000,2.577969970703125,0.06981208175420761,-0.1092047244310379,0.30783307552337646
1789620429350941000,2.58794091796875,-0.12655138969421387,-0.41523849964141846,0.470490038394928
1789620429360913200,2.5979130859375,-0.15063835680484772,-0.5647515058517456,0.5012354850769043
1789620429370883800,2.6078837890625,-0.10597191005945206,-0.6798256635665894,0.4920242130756378
1789620429380855000,2.61785498046875,-0.11748608946800232,-0.8795363903045654,0.4370208978652954
1789620429390826000,2.627825927734375,-0.25240358710289,-1.2561419010162354,0.26262933015823364
1789620429400797000,2.637796875,-0.3055208623409271,-1.4255415201187134,0.040809862315654755
1789620429410768100,2.64776806640625,-0.12100362777709961,-0.996598482131958,-0.0238965917378664
1789620429420739800,2.65773974609375,0.006970317102968693,0.1492319256067276,-1.0285913944244385
1789620429430711000,2.6677109375,0.3090221881866455,0.04171600937843323,-1.3931831121444702
1789620429440682000,2.677681884765625,0.34414154291152954,-0.6695037484169006,-1.224183201789856
1789620429450653200,2.687653076171875,-0.2960066497325897,-0.8205043077468872,-1.1742134094238281
1789620429460624000,2.697623779296875,-0.7746110558509827,-0.7168314456939697,-0.8826900720596313
1789620429470594800,2.7075947265625,-0.7575358152389526,-0.40915265679359436,-0.1628938615322113
1789620429480567000,2.717567138671875,-0.6161903738975525,-0.14613671600818634,0.8817440867424011
1789620429490538000,2.7275380859375,-0.5068920850753784,-0.4371601939201355,1.8923373222351074
1789620429500509000,2.737509033203125,-0.22722046077251434,-1.0095840692520142,2.5206360816955566
1789620429510480000,2.74747998046875,0.43038684129714966,-1.5359491109848022,2.6870431900024414
1789620429520451000,2.757451171875,1.378366470336914,-1.4443669319152832,2.4202892780303955
1789620429530422000,2.767422119140625,2.2539820671081543,-1.203558325767517,1.7418447732925415
1789620429540394000,2.77739404296875,2.407092571258545,-0.1664769947528839,1.0208953619003296
1789620429550365000,2.787364990234375,1.626490831375122,0.7919636368751526,0.6943395733833313
1789620429560336000,2.7973359375,1.0299934148788452,0.774522066116333,0.3673497438430786
1789620429570307000,2.80730712890625,-0.11824199557304382,-0.2890918254852295,0.03743579611182213
1789620429580278000,2.817278076171875,-1.8190181255340576,-1.6089400053024292,0.084056556224823
1789620429590250000,2.82725,-1.8395307064056396,-1.1038031578063965,0.17986682057380676
1789620429600221000,2.837220947265625,-1.0822004079818726,-0.20561560988426208,0.3316182494163513
1789620429610192100,2.847192138671875,-0.6445239186286926,-0.028918707743287086,0.3642585277557373
1789620429620163000,2.8571630859375,-0.5599296689033508,-0.2807464301586151,0.3286818861961365
1789620429630134000,2.867134033203125,-0.4876602292060852,-0.21479260921478271,0.2690523862838745
1789620429640105000,2.87710498046875,-0.44597989320755005,-0.34208688139915466,0.1456388384103775
1789620429650077200,2.8870771484375,-0.4139474630355835,-0.5631738305091858,0.05503900721669197
1789620429660048100,2.897048095703125,-0.3757750391960144,-0.6981588006019592,-0.006991872098296881
1789620429670018800,2.907018798828125,-0.5387706756591797,-0.6071709990501404,-0.10078054666519165
1789620429679990000,2.916989990234375,-0.8588285446166992,-0.27308541536331177,-0.1668706238269806
1789620429689961000,2.9269609375,-1.002701997756958,0.0711723119020462,-0.18479099869728088
1789620429699933000,2.936932861328125,-1.001679539680481,0.25445079803466797,-0.23094810545444489
1789620429709904000,2.94690380859375,-0.9852891564369202,0.2176438868045807,-0.2270515114068985
1789620429719875000,2.956875,-0.8954253196716309,0.10021764785051346,-0.2143961638212204
1789620429729846000,2.966845947265625,-0.7740496397018433,-0.19361968338489532,-0.269008606672287
1789620429739817000,2.97681689453125,-0.7842907905578613,-0.5478382110595703,-0.33592450618743896
1789620429749788200,2.9867880859375,-0.7916157841682434,-0.6125749349594116,-0.3658839464187622
1789620429759760000,2.996759765625,-0.8345179557800293,-0.5074918866157532,-0.33869707584381104
1789620429769731000,3.00673095703125,-0.987118124961853,-0.2636820673942566,-0.3152939975261688
1789620429779702000,3.016701904296875,-0.9436169862747192,-0.046090882271528244,-0.29260173439979553
1789620429789673200,3.026673095703125,-0.9485246539115906,0.09025892615318298,-0.32512950897216797
1789620429799644200,3.03664404296875,-0.948113203048706,0.0012859118869528174,-0.3533065617084503
1789620429809615000,3.046614990234375,-0.8585827350616455,-0.05130556970834732,-0.31540849804878235
1789620429819587300,3.05658740234375,-0.7224509716033936,-0.14259925484657288,-0.26183369755744934
1789620429829558000,3.06655810546875,-0.6763984560966492,-0.20810741186141968,-0.1929372102022171
1789620429839529200,3.076529296875,-0.7476689219474792,-0.2622945010662079,-0.12986157834529877
1789620429849500200,3.086500244140625,-0.7908567786216736,-0.3893914222717285,-0.09002585709095001
1789620429859471400,3.096471435546875,-0.6905938386917114,-0.5356234312057495,-0.11032792925834656
1789620429869443000,3.106443115234375,-0.5492345094680786,-0.5044571757316589,-0.13561409711837769
1789620429879414300,3.116414306640625,-0.4808468818664551,-0.40971308946609497,-0.10908554494380951
1789620429889385200,3.12638525390625,-0.44005894660949707,-0.44498878717422485,-0.04897313565015793
1789620429899356200,3.136356201171875,-0.44714564085006714,-0.4806610345840454,0.009946108795702457
1789620429909327400,3.146327392578125,-0.44779515266418457,-0.3915885090827942,0.06415382027626038
1789620429919299000,3.156299072265625,-0.45890000462532043,-0.2721148431301117,0.08427879959344864
1789620429929270300,3.166270263671875,-0.4516698718070984,-0.15553152561187744,0.10960842669010162
1789620429939241200,3.1762412109375,-0.43540462851524353,-0.2876136600971222,0.13986779749393463
1789620429949212400,3.18621240234375,-0.4723362624645233,-0.2832113206386566,0.16329608857631683
1789620429959183000,3.19618310546875,-0.5784829258918762,-0.11375758051872253,0.16875025629997253
1789620429969154000,3.206154052734375,-0.7268289923667908,0.08112810552120209,0.20508264005184174
1789620429979126300,3.216126220703125,-0.8113358616828918,0.06583809852600098,0.2676168382167816
1789620429989097200,3.22609716796875,-0.8461917638778687,-0.2213294953107834,0.31646645069122314
1789620429999068200,3.236068115234375,-0.7897830605506897,-0.5715130567550659,0.33302944898605347
1789620430009039000,3.2460390625,-0.7268535494804382,-0.6700694561004639,0.28283318877220154
1789620430019010300,3.25601025390625,-0.7730191946029663,-0.41596370935440063,0.23094816505908966
1789620430028982300,3.265982177734375,-0.7997892498970032,-0.15548688173294067,0.224736750125885
1789620430038953200,3.275953125,-0.8120440244674683,-0.02351260371506214,0.26793667674064636
1789620430048924200,3.285924072265625,-0.8540436029434204,-0.14174923300743103,0.29711708426475525
1789620430058895000,3.29589501953125,-0.8885486125946045,-0.14588193595409393,0.2804899215698242
1789620430068866300,3.3058662109375,-0.8660432696342468,0.013421067968010902,0.22435007989406586
1789620430078837200,3.315837158203125,-0.8258225917816162,0.11045574396848679,0.19113940000534058
1789620430088809200,3.325809326171875,-0.7952405214309692,0.19367185235023499,0.2157740294933319
1789620430098780200,3.3357802734375,-0.7432844042778015,0.3110096752643585,0.1948287934064865
1789620430108751400,3.34575146484375,-0.7033106684684753,0.35396048426628113,0.10353748500347137
1789620430118722300,3.355722412109375,-0.6519915461540222,0.22718815505504608,0.056238144636154175
1789620430128693000,3.36569287109375,-0.7026222348213196,-0.11430764943361282,0.0768590047955513
1789620430138665200,3.375665283203125,-0.6952490210533142,-0.21419855952262878,0.057195551693439484
1789620430148636200,3.38563623046875,-0.5808506011962891,-0.075330950319767,-0.08160535991191864
1789620430158607400,3.395607421875,-0.4850529432296753,-0.05319768190383911,-0.21419456601142883
1789620430168578000,3.405578125,-0.452360063791275,-0.05853518843650818,-0.2791904807090759
1789620430178549200,3.41554931640625,-0.40885040163993835,0.09964539110660553,-0.31470081210136414
1789620430188520200,3.425520263671875,-0.42853835225105286,0.5366634726524353,-0.3451341390609741
1789620430198492400,3.435492431640625,-0.4103950560092926,0.8853564858436584,-0.41796040534973145
1789620430208463000,3.445463134765625,-0.34027156233787537,0.767909824848175,-0.42264029383659363
1789620430218434000,3.45543408203125,-0.3005577027797699,0.4785267412662506,-0.37189483642578125
1789620430228405200,3.4654052734375,-0.2884491980075836,0.3050788640975952,-0.3655005395412445
1789620430238376200,3.475376220703125,-0.3371991515159607,0.18385203182697296,-0.3604714274406433
1789620430248348200,3.48534814453125,-0.3776903748512268,0.04145802929997444,-0.3238011598587036
1789620430258319000,3.495319091796875,-0.4005429446697235,-0.15902632474899292,-0.2953642010688782
1789620430268290300,3.505290283203125,-0.44848984479904175,-0.27545425295829773,-0.2601259648799896
1789620430278261200,3.51526123046875,-0.43195587396621704,-0.1783583164215088,-0.24696727097034454
1789620430288232200,3.525232177734375,-0.33564984798431396,0.054405514150857925,-0.24070331454277039
1789620430298204200,3.5352041015625,-0.2704907953739166,0.2957765758037567,-0.22711694240570068
1789620430308175000,3.545175048828125,-0.21056261658668518,0.5358598232269287,-0.22812069952487946
1789620430318146300,3.555146240234375,-0.22233004868030548,0.7172908782958984,-0.23591044545173645
1789620430328117200,3.5651171875,-0.2879929542541504,1.047291874885559,-0.11476106196641922
1789620430338088200,3.575088134765625,-0.3877118229866028,1.1874176263809204,-0.007548587396740913
1789620430348060200,3.58506005859375,-0.28183192014694214,0.5923053026199341,-0.12172840535640717
1789620430358031400,3.59503125,-0.05714660882949829,0.34075748920440674,-0.18800410628318787
1789620430368002300,3.605002197265625,0.040003206580877304,0.24266314506530762,-0.10612205415964127
1789620430377973200,3.61497314453125,0.10073819011449814,0.2039005607366562,-0.015294944867491722
1789620430387944200,3.624944091796875,0.16729161143302917,0.24086476862430573,0.03743336722254753
1789620430397915100,3.6349150390625,0.22688142955303192,0.2387414276599884,0.09657871723175049
1789620430407887000,3.64488720703125,0.24242262542247772,0.2523704171180725,0.0946650430560112
1789620430417858000,3.654858154296875,0.3320789933204651,0.4956909418106079,0.12328949570655823
1789620430427829200,3.664829345703125,0.4022819995880127,0.5733426809310913,0.21319599449634552
1789620430437800200,3.67480029296875,0.5032459497451782,0.6271228194236755,0.2178647816181183
1789620430447771400,3.684771484375,0.5372786521911621,0.6170505285263062,0.1367788463830948
1789620430457743000,3.6947431640625,0.4824891686439514,0.4681955575942993,0.10354632139205933
1789620430467714300,3.70471435546875,0.4761398732662201,0.2829236686229706,0.12186159938573837
1789620430477685200,3.714685302734375,0.5113945603370667,-0.035936884582042694,0.11200950294733047
1789620430487656200,3.72465625,0.6045868396759033,-0.259247362613678,0.11618740856647491
1789620430497627100,3.734627197265625,0.7599875926971436,-0.38237860798835754,0.13395468890666962
1789620430507599000,3.74459912109375,0.9357549548149109,-0.4468015134334564,0.1454756110906601
1789620430517570300,3.7545703125,1.0313469171524048,-0.23057544231414795,0.13596174120903015
1789620430527541200,3.764541259765625,1.0778851509094238,0.13181321322917938,0.16748683154582977
1789620430537512200,3.77451220703125,1.096032977104187,0.3786182105541229,0.14757011830806732
1789620430547483100,3.784483154296875,1.0344749689102173,0.5658935904502869,0.05018768459558487
1789620430557455400,3.794455322265625,1.0527368783950806,0.8572322130203247,-0.0012350273318588734
1789620430567426300,3.80442626953125,1.1062376499176025,1.0084716081619263,-0.033507172018289566
1789620430577397000,3.81439697265625,1.1713191270828247,0.9814199805259705,-0.05447397008538246
1789620430587368200,3.8243681640625,1.2719051837921143,0.9451208710670471,-0.041803982108831406
1789620430597339100,3.834339111328125,1.3515336513519287,0.9323981404304504,-0.01547171175479889
1789620430607311400,3.844311279296875,1.374646544456482,0.8632448315620422,0.005819039419293404
1789620430617282000,3.854281982421875,1.3061423301696777,0.7211047410964966,0.0010940590873360634
1789620430627253200,3.864253173828125,1.1452229022979736,0.5195862650871277,-0.059596069157123566
1789620430637224200,3.87422412109375,0.9911333918571472,0.36041203141212463,-0.08695525676012039
1789620430647195100,3.884195068359375,1.0052886009216309,0.5061711668968201,-0.04345041513442993
1789620430657167000,3.8941669921875,1.0831602811813354,0.558769941329956,-0.05266442149877548
1789620430667138000,3.904137939453125,1.1295007467269897,0.47147125005722046,-0.09437447786331177
1789620430677109200,3.914109130859375,1.1775462627410889,0.41882240772247314,-0.04119567945599556
1789620430687080200,3.924080078125,1.2076725959777832,0.4028954803943634,0.05187751725316048
1789620430697051400,3.934051513671875,1.2450343370437622,0.43299344182014465,0.0972234234213829
1789620430707022000,3.94402197265625,1.3232805728912354,0.46517208218574524,0.1103878766298294
1789620430716994300,3.953994384765625,1.3910378217697144,0.2946208417415619,0.12271592020988464
1789620430726965200,3.96396533203125,1.4049441814422607,0.21390362083911896,0.13083170354366302
1789620430736936200,3.973936279296875,1.3885252475738525,0.2835322320461273,0.17559438943862915
1789620430746907100,3.9839072265625,1.3839112520217896,0.3344586193561554,0.22106973826885223
1789620430756878000,3.993878173828125,1.37229323387146,0.3417370319366455,0.24195212125778198
1789620430766850300,4.003850341796875,1.2578577995300293,0.19470350444316864,0.1849519908428192
1789620430776821200,4.0138212890625,1.0881552696228027,0.23314063251018524,0.11529303342103958
1789620430786792200,4.023792236328125,1.061195969581604,0.3892315626144409,0.13029858469963074
1789620430796763100,4.03376318359375,1.1068600416183472,0.26950594782829285,0.11246073246002197
1789620430806734800,4.04373486328125,1.1138298511505127,-0.03659544512629509,0.022985704243183136
1789620430816706800,4.053706787109375,1.0663057565689087,-0.06579381227493286,-0.07596804201602936
1789620430826677800,4.063677734375,0.9859525561332703,0.08047711849212646,-0.16123686730861664
1789620430836649000,4.07364892578125,0.8305781483650208,0.16975292563438416,-0.2088208943605423
1789620430846620000,4.083619873046875,0.6601849794387817,0.4147133529186249,-0.1884452849626541
1789620430856590800,4.0935908203125,0.6345999836921692,0.595196008682251,-0.1560782939195633
1789620430866562800,4.103562744140625,0.7180518507957458,0.45927751064300537,-0.1616038680076599
1789620430876533800,4.11353369140625,0.7637964487075806,0.17555661499500275,-0.1807437390089035
1789620430886505000,4.1235048828125,0.7454808950424194,0.07518679648637772,-0.20789757370948792
1789620430896476000,4.133475830078125,0.7800881266593933,0.034987710416316986,-0.20216964185237885
1789620430906446800,4.14344677734375,0.821217954158783,-0.09739281237125397,-0.17728474736213684
1789620430916418800,4.153418701171875,0.8210514783859253,-0.08901450783014297,-0.15684817731380463
1789620430926390000,4.16339013671875,0.7608301639556885,0.14231272041797638,-0.1453208327293396
1789620430936361000,4.17336083984375,0.7511698007583618,0.3733355700969696,-0.13400186598300934
1789620430946331600,4.18333154296875,0.784640908241272,0.44870153069496155,-0.09909381717443466
1789620430956302800,4.193302734375,0.7766083478927612,0.368123859167099,-0.08783956617116928
1789620430966274800,4.20327490234375,0.7657536864280701,0.35862332582473755,-0.10689085721969604
1789620430976245800,4.213245849609375,0.7098217010498047,0.3766428232192993,-0.11400602757930756
1789620430986216700,4.223216796875,0.6121721267700195,0.2741740942001343,-0.10498196631669998
1789620430996188000,4.23318798828125,0.42524829506874084,0.1684442013502121,-0.11299221962690353
1789620431006158800,4.243158935546875,0.312236487865448,0.07529976218938828,-0.20726832747459412
1789620431016130800,4.253130859375,0.3238002061843872,-0.12111396342515945,-0.34910455346107483
1789620431026101800,4.263101806640625,0.30606386065483093,-0.40315359830856323,-0.38325855135917664
1789620431036072700,4.27307275390625,0.15781021118164062,-0.3319909870624542,-0.31108421087265015
1789620431046044000,4.2830439453125,-0.0978037491440773,-0.06652314960956573,-0.2548808753490448
1789620431056014800,4.293014892578125,-0.17454566061496735,0.23454508185386658,-0.24218130111694336
1789620431065986800,4.30298681640625,-0.14229169487953186,0.4629845917224884,-0.2184649556875229
1789620431075957800,4.312957763671875,-0.15122047066688538,0.556901752948761,-0.20050325989723206
1789620431085929000,4.322928955078125,-0.0614919438958168,0.4035426080226898,-0.22028610110282898
1789620431095900000,4.33289990234375,-0.05965196713805199,0.08771084994077682,-0.25385552644729614
1789620431105870800,4.342870849609375,-0.10566122084856033,-0.17092731595039368,-0.28632017970085144
1789620431115842800,4.3528427734375,-0.17874768376350403,-0.19651097059249878,-0.3007933795452118
1789620431125813800,4.362813720703125,-0.2632775604724884,-0.01674014702439308,-0.2659394145011902
1789620431135785000,4.372784912109375,-0.32043805718421936,0.2861563265323639,-0.18230415880680084
1789620431145755600,4.382755615234375,-0.308485746383667,0.3948014974594116,-0.10356606543064117
1789620431155726800,4.392726806640625,-0.26800650358200073,0.43853139877319336,0.009479256346821785
1789620431165698800,4.40269873046875,-0.21188995242118835,0.4143105447292328,0.1036883220076561
1789620431175670000,4.412669921875,-0.14204828441143036,0.054111070930957794,0.08259901404380798
1789620431185640700,4.422640625,-0.10756593942642212,-0.3422975242137909,0.010955987498164177
1789620431195611600,4.432611572265625,-0.07662453502416611,-0.40773218870162964,-0.02777196653187275
1789620431205582800,4.442582763671875,-0.04260222241282463,-0.126752570271492,-0.013517221435904503
1789620431215554800,4.452554931640625,-0.04534554481506348,-0.19506584107875824,-0.03641534596681595
1789620431225525800,4.46252587890625,-0.09233929961919785,-0.11321704834699631,-0.001362859271466732
1789620431235496700,4.47249658203125,-0.14801082015037537,0.3324432373046875,0.04186183959245682
1789620431245468000,4.482468017578125,-0.10896298289299011,0.6039467453956604,0.02547907829284668
1789620431255438800,4.49243896484375,-0.11432019621133804,0.4551890194416046,0.009101969189941883
1789620431265410800,4.502410888671875,-0.14083604514598846,0.1709510236978531,0.043294019997119904
1789620431275381800,4.5123818359375,-0.16573473811149597,-0.07623746246099472,0.07785918563604355
1789620431285353000,4.52235302734375,-0.20220111310482025,-0.11725331842899323,0.09026098996400833
1789620431295324000,4.532323974609375,-0.2701564431190491,0.0194893479347229,0.11141261458396912
1789620431305294800,4.542294921875,-0.3579540550708771,-0.2305116504430771,0.12016487121582031
1789620431315266800,4.552266845703125,-0.47516483068466187,-0.5340734124183655,0.20147117972373962
1789620431325237800,4.56223779296875,-0.6697918176651001,-0.36398348212242126,0.25349271297454834
1789620431335209000,4.572208984375,-0.7471923232078552,0.06365573406219482,0.21749448776245117
1789620431345180000,4.582179931640625,-0.7414638996124268,0.10395979881286621,0.12448239326477051
1789620431355150800,4.59215087890625,-0.7663724422454834,-0.174049973487854,0.05310327932238579
1789620431365122800,4.602122802734375,-0.7848416566848755,-0.7467243671417236,0.020781034603714943
1789620431375094000,4.612093994140625,-0.7355918288230896,-1.3617864847183228,0.017062462866306305
1789620431385065000,4.62206494140625,-0.6964709758758545,-1.444084882736206,0.030392413958907127
1789620431395035600,4.63203564453125,-0.690095067024231,-0.9442859888076782,-0.019151702523231506
1789620431405006800,4.6420068359375,-0.7080518007278442,-0.4959741532802582,-0.11503725498914719
1789620431414978800,4.651978759765625,-0.7106276154518127,-0.27984026074409485,-0.2213764786720276
1789620431424949800,4.66194970703125,-0.7229219675064087,0.03284076973795891,-0.2681042551994324
1789620431434920700,4.671920654296875,-0.7527400255203247,0.22813543677330017,-0.26246127486228943
1789620431444892000,4.681891845703125,-0.7740694284439087,0.10089071840047836,-0.21421414613723755
1789620431454862800,4.69186279296875,-0.7742523550987244,-0.15995925664901733,-0.1527893990278244
1789620431464834800,4.701834716796875,-0.7782748341560364,-0.4994410574436188,-0.13649141788482666
1789620431474805800,4.7118056640625,-0.8299484252929688,-0.585078775882721,-0.1600494682788849
1789620431484776700,4.721776611328125,-0.8816109299659729,-0.4051494300365448,-0.23187166452407837
1789620431494748000,4.731747802734375,-0.8999441266059875,-0.13858962059020996,-0.25405287742614746
1789620431504718800,4.74171875,-0.9185325503349304,-0.17549224197864532,-0.20782241225242615
1789620431514690800,4.75169091796875,-1.0128846168518066,-0.4117138385772705,-0.14068305492401123
1789620431524661800,4.761661865234375,-1.072218418121338,-0.47016772627830505,-0.10048487782478333
1789620431534633000,4.771633056640625,-1.0501303672790527,-0.36003270745277405,-0.11631417274475098
1789620431544604000,4.78160400390625,-0.996554434299469,-0.3573961555957794,-0.16224974393844604
1789620431554574800,4.791574951171875,-0.8703472018241882,-0.5457074642181396,-0.2403663843870163
1789620431564546800,4.801546875,-0.798387348651886,-0.523249626159668,-0.30962949991226196
1789620431574517800,4.811517822265625,-0.8296083807945251,-0.2625380754470825,-0.2866858243942261
1789620431584489000,4.821489013671875,-0.8482764959335327,-0.022743072360754013,-0.23246559500694275
1789620431594459600,4.831459716796875,-0.8357236981391907,0.053431589156389236,-0.259013295173645
1789620431604430800,4.841430908203125,-0.8751968145370483,0.12169255316257477,-0.32298532128334045
1789620431614402800,4.85140283203125,-0.8858310580253601,0.08115311712026596,-0.3429819345474243
1789620431624374000,4.8613740234375,-0.8377816677093506,-0.02520020678639412,-0.33943748474121094
1789620431634344700,4.8713447265625,-0.8573580384254456,0.015991438180208206,-0.33254656195640564
1789620431644315600,4.881315673828125,-0.9391760230064392,0.11207231879234314,-0.2729986310005188
1789620431654286800,4.891286865234375,-1.0167951583862305,0.07927921414375305,-0.12425681948661804
1789620431664258800,4.9012587890625,-1.0311806201934814,-0.1660856455564499,0.01075071282684803
1789620431674229800,4.911229736328125,-0.9967137575149536,-0.6055243015289307,0.08613201975822449
1789620431684200700,4.92120068359375,-0.9883542060852051,-0.8462949395179749,0.11247670650482178
1789620431694172000,4.931171875,-0.9518587589263916,-0.7868316173553467,0.10073350369930267
1789620431704142800,4.941142822265625,-0.9214719533920288,-0.6943486928939819,0.03830144554376602
1789620431714114800,4.95111474609375,-0.9495925307273865,-0.5201262831687927,-0.028339900076389313
1789620431724085800,4.961085693359375,-0.9973202347755432,-0.17245347797870636,-0.07067546248435974
1789620431734056700,4.971056640625,-1.0347293615341187,0.04985842481255531,-0.11147349327802658
1789620431744028000,4.98102783203125,-1.1248623132705688,0.24272865056991577,-0.1272825002670288
1789620431753999600,4.99099951171875,-1.1330674886703491,0.27413052320480347,-0.16185352206230164
1789620431763970800,5.000970703125,-1.0963335037231445,0.00712950062006712,-0.18021410703659058
1789620431773941800,5.010941650390625,-1.1019867658615112,-0.22969315946102142,-0.17368777096271515
1789620431783913000,5.020912841796875,-1.0500577688217163,-0.25905585289001465,-0.14729100465774536
1789620431793884000,5.0308837890625,-0.9883586764335632,-0.25856050848960876,-0.11045017838478088
1789620431803856000,5.04085595703125,-0.9879364967346191,-0.35266581177711487,-0.04555477574467659
1789620431813826800,5.050826904296875,-1.0110279321670532,-0.5725371837615967,0.0033432599157094955
1789620431823798000,5.060798095703125,-1.0346482992172241,-0.7784032225608826,0.04681902378797531
1789620431833769000,5.07076904296875,-0.9737157225608826,-0.8898096084594727,0.05847488343715668
1789620431843739600,5.08073974609375,-0.9025071263313293,-0.7791792750358582,0.030222391709685326
1789620431853712000,5.0907119140625,-0.865774929523468,-0.5511418581008911,0.01153578981757164
1789620431863682800,5.100682861328125,-0.9317264556884766,-0.36705106496810913,0.035735372453927994
1789620497692726300,70.92972631835937,0.5137056112289429,-0.3158753514289856,-0.44829943776130676
1789620497702697200,70.939697265625,0.444504976272583,-0.46064451336860657,-0.23249737918376923
1789620497712668400,70.94966845703125,0.3860240876674652,-0.5496710538864136,-0.042921312153339386
1789620497722639400,70.95963940429688,0.3451560139656067,-0.529619038105011,0.11016996949911118
1789620497732610300,70.9696103515625,0.3335837423801422,-0.40292197465896606,0.21837127208709717
1789620497742581200,70.97958129882812,0.3382551968097687,-0.2587008774280548,0.26571720838546753
1789620497752552200,70.98955224609375,0.35746803879737854,-0.1638648957014084,0.25787100195884705
1789620497762523400,70.9995234375,0.396626353263855,-0.002996660303324461,0.23891836404800415
1789620497772494300,71.00949438476563,0.4296341836452484,0.19230085611343384,0.22915121912956238
1789620497782465300,71.01946533203125,0.4486350417137146,0.30919498205184937,0.23658382892608643
1789620497792435500,71.029435546875,0.4815301299095154,0.3365923762321472,0.26220306754112244
1789620497802406400,71.03940649414062,0.5478401780128479,0.3186642527580261,0.3161301910877228
1789620497812377000,71.04937719726563,0.6422281861305237,0.25343891978263855,0.38691914081573486
1789620497822348300,71.05934838867188,0.7393366694450378,0.09606901556253433,0.44242769479751587
1789620497832319200,71.0693193359375,0.7910155653953552,-0.14836537837982178,0.45219627022743225
1789620497842290400,71.07929052734374,0.7875223159790039,-0.3241257667541504,0.43588787317276
1789620497852261400,71.08926147460937,0.7378546595573425,-0.3854692876338959,0.3955954611301422
1789620497862232300,71.099232421875,0.6633031964302063,-0.4051966369152069,0.3123120367527008
1789620497872203500,71.10920361328125,0.6146222352981567,-0.4090415835380554,0.19734641909599304
1789620497882174700,71.1191748046875,0.6017972230911255,-0.35161155462265015,0.08546782284975052
1789620497892145700,71.12914575195313,0.6143995523452759,-0.2271294891834259,0.009038688614964485
1789620497902116900,71.13911694335937,0.6365096569061279,-0.0921410471200943,-0.023885970935225487
1789620497912087600,71.14908764648438,0.6192315816879272,-0.03983433172106743,-0.04979892447590828
1789620497922058800,71.15905883789063,0.5765323042869568,-0.06967797875404358,-0.09288220852613449
1789620497932028700,71.16902856445313,0.5150721669197083,-0.05109738931059837,-0.13101693987846375
1789620497941999600,71.17899951171874,0.41817495226860046,0.04792879521846771,-0.16893316805362701
1789620497951970800,71.188970703125,0.29913419485092163,0.15929466485977173,-0.2304518073797226
1789620497961941800,71.19894165039062,0.1874886453151703,0.21431823074817657,-0.30369165539741516
1789620497971912700,71.20891259765625,0.08335189521312714,0.24126030504703522,-0.3629058301448822
1789620497981883600,71.21888354492188,-0.002394437789916992,0.27251675724983215,-0.38477012515068054
1789620497991854600,71.2288544921875,-0.06385371834039688,0.3074242174625397,-0.3788796067237854
1789620498001825800,71.23882568359375,-0.10819029062986374,0.32952365279197693,-0.3484841585159302
1789620498011796700,71.24879663085937,-0.14911366999149323,0.3513145446777344,-0.29661405086517334
1789620498021767700,71.258767578125,-0.18970689177513123,0.34861329197883606,-0.22743363678455353
1789620498031739000,71.26873876953125,-0.2173895537853241,0.3168787956237793,-0.15476688742637634
1789620498041709600,71.27870947265625,-0.22653885185718536,0.26191622018814087,-0.09105954319238663
1789620498051680800,71.2886806640625,-0.21396279335021973,0.18928638100624084,-0.05827230215072632
1789620498061651700,71.29865161132813,-0.1843886524438858,0.14172498881816864,-0.05475080385804176
1789620498071622700,71.30862255859375,-0.16080138087272644,0.1105692908167839,-0.07324086129665375
1789620498081592800,71.3185927734375,-0.14523707330226898,0.07275959104299545,-0.10132389515638351
1789620498091563800,71.32856372070313,-0.14083726704120636,0.03147511184215546,-0.12460937350988388
1789620498101534700,71.33853466796874,-0.15104277431964874,0.017622943967580795,-0.13539466261863708
1789620498111505700,71.34850561523437,-0.16679634153842926,0.03177335485816002,-0.12061437219381332
1789620498121476600,71.3584765625,-0.16466793417930603,0.052559059113264084,-0.08134925365447998
1789620498131447800,71.36844775390625,-0.17020222544670105,0.060236889868974686,-0.03034932166337967
1789620498141418800,71.37841870117188,-0.1358189582824707,0.03593927249312401,0.03920658677816391
1789620498151389700,71.3883896484375,-0.09770525246858597,-0.010302586480975151,0.10007525980472565
1789620498161360600,71.39836059570312,-0.07854647189378738,-0.07283813506364822,0.161598801612854
1789620498171331600,71.40833154296875,-0.08278480917215347,-0.12271986156702042,0.2170162796974182
1789620498181302800,71.418302734375,-0.0915767028927803,-0.14240194857120514,0.274007111787796
1789620498191273700,71.42827368164062,-0.10936059802770615,-0.1372360736131668,0.32151657342910767
1789620498201244700,71.43824462890625,-0.11626830697059631,-0.11890021711587906,0.3477787971496582
1789620498211215600,71.44821557617188,-0.10641810297966003,-0.0936555489897728,0.3540897071361542
1789620498221186600,71.4581865234375,-0.09379259496927261,-0.09591551125049591,0.3394734859466553
1789620498231157800,71.46815771484376,-0.09029467403888702,-0.14148692786693573,0.32071352005004883
1789620498241127700,71.47812768554688,-0.09862823784351349,-0.1914510279893875,0.31560155749320984
1789620498251098600,71.4880986328125,-0.10738971829414368,-0.2232876569032669,0.31785938143730164
1789620498261069800,71.49806982421875,-0.11620211601257324,-0.2310664802789688,0.32027778029441833
1789620498271040800,71.50804077148437,-0.11799634248018265,-0.21024389564990997,0.3126941919326782
1789620498281011700,71.51801171875,-0.11554037779569626,-0.1588001400232315,0.2878066897392273
1789620498290982700,71.52798266601563,-0.11779133230447769,-0.10433463752269745,0.2464340776205063
1789620498300953600,71.53795361328125,-0.12637896835803986,-0.07415623217821121,0.20526906847953796
1789620498310924800,71.5479248046875,-0.12402848154306412,-0.07742813229560852,0.16695642471313477
1789620498320895700,71.55789575195313,-0.10006828606128693,-0.055848803371191025,0.13807204365730286
1789620498330866700,71.56786669921875,-0.07657529413700104,0.0011616793926805258,0.12747439742088318
1789620498340837600,71.57783764648437,-0.07504291087388992,0.04949911683797836,0.12183541804552078
1789620498350808600,71.58780859375,-0.08144586533308029,0.06524582207202911,0.12726160883903503
1789620498360779800,71.59777978515625,-0.10114260017871857,0.07054737210273743,0.13116075098514557
1789620498370750700,71.60775073242188,-0.1332525610923767,0.07816251367330551,0.13055194914340973
1789620498380720600,71.617720703125,-0.1593017280101776,0.09372255951166153,0.1189325824379921
1789620498390691800,71.62769189453125,-0.18025299906730652,0.12403436005115509,0.10137010365724564
1789620498400662800,71.63766284179688,-0.2050664722919464,0.14368928968906403,0.08411681652069092
1789620498410633700,71.6476337890625,-0.22185301780700684,0.1402127891778946,0.06981909275054932
1789620498420604700,71.65760473632812,-0.22954130172729492,0.13765588402748108,0.05623804032802582
1789620498430575600,71.66757568359375,-0.2139570266008377,0.15734288096427917,0.04708222672343254
1789620498440546800,71.677546875,-0.18346543610095978,0.2153385430574417,0.044262468814849854
1789620498450517800,71.68751782226562,-0.16653166711330414,0.2748238444328308,0.05789492651820183
1789620498460488700,71.69748876953125,-0.16886885464191437,0.2968018352985382,0.0751788392663002
1789620498470459600,71.70745971679688,-0.1841854751110077,0.2924165725708008,0.09260869026184082
1789620498480430600,71.7174306640625,-0.2080167829990387,0.27432942390441895,0.10662916302680969
1789620498490401800,71.72740185546876,-0.22864390909671783,0.25747406482696533,0.1168484017252922
1789620498500372700,71.73737280273437,-0.24402792751789093,0.23444920778274536,0.10908288508653641
1789620498510343700,71.74734375,-0.24837349355220795,0.21848651766777039,0.08870251476764679
1789620498520314600,71.75731469726563,-0.23702096939086914,0.24013827741146088,0.0697045847773552
1789620498530285600,71.76728564453126,-0.2233680784702301,0.28009286522865295,0.058543939143419266
1789620498540255700,71.777255859375,-0.20947329699993134,0.3200021982192993,0.051670052111148834
1789620498550226700,71.78722680664063,-0.1829870343208313,0.3798680603504181,0.06466628611087799
1789620498560197600,71.79719775390625,-0.1659795492887497,0.43386310338974,0.09399088472127914
1789620498570168800,71.8071689453125,-0.16789087653160095,0.4414446949958801,0.13270272314548492
1789620498580139500,71.81713940429688,-0.17772406339645386,0.41006332635879517,0.16849559545516968
1789620498590110700,71.82711083984375,-0.18599390983581543,0.35628896951675415,0.19779638946056366
1789620498600081700,71.83708154296875,-0.18017862737178802,0.3083938956260681,0.21693092584609985
1789620498610052600,71.84705249023438,-0.16747592389583588,0.2707561254501343,0.2173232138156891
1789620498620023800,71.85702392578125,-0.14565104246139526,0.2500077188014984,0.2002914994955063
1789620498629994800,71.86699487304688,-0.12225916236639023,0.2725675106048584,0.16787084937095642
1789620498639965700,71.87696557617187,-0.09728936105966568,0.32804062962532043,0.1324220448732376
1789620498649936600,71.8869365234375,-0.08419276773929596,0.379456490278244,0.09407638013362885
1789620498659907800,71.89690795898437,-0.08139857649803162,0.4039916396141052,0.06105424091219902
1789620498669878800,71.90687866210938,-0.08264182507991791,0.4061064124107361,0.03436219319701195
1789620498679849700,71.916849609375,-0.0745876282453537,0.40125972032546997,0.008604629896581173
1789620498689820700,71.92682055664062,-0.062035590410232544,0.4012376368045807,-0.019997872412204742
1789620498699791600,71.93679150390625,-0.038814157247543335,0.3992045819759369,-0.047635357826948166
1789620498709761500,71.94676147460937,-0.023531474173069,0.3935246765613556,-0.07412900775671005
1789620498719732700,71.95673266601563,-0.010113135911524296,0.3896830677986145,-0.09111704677343369
1789620498729703700,71.96670361328125,0.0016753135714679956,0.39794543385505676,-0.08975670486688614
1789620498739675000,71.9766748046875,0.008315905928611755,0.4152890145778656,-0.08077919483184814
1789620498749645800,71.98664575195312,0.006556896027177572,0.42670562863349915,-0.06817511469125748
1789620498759616500,71.99661645507813,-0.017648041248321533,0.4334000051021576,-0.05427900701761246
1789620498769587700,72.00658764648438,-0.04132824391126633,0.44619008898735046,-0.04938677325844765
1789620498779558700,72.01655859375,-0.05410262942314148,0.45826593041419983,-0.05487581342458725
1789620498789529900,72.02652978515626,-0.0556192584335804,0.46014663577079773,-0.06960535049438477
1789620498799500800,72.03650073242187,-0.04686171934008598,0.44547685980796814,-0.09668437391519547
1789620498809471500,72.04647143554688,-0.020328644663095474,0.41565239429473877,-0.13067030906677246
1789620498819442700,72.05644262695313,0.014739593490958214,0.36552131175994873,-0.1606772094964981
1789620498829413600,72.06641357421876,0.05067066475749016,0.310790091753006,-0.18372847139835358
1789620498839384800,72.076384765625,0.0804876834154129,0.28082844614982605,-0.1963803470134735
1789620498849355800,72.08635571289062,0.09378353506326675,0.26533544063568115,-0.19893525540828705
1789620498859326700,72.09632666015625,0.0885501578450203,0.2586061656475067,-0.19787584245204926
1789620498869297400,72.10629736328124,0.060213226824998856,0.27177107334136963,-0.20394745469093323
1789620498879268400,72.11626831054687,0.03671535849571228,0.309810608625412,-0.21572448313236237
1789620498889238300,72.12623828125,0.023753320798277855,0.36663755774497986,-0.21665698289871216
1789620498899209500,72.13620947265625,0.011877486482262611,0.4162501394748688,-0.19673441350460052
1789620498909180400,72.14618041992188,0.009244716726243496,0.43363505601882935,-0.16631817817687988
1789620498919151600,72.15615161132813,0.022366376593708992,0.4235909581184387,-0.14020535349845886
1789620498929122600,72.16612255859376,0.043238744139671326,0.3884064257144928,-0.12137628346681595
1789620498939093200,72.17609326171875,0.0661749541759491,0.3501061797142029,-0.10495629906654358
1789620498949064400,72.186064453125,0.07954753190279007,0.3163432776927948,-0.09748852252960205
1789620498959035400,72.19603540039063,0.08116140961647034,0.2929292917251587,-0.0982896015048027
1789620498969006600,72.20600659179688,0.08229469507932663,0.27750617265701294,-0.11846809089183807
1789620498978977500,72.2159775390625,0.0847831517457962,0.2618768811225891,-0.1539216935634613
1789620498988948200,72.2259482421875,0.08597832173109055,0.2664215564727783,-0.19364634156227112
1789620498998919400,72.23591943359375,0.09699288755655289,0.3223724365234375,-0.22296349704265594
1789620499008890400,72.24589038085938,0.09668324142694473,0.389074444770813,-0.23018065094947815
1789620499018861600,72.25586157226563,0.06722415238618851,0.4151734411716461,-0.21231509745121002
1789620499028832500,72.26583251953124,0.038124941289424896,0.38600221276283264,-0.1896238923072815
1789620499038803500,72.27580346679687,0.015359444543719292,0.31117087602615356,-0.16832739114761353
1789620499048774400,72.2857744140625,0.004683328792452812,0.24020935595035553,-0.1428898125886917
1789620499058745300,72.29574536132813,0.0020313533022999763,0.1792629212141037,-0.11606059223413467
1789620499068716500,72.30571655273438,-0.004811171442270279,0.10481858253479004,-0.09450121223926544
1789620499078687500,72.3156875,-0.016109898686408997,0.053696539252996445,-0.08647071570158005
1789620499088658700,72.32565869140625,-0.035379573702812195,0.046193160116672516,-0.10179921984672546
1789620499098628600,72.33562866210937,-0.05190342292189598,0.06467816978693008,-0.14216475188732147
1789620499108599600,72.345599609375,-0.048692695796489716,0.08767661452293396,-0.19071350991725922
1789620499118570500,72.35557055664063,-0.03433985635638237,0.11838472634553909,-0.2266930788755417
1789620499128541400,72.36554150390624,-0.00038029905408620834,0.16342902183532715,-0.24771514534950256
1789620499138512400,72.37551245117187,0.04718003049492836,0.21160933375358582,-0.25369128584861755
1789620499148483600,72.38548364257812,0.09604742377996445,0.21148625016212463,-0.22859817743301392
1789620499158454500,72.39545458984375,0.14135338366031647,0.13022814691066742,-0.20630618929862976
1789620499168425500,72.40542553710938,0.1895071119070053,0.08337181061506271,-0.1732552945613861
1789620499178396400,72.415396484375,0.2224610596895218,0.03656889125704765,-0.12715837359428406
1789620499188367400,72.42536743164062,0.2401922345161438,-0.027004582807421684,-0.0730699896812439
