time,seconds_elapsed,z,y,x
1789799642178244000,0.056244140625,0.44799335834681986,0.36500177140533924,0.5281377391636372
1789799642188215300,0.06621533203125,0.550505053794384,0.13421966987550257,0.1962389036759734
1789799642198186200,0.076186279296875,0.5437701925814151,-0.03710311146974563,-0.0357142143946141
1789799642208158200,0.086158203125,0.4568371745377779,-0.08584872993826866,-0.147092522386834
1789799642218129200,0.096129150390625,0.3012280951529741,-0.054364627394080156,-0.16380707195289432
1789799642228101400,0.106101318359375,0.3723094640702009,-0.006530863073468208,-0.2992682663220912
1789799642238072000,0.116072021484375,0.5345172110676765,-0.16683716036379337,-0.32734299881421025
1789799642248043000,0.12604296875,0.5523176561743021,-0.4029144456923008,-0.2217432011581957
1789799642258015200,0.13601513671875,0.4651788864254951,-0.5737058966398239,-0.12641739862672985
1789799642267986200,0.145986083984375,0.3114753484010696,-0.781730222916603,-0.059706792139634486
1789799642277958100,0.155958251953125,-0.01764437776207924,-0.8693348566114902,0.14409144087471068
1789799642287929000,0.16592919921875,-0.5173556483864784,-0.791120567074418,0.4976714353598654
1789799642297900300,0.175900390625,-0.9924597164988517,-0.3864052094399929,0.9080260409902781
1789799642307872000,0.1858720703125,-1.27920745087862,0.23629414294958112,1.5069951928980647
1789799642317843200,0.19584326171875,-1.5357792427033186,0.6546212618291377,2.1880979266785086
1789799642327815200,0.205815185546875,-1.8017723583459853,0.7347861009120941,2.6151497654139995
1789799642337786000,0.2157861328125,-2.0948837825387714,0.7394663676828146,2.5573715301841498
1789799642347757000,0.225757080078125,-2.3542478354305025,0.9053811525046825,1.9106530043035745
1789799642357729300,0.235729248046875,-2.6082442238092423,0.9064613489568233,1.185189881401509
1789799642367700200,0.2457001953125,-2.7423937510579823,0.6870932063668966,0.7489506737343966
1789799642377672200,0.255672119140625,-2.554655841484666,0.4051619323581457,0.4406799665935337
1789799642387643100,0.26564306640625,-1.9722703793048857,0.17558219235539435,0.339094446080178
1789799642397614300,0.2756142578125,-1.219193419420719,0.1607797600209713,0.44627384107783435
1789799642407586000,0.2855859375,-0.37111879298090933,0.363146498927474,0.6225089443840086
1789799642417557200,0.29555712890625,0.30383038660585876,0.562577184382081,0.924378990702331
1789799642427529200,0.305529296875,0.8345078733801842,0.7016086384534835,1.3557758729048073
1789799642437500200,0.315500244140625,1.221185470020771,0.76868077172935,1.6855872345939278
1789799642447471000,0.32547119140625,1.754122133898735,0.10735504382550716,1.3312680391140281
1789799642457443300,0.335443359375,1.8566051877737044,-2.0918582972377537,0.36466391775310036
1789799642467414000,0.3454140625,2.2725778524816036,-1.2241226925164461,1.0029472082436084
1789799642477386200,0.35538623046875,1.9663731379598377,-1.1568062290906906,0.8858098983332514
1789799642487357200,0.365357177734375,1.479371126782894,-1.229395079961419,0.865979262573272
1789799642497328400,0.375328369140625,1.2489134349018334,0.6898615020364522,2.0376827626749874
1789799642507300000,0.385300048828125,0.39163141965568066,2.9803216326892374,3.471183241903782
1789799642517271300,0.395271240234375,-0.4298796095073223,4.959718502873182,5.2270349760740995
1789799642527243300,0.4052431640625,-1.0773211889654397,5.3535816271036865,6.223508019867539
1789799642537214200,0.415214111328125,-2.6318939794659615,3.895070332998037,5.666032542538643
1789799642547185200,0.42518505859375,-4.188455897957087,0.4386807556003332,4.427055687500536
1789799642557157400,0.435157470703125,-4.909524439162015,-1.3960983848124742,3.773634449110925
1789799642567128000,0.445128173828125,-4.375312933042645,-2.0880893000930545,3.1376980140075084
1789799642577100300,0.455100341796875,-2.861062800580263,-2.4539368746727703,2.8707264087215063
1789799642587071200,0.4650712890625,-2.281786410331726,-2.8074171351104975,2.6468916421115396
1789799642597042200,0.475042236328125,-3.187114371344447,-3.2982956954598426,2.3423098526164887
1789799642607014100,0.48501416015625,-3.3989988801807165,-4.380977534675598,1.161915534928441
1789799642616985000,0.494985107421875,-1.4979367110431194,-5.946539921224117,0.020062033363059163
1789799642626957000,0.50495703125,-0.34561025771498677,-7.133997309166193,-1.0472305135410278
1789799642636928300,0.51492822265625,0.33672786307930946,-7.292571083575487,-2.3762239587865768
1789799642646899500,0.5248994140625,1.9756407325208185,-5.843095913362503,-5.426450463959575
1789799642656871400,0.534871337890625,3.7531069171279667,-3.17262728856951,-12.080787356883286
1789799642666842400,0.54484228515625,4.676424123817682,-0.8151131448194384,-14.357652092903852
1789799642676814300,0.554814453125,3.8213369882673023,-1.3684025686353445,-6.974848365217447
1789799642686785500,0.56478564453125,3.0429478924721476,-2.7261007879048584,0.24308811393864452
1789799642696756500,0.574756591796875,3.2915736937284468,-2.710964593571424,3.060668842601776
1789799642706728400,0.584728515625,4.694401094534993,-2.396551145891845,4.162704493845999
1789799642716699400,0.594699462890625,3.9760985109120606,-2.3685887877330183,4.919915484794974
1789799642726671400,0.60467138671875,1.0720523086518048,-2.7784955765306947,4.832465457139909
1789799642736642300,0.614642333984375,-1.1230939291030169,-2.6013638166457413,4.0919861130222674
1789799642746613500,0.624613525390625,-3.0481682574689386,-2.0212179500862955,3.8196325224369763
1789799642756585500,0.63458544921875,-4.6564960190325975,-1.9631547604352235,4.558586848944425
1789799642766556400,0.644556396484375,-5.0171618070602415,-2.8770728551387785,3.0115380242079492
1789799642776528400,0.6545283203125,-4.786543956181407,-4.132354656028747,0.7738317247517407
1789799642786499600,0.66449951171875,-4.453273540079594,-5.123287016829848,2.1544806114979087
1789799642796471300,0.67447119140625,-4.198616057443618,-5.4154854178309435,2.8483588018298147
1789799642806442500,0.6844423828125,-3.566775367221236,-4.993855750274658,2.3275375231593847
1789799642816413400,0.694413330078125,-4.026362132728099,-4.257119684338569,2.400975684335828
1789799642826385400,0.704385498046875,-5.48871256660521,-2.9851012681812046,2.427814299161732
1789799642836356400,0.7143564453125,-6.571248859870433,-2.639507377079129,1.8852312705382703
1789799642846328600,0.72432861328125,-5.286539304444194,-4.488579831260442,0.9529358076229691
1789799642856299500,0.734299560546875,-2.7360961122184992,-6.095726858606934,-0.08266776181459426
1789799642866270500,0.7442705078125,-1.32594465213418,-6.931889513456821,-0.9232540783256292
1789799642876242400,0.754242431640625,-0.3581166880667209,-7.050459778779745,0.10646014081239699
1789799642886213600,0.764213623046875,0.08465630528330803,-5.304931285703182,2.165035177129507
1789799642896185300,0.774185302734375,-1.435185363575816,-3.948409124475717,2.2474708837538957
1789799642906156500,0.784156494140625,-3.319645357480645,-4.461899621866643,0.6548124004870652
1789799642916127500,0.79412744140625,-3.711151104930043,-5.314905567228794,-0.8638830209463835
1789799642926099500,0.804099365234375,-2.546240479838848,-5.6958478350877755,-1.4047843800932167
1789799642936070400,0.8140703125,-1.0329489632755517,-5.790165118163824,-1.344921155282855
1789799642946042600,0.824042724609375,0.24789105724096297,-5.425699353331327,-0.08034779443442822
1789799642956013600,0.834013671875,1.2462763643965125,-4.641793539941311,1.1943149987518786
1789799642965984300,0.843984375,1.32739952711761,-4.498399799007177,0.7763222263932228
1789799642975956500,0.85395654296875,1.2224242180354892,-4.57735993847549,0.4713432542741298
1789799642985927400,0.863927490234375,1.129852171191573,-4.818771278308332,0.29394495240747925
1789799642995899400,0.8738994140625,1.6609376542448997,-4.8749751038283105,0.7572106986880301
1789799643005870300,0.883870361328125,2.8527719420969486,-4.80057102022916,1.963705964577198
1789799643015841500,0.893841552734375,4.318764531868696,-4.610418742990493,2.476007836705446
1789799643025813200,0.903813232421875,5.491112028962373,-3.9978199288547036,2.175857599917054
1789799643035784400,0.913784423828125,5.691723448634147,-3.2065061772957444,2.98973535772264
1789799643045756400,0.92375634765625,5.335991609877348,-2.675673792220652,3.2439217157155276
1789799643055727400,0.933727294921875,4.932009827214479,-2.2088247806258496,2.685314019486308
1789799643065698300,0.9436982421875,3.846531343017518,-1.7167304147459566,2.824780942365527
1789799643075670500,0.95367041015625,2.0343395897269247,-0.892822261313349,5.250212438043952
1789799643085641500,0.963641357421875,0.3590459317408502,0.7973340347617864,10.271461806678772
1789799643095613400,0.973613525390625,-2.1093992146253586,1.8871788974747061,13.853783702600001
1789799643105584400,0.98358447265625,-2.364801378148794,4.747728780096769,14.383842180693149
1789799643115555600,0.9935556640625,0.7326188398756086,8.001088770765065,17.03732839876413
1789799643125527300,1.00352734375,-1.7335083849370478,9.256853971257804,19.32506290384531
1789799643135498500,1.01349853515625,-5.5773734313547605,8.740470382773875,18.11985358611345
1789799643145470500,1.023470458984375,-4.507270503205061,9.703748428452014,15.994854651296137
1789799643155441400,1.03344140625,-4.414142137652635,10.706921262145041,15.584849955081939
1789799643165412400,1.043412353515625,-4.782369885367155,10.16264136647582,16.374609170675278
1789799643175384600,1.053384521484375,-3.6384780829071994,9.930494990855454,17.02705250394344
1789799643185355500,1.06335546875,-3.3380279863893985,11.247923159056901,15.5222196036458
1789799643195327500,1.073327392578125,-5.1769537250876425,11.525295162326097,12.012321138900518
1789799643205298400,1.08329833984375,-6.713980922025442,8.927550120699404,9.31684053018689
1789799643215269400,1.093269287109375,-8.424750236409903,4.996254043588042,8.40028390367329
1789799643225241300,1.103241455078125,-8.526030344235897,2.9759593458265066,2.545810856249928
1789799643235212300,1.11321240234375,-7.035886479026079,1.737008502012491,2.3909259994864462
1789799643245184500,1.1231845703125,-3.822227215105295,4.225607524743676,13.56179865208864
1789799643255155200,1.1331552734375,3.5152351495981216,7.927384067606925,18.4973518509984
1789799643265127400,1.14312744140625,2.783258260887861,5.028817173540592,5.955450372910499
1789799643275098400,1.153098388671875,-0.13330255503058433,1.7080317061141133,-0.7104507010787725
1789799643285069600,1.163069580078125,2.363565698873997,0.6507862137109041,-1.4429051441729068
1789799643295041300,1.173041259765625,4.190075023591518,0.6236831027299166,-0.8752858739703893
1789799643305012500,1.183012451171875,3.6601626759707924,0.7524193727582693,-0.5419342093259096
1789799643314984400,1.192984375,2.7978385749042034,0.36463206131011244,-3.0933319257974623
1789799643324955400,1.202955322265625,4.001903398776054,-0.07818564796447754,-5.389254998031258
1789799643334926300,1.21292626953125,3.680100717628002,-0.25337416482716796,-6.299619199645519
1789799643344898600,1.222898681640625,1.8026491411805152,-1.315500707270205,-7.134699904477596
1789799643354869200,1.232869140625,2.6520389418721195,-2.000241505292058,-6.469045207458734
1789799643364841500,1.242841552734375,3.912980083698034,-2.636876151792705,-6.04526742195785
1789799643374812400,1.2528125,3.940073550067842,-3.3813682386830446,-7.159309445077181
1789799643384783600,1.26278369140625,2.551294256097078,-5.654719705885649,-9.619406595945359
1789799643394755300,1.27275537109375,1.421707165582478,-4.963880298727751,-8.087124547708035
1789799643404726500,1.2827265625,-0.20499241123497486,-3.155205613647401,-3.80080741045773
1789799643414698200,1.2926982421875,-0.9010565673038363,-2.066273774126172,-0.8362193534731864
1789799643424669400,1.30266943359375,-0.8994001783989369,-1.6914181327044964,-0.48283378558158874
1789799643434640400,1.312640380859375,-0.9880873466335236,-1.2555191167771815,-0.32751696714162826
1789799643444612600,1.322612548828125,-0.8146937503635883,0.8282029280170797,2.1216765123963355
1789799643454583300,1.332583251953125,-0.35554479175209996,2.2430828779280185,5.182752182233333
1789799643464555500,1.342555419921875,-0.1278092183113098,2.151478360942006,6.165058168986439
1789799643474526500,1.3525263671875,-0.2176500866256654,2.325136891758442,5.104500483295321
1789799643484497400,1.362497314453125,0.4384009157456457,1.6159820757091043,3.920740196305513
1789799643494469400,1.372469482421875,0.6641838938139378,1.1091317469850182,3.167639855545759
1789799643504440300,1.3824404296875,0.2168026760160923,0.5989218786999583,2.0092349590867755
1789799643514412300,1.392412353515625,-0.1444553788162768,-0.5549558957234024,0.9885118556559085
1789799643524383200,1.40238330078125,-0.08599369136691093,-2.0236232576623556,-0.7366244222551583
1789799643534355500,1.41235546875,1.208221943551302,-4.259804685638844,-3.119992553707957
1789799643544326400,1.422326416015625,2.214557040667534,-5.267526560938358,-5.963249648484587
1789799643554297300,1.43229736328125,1.1413526393711566,-4.1819338027119635,-6.886791896101832
1789799643564269300,1.442269287109375,-0.004093918250128626,-3.368058967515826,-5.550047617533803
1789799643574240500,1.452240478515625,-0.1168517709672451,-2.272886772300303,-3.31474998665452
1789799643584212500,1.46221240234375,-0.36984453526139255,-1.1257546727448702,-2.55168237863183
1789799643594183400,1.472183349609375,-0.7583200481694191,0.0837143482580781,-2.0511188750922678
1789799643604154400,1.482154296875,0.11563012021780013,0.29171178652793167,-2.533426590973139
1789799643614126300,1.492126220703125,0.009240268162637948,-0.5093506211072206,-5.815395421010256
1789799643624097300,1.50209716796875,-0.4263106649793684,-0.6433265453547239,-6.02339110571444
1789799643634069500,1.512069580078125,-0.9618249242603778,1.6905410576090216,0.017464929541945458
1789799643644040400,1.52204052734375,-3.3611388128638264,4.989799168360233,9.939420640110969
1789799643654011400,1.532011474609375,-4.254896163070201,5.685803410935401,11.195466995632648
1789799643663983400,1.5419833984375,-3.0425813972473144,4.219019963046908,6.005968261748552
1789799643673954600,1.55195458984375,-1.7781018521621823,2.1788385154239833,1.1014005682110786
1789799643683926300,1.56192626953125,-1.2161829855583608,1.992123811418563,-1.9521552275151013
1789799643693897500,1.5718974609375,-1.2740949301704763,1.7596651549786329,-3.9702334182709453
1789799643703868400,1.581868408203125,-2.6074212169885636,0.5799957905642688,-4.197905863347649
1789799643713840400,1.59184033203125,-3.1100083353102206,0.8996377865470945,-2.943207999825477
1789799643723811300,1.601811279296875,-1.7178303388118743,0.5692912950679659,-0.17905483690202234
1789799643733783600,1.611783447265625,1.4869186195529998,-0.7481954714529215,5.73053044141233
1789799643743754500,1.62175439453125,3.9504058512508866,-1.0197064737342298,9.903198987650871
1789799643753725400,1.631725341796875,4.5456303367376325,-1.7189980674169956,12.262367912870644
1789799643763697400,1.641697509765625,3.0163030466526743,-2.7086072167903184,10.461735372209548
1789799643773668600,1.651668701171875,-0.2460416299819946,-5.127592605069279,5.2116953681230545
1789799643783640300,1.661640380859375,-2.1711109899118544,-6.824700473847985,1.0398036514759064
1789799643793611500,1.671611572265625,-1.060417984959483,-7.316825819388032,-1.2221586989670992
1789799643803583500,1.68158349609375,0.4825941316068172,-6.559054564207792,-4.2391538195371625
1789799643813554400,1.691554443359375,2.582174839790165,-4.363096425548195,0.2933873185247183
1789799643823525400,1.701525390625,3.4758591247603294,-1.5881401290595532,3.2401053722977635
1789799643833497600,1.71149755859375,2.7719185362279415,0.8213809730425476,6.375459161266684
1789799643843468500,1.721468505859375,0.7764229102887212,2.5859882605984805,8.792956356814503
1789799643853440500,1.7314404296875,-0.9911712841235101,3.2555791280224917,9.46738355835378
1789799643863411500,1.741411376953125,-0.9556745849370956,2.929611436149478,7.895394938150048
1789799643873382400,1.75138232421875,-0.7627285853266715,0.7953650727763771,3.7209389239728448
1789799643883354400,1.761354248046875,0.34426936450004575,-0.6162003457590938,1.9035311895996332
1789799643893325300,1.7713251953125,1.16559159309268,-2.167175696289539,1.579169471618533
1789799643903297500,1.781297607421875,0.16290055156722663,-3.1670944966226813,0.881888633236289
1789799643913268200,1.791268310546875,-0.7179612228393554,-2.4630755821570753,1.947647979223728
1789799643923239400,1.801239501953125,-0.6726103613756597,-1.8320985230267046,2.802974768748879
1789799643933211400,1.81121142578125,0.6983119349956513,-2.4285898135788737,-0.2454103463411331
1789799643943182600,1.8211826171875,3.1410905790552497,-3.4605724160403013,-4.877972532078624
1789799643953154300,1.831154296875,10.77169563987255,-2.0119773896627127,-2.6606425195664167
1789799643963125500,1.84112548828125,-0.4946449271455407,0.7489334303386509,-5.166795903688669
1789799643973096400,1.851096435546875,-4.843508829201758,4.1792239592313765,-10.565448260140418
1789799643983068400,1.861068359375,-5.32884524525404,6.521916965946555,-5.4575505356222385
1789799643993039400,1.871039306640625,-2.344895777456462,7.281627080234885,-3.8473271695703266
1789799644003011600,1.881011474609375,-1.0965890762761235,6.421228394272923,-3.331238180118799
1789799644012982300,1.890982177734375,-2.165436451406777,6.042926411789655,-0.37467911581099034
1789799644022954500,1.90095458984375,-2.993893938706815,5.313844075477123,-1.1046604467898606
1789799644032925400,1.910925537109375,-2.954669889560342,3.4380835208564995,-2.071502906951308
1789799644042896400,1.920896484375,-1.7118626625791191,2.6935432109102604,-2.7966736227780578
1789799644052868400,1.930868408203125,-1.331690794570744,2.483848905594647,-4.14132005277276
1789799644062839600,1.940839599609375,-1.5928642349720001,2.928831099426746,-5.219525038835406
1789799644072811300,1.950811279296875,-1.9567071917310357,3.652254679325223,-5.759066800066829
1789799644082782500,1.960782470703125,-1.9954674227580427,1.983747905000299,-5.95714665543437
1789799644092753400,1.97075341796875,-2.865833668243885,0.521914334604144,-5.516608289268612
1789799644102725600,1.9807255859375,-2.6776979915246364,-1.4980167905420063,-5.021964238905906
1789799644112696300,1.9906962890625,-1.0845406188249587,-4.172099806439876,-3.3824218393892047
1789799644122668500,2.00066845703125,0.5304802106365561,-6.462037959045172,-3.0341385630726814
1789799644132639500,2.010639404296875,2.680297068107128,-8.133736661279201,-4.065703963035345
1789799644142611500,2.020611572265625,0.879417566947639,-4.110733775851131,-11.576196497523783
1789799644152582400,2.03058251953125,2.5685014114856717,-5.451626990792155,-3.985875224038958
1789799644162553300,2.04055322265625,6.932420259332656,-2.8159830111429094,0.3564502161592245
1789799644172525300,2.050525390625,5.498628980463743,-2.5108579085513947,3.5221950517386196
1789799644182496300,2.060496337890625,3.731712539182603,-1.0561387002050877,6.738996120816469
1789799644192468500,2.070468505859375,1.7247484476372599,-0.7999320884309709,5.582462863448262
1789799644202439400,2.080439453125,2.527967448784411,-0.6689880792252719,1.8459797488629817
1789799644212410400,2.090410400390625,0.9775424256131052,-1.83694201753512,2.923588522598147
1789799644222382300,2.10038232421875,1.4346984568417072,-1.2957786464512346,-2.996640899327397
1789799644232353500,2.110353515625,2.233090768484771,1.6608111052557826,1.351983933275938
1789799644242325200,2.1203251953125,8.80294174425602,-3.0335663161426782,-2.0576725345194338
1789799644252296400,2.13029638671875,9.228174404740333,-5.167926369023323,-2.073939194187522
1789799644262268400,2.140268310546875,6.395419999277592,3.8875571808889506,-10.968868901789188
1789799644272239400,2.1502392578125,3.1534792282462116,-0.4214844138666987,-9.750751587167382
1789799644282210300,2.160210205078125,0.941826092326641,-3.135710639582574,-4.383944567787647
1789799644292182500,2.1701826171875,-2.491040570664406,-1.344932261198759,6.5998343183636665
1789799644302153500,2.180153564453125,-2.443564533740282,2.700343538574874,13.881230512452126
1789799644312125400,2.19012548828125,-3.9332302600443363,5.229299998396635,15.916264514183997
1789799644322096400,2.200096435546875,-2.245857018816471,2.9231404865697024,6.956587316861748
1789799644332067600,2.210067626953125,0.7337573423862457,-1.8108724873855708,-1.8230705824404954
1789799644342039300,2.220039306640625,1.7630290784537792,-4.9481625051140785,0.3977753292381763
1789799644352010500,2.230010498046875,2.6413959673047063,-5.92012537702918,-0.17409458414614198
1789799644361982500,2.239982421875,2.4884967314004895,-5.8885068344503635,-0.9416729475915432
1789799644371953400,2.249953369140625,1.3244295713961123,-5.714724384993314,0.3457458667933941
1789799644381925400,2.25992529296875,-0.4495230155995115,-5.570712804421782,0.9757815534204244
1789799644391896600,2.269896484375,-1.3095078965961933,-4.664430319163203,-0.7812234424382448
1789799644401867300,2.2798671875,-1.038756188249588,-4.855633274498581,-1.6799930678486823
1789799644411839500,2.289839599609375,-0.17229834837913513,-4.981709385406971,-0.6838344968318939
1789799644421810400,2.299810546875,-0.0009866775163682178,-3.8926860682100055,0.5239689290463924
1789799644431782400,2.309782470703125,-0.2886497686088085,-3.047826312163472,2.2006500958681103
1789799644441753300,2.31975341796875,0.08617782489531672,-3.501580133733153,1.525548940590024
1789799644451725600,2.3297255859375,0.1385141521990299,-4.027851494503021,1.2058072836250067
1789799644461696500,2.339696533203125,-0.8332593346238136,-1.0119424156039953,2.7528222060918806
1789799644471667500,2.34966748046875,-2.4945184759080408,0.9655290394753218,4.732147180083394
1789799644481639400,2.359639404296875,-3.171789960962534,-0.431250897860527,2.669323838672042
1789799644491610600,2.369610595703125,-0.14017295225672424,-0.7747787963435053,0.5440677142232656
1789799644501582300,2.379582275390625,1.511578282904625,3.943390711791813,-4.079567068693041
1789799644511553500,2.389553466796875,2.2104934444904325,6.709106009465455,-7.359494163769483
1789799644521524500,2.3995244140625,1.5296493616461753,7.1656082529604435,-6.511237751021981
1789799644531496400,2.409496337890625,0.15341354210190475,4.316227122345566,-4.429512725263834
1789799644541467400,2.41946728515625,0.06282565481252968,-1.7691098596721886,-3.6330233246326444
1789799644551439600,2.429439697265625,-1.7070318814218044,2.8268782069057226,-0.12288695947825908
1789799644561410300,2.439410400390625,-0.8260920002777129,5.394892127135396,0.15266484262645244
1789799644571382500,2.449382568359375,-0.17623225376196205,3.7895331522494553,-1.1389818185865879
1789799644581353500,2.459353515625,-0.3468927718061954,0.378348159712553,0.014881342789530754
1789799644591324400,2.469324462890625,-0.20980010377764702,-2.4318916316032406,1.2585650603443383
1789799644601296400,2.47929638671875,0.29274843609929085,-3.892179872253537,1.3665320985883473
1789799644611267300,2.489267333984375,-0.038010289442539216,-3.5315070699632165,1.496726750731468
1789799644621239300,2.4992392578125,-0.4211586159784347,-0.9073205961346625,-0.7490577873706817
1789799644631210200,2.509210205078125,-0.05607552296519279,9.68374375129938,-1.0780103402733803
1789799644641182700,2.5191826171875,2.156933703738451,15.35616278000474,-0.6231646318137646
1789799644651153700,2.529153564453125,0.5297942741990089,11.817987484323977,-2.4480887331664563
1789799644661124600,2.53912451171875,-1.4031974031627177,10.872130529046059,-1.717519373166561
1789799644671096600,2.5490966796875,-1.9686299769759177,7.063173714402318,-1.655983246707916
1789799644681067800,2.55906787109375,0.1858673664610833,3.8892005641818046,-0.5219546666145325
1789799644691039500,2.56903955078125,4.397835145974159,2.23097567602694,1.1755769805341958
1789799644701010700,2.5790107421875,6.3707286256134505,1.7187907082766294,1.424299227902293
1789799644710981600,2.588981689453125,6.151786014959216,4.2939556693047285,1.356006612920761
1789799644720953600,2.59895361328125,3.8792286207437514,5.1358782028555865,3.7695004180461167
1789799644730924500,2.608924560546875,0.29408107294254004,1.0282850631177425,4.049400478488207
1789799644740896800,2.618896728515625,-6.848872207552194,-1.352752579560876,0.7043529687255621
1789799644750867700,2.62886767578125,-5.210293100109696,-2.938214429321885,-0.23201310462951658
1789799644760839700,2.638839599609375,-2.1620424250543118,-2.691089680278301,1.8908055635392664
1789799644770810600,2.648810546875,1.078286819127202,-0.9322130453288554,-0.45338791086673735
1789799644780781800,2.65878173828125,0.5577712454050779,-1.4547335291326045,-4.803369418776035
1789799644790753500,2.66875341796875,-0.12318444458749145,-1.3642512941747904,-4.004277726691961
1789799644800724700,2.678724853515625,-1.3922107297241686,-0.7859931410580873,-0.5577466954857111
1789799644810696700,2.68869677734375,-2.9129145683705806,-7.016807684546708,5.228738272860646
1789799644820667600,2.698667724609375,-1.178909339827299,-16.648467028343678,10.446861628204584
1789799644830639600,2.7086396484375,2.59951965008378,-18.889741395545006,8.377845861893892
1789799644840610800,2.71861083984375,5.373261894607544,-8.968407616266608,-4.997900641751289
1789799644850581800,2.728581787109375,0.7562590970516204,-4.952521869367361,-11.722951239323615
1789799644860553700,2.7385537109375,-2.420764672911167,-5.7698962371170515,-11.481754126763343
1789799644870524700,2.748524658203125,-2.254825922691822,-4.484442000803351,-6.978895594781637
1789799644880496600,2.75849658203125,-1.7052724705338478,-3.30715938539505,-1.4662947875887156
1789799644890467600,2.768467529296875,-0.6755132432103157,-2.986129442185163,1.0726689792454243
1789799644900438800,2.778438720703125,-0.03642970572020858,-2.461329907533526,2.851236403092742
1789799644910410800,2.78841064453125,0.0942949981790036,-2.492032504311204,4.089146797943115
1789799644920381700,2.798381591796875,0.8572750009834766,-2.921319408622384,3.857824598187208
1789799644930353700,2.808353759765625,1.4884733016490936,-2.558310272338986,3.3141426684111357
1789799644940324900,2.818324951171875,1.380899062114954,-0.7772288198441266,3.5299762071341276
1789799644950296600,2.828296630859375,0.743529379338026,1.7095891646891832,4.292006288802623
1789799644960267800,2.838267822265625,0.10019282404594122,2.8373201059430837,4.167817014554143
1789799644970238700,2.84823876953125,0.05595982416365295,2.3717887528181074,2.744890244048834
1789799644980210700,2.858210693359375,-0.00597264466881752,2.2273235832601785,1.3413666776716708
1789799644990181600,2.868181640625,-0.1779086990742013,2.078883080330491,0.0008867197066545486
1789799645000153900,2.87815380859375,-0.5426093321084976,1.7819827852487562,-1.6348539494395256
1789799645010124800,2.888124755859375,-1.3143839781999587,0.6748895583540201,-1.1986802082240582
1789799645020096800,2.8980966796875,-0.43805940883159633,-1.18642336871922,-0.33130349994301794
1789799645030067700,2.908067626953125,2.570326288825273,-2.850935958841443,-0.7171756254196167
1789799645040038700,2.91803857421875,3.697083416610956,-2.7693770350515843,-0.2507534609347582
1789799645050010600,2.9280107421875,2.323896536308527,-1.6357289787083864,0.8291273493856192
1789799645059981600,2.937981689453125,1.2884534181296825,-1.107647353646159,0.9437164361178875
1789799645069953800,2.947953857421875,0.3071697601616382,-0.7542804904550313,0.35952304773330684
1789799645079924500,2.957924560546875,-0.500957471293211,-0.20757424442172048,-0.23173078055679797
1789799645089896700,2.967896728515625,-1.2705717244803905,0.35946342650055885,0.6638426791608333
1789799645099867600,2.97786767578125,-1.2405015803873538,0.6477788485884666,2.782766093456745
1789799645109838800,2.9878388671875,0.7495383374292403,0.37595863422751424,3.5638913362175226
1789799645119810600,2.997810546875,2.36147077242136,-0.241533212646842,2.687593070334196
1789799645129781800,3.00778173828125,1.6108406211674213,-0.5958300501644611,1.46309686833024
1789799645139753500,3.01775341796875,-0.47688452178835866,-0.3550251517921686,-0.651989159759879
1789799645149724700,3.027724609375,-2.278873153233528,0.2801426370263099,-1.3130617896854877
1789799645159696600,3.037696533203125,-2.7991876514256,0.34046529604196546,-0.7072516127765178
1789799645169667800,3.047667724609375,-1.35945879920125,-0.18016718205809593,-0.5292337177067995
1789799645179638500,3.057638427734375,0.7449381501574068,-0.18046470369994638,-0.6278413914531469
1789799645189610800,3.06761083984375,2.296741987401247,0.269217338386178,-0.6044505789935588
1789799645199581700,3.077581787109375,1.352889942204952,0.7904372609853744,0.23282909718751907
1789799645209553700,3.0875537109375,-1.5255553703308105,0.520993128105998,1.558240665358305
1789799645219524600,3.097524658203125,-2.221994497191906,0.20365385610759257,2.8403081818431613
1789799645229496800,3.107496826171875,-0.686734967513755,-0.1343190385967493,3.5957214757204055
1789799645239467500,3.117467529296875,0.5027016846120357,-0.19878245067894457,3.232488467553258
1789799645249438700,3.127438720703125,-0.3016601298946887,-0.29517420194149013,2.35673380702734
1789799645259410700,3.13741064453125,-1.6427414878189563,-0.2842804674834013,1.495218099734187
1789799645269382000,3.1473818359375,-1.500166077530384,0.24008301383852956,1.0505886648625136
1789799645279353600,3.157353515625,-0.08946334023885429,1.1212895100295543,1.4912866055041551
1789799645289324800,3.16732470703125,1.1314379790782927,1.2979402083992957,1.873676734083891
1789799645299296500,3.177296630859375,1.5409247888982296,0.5522980746909976,1.3897393711745738
1789799645309267700,3.187267822265625,1.249307987177372,-0.01288636958003044,1.2139181093662976
1789799645319238700,3.19723876953125,0.8599193780124187,-0.23229367513656615,1.7027607799738644
1789799645329211000,3.2072109375,1.1302654281675815,-0.769887517170608,1.6244453681498765
1789799645339181600,3.217181640625,1.3522621656954288,-1.5953499143078922,0.7819061640053987
1789799645349153800,3.22715380859375,0.608818126553297,-2.1444857255756853,0.1664133819937706
1789799645359124700,3.237124755859375,-0.07450082197189331,-2.299432541659474,-0.5181605350285768
1789799645369096700,3.2470966796875,-0.40801133043989535,-1.757592732618749,-1.0073001427561044
1789799645379067600,3.257067626953125,-0.8915395280264318,-1.0256754651412368,-1.211627368080616
1789799645389038600,3.26703857421875,-0.6622374359212816,-0.5498536041483283,-0.9153981041282415
1789799645399010600,3.277010498046875,0.27748057821020483,-0.3237152367711067,-0.2627197930604219
1789799645408981500,3.2869814453125,0.9834310452602804,-0.33196430193930865,1.09168113822937
1789799645418953700,3.29695361328125,1.2203669932447374,-0.46761897305399175,2.6097055285334587
1789799645428924700,3.306924560546875,1.4836463198840617,-0.9650029697746038,3.279730695721507
1789799645438896600,3.316896728515625,1.4462835345648228,-1.7678674583956597,3.0441888324439526
1789799645448867600,3.32686767578125,1.122506557669118,-2.477194123880565,1.4857763176500796
1789799645458839600,3.336839599609375,0.9256361511565744,-1.9133552489995955,-0.471484708571434
1789799645468810500,3.346810546875,0.8427354573689401,-0.10318272657692432,-0.9436948088079691
1789799645478781700,3.35678173828125,1.1200338108800352,-0.0022813889354467392,-1.026516299879551
1789799645488753700,3.366753662109375,0.49185515029653903,-0.6995365083545446,-1.0900900696456433
1789799645498724600,3.376724609375,0.459303418520838,-1.0443616070412098,-1.6036656149715185
1789799645508696600,3.386696533203125,1.0605975793100892,-0.9388727954789996,-2.357104978427291
1789799645518667800,3.396667724609375,1.3277252519406377,-0.9389731871135533,-3.43705710041821
1789799645528639500,3.406639404296875,2.4733880095958707,-1.488114405208826,-5.143385802006721
1789799645538610700,3.416610595703125,3.262352275419235,-1.6935292796395718,-6.043879766991735
1789799645548581600,3.42658154296875,2.742963367639482,-0.6636522711552679,-5.402253011292219
1789799645558553600,3.4365537109375,2.630880418509245,-0.01705868682861328,-5.362201571410894
1789799645568524500,3.446524658203125,2.1749917768679556,0.7309560212299228,-4.629366604566574
1789799645578496800,3.456496826171875,1.2513783637106417,1.981112880321592,-2.347906941971183
1789799645588467700,3.4664677734375,0.5635631266795098,2.33285170391947,-0.41386780138313767
1789799645598439700,3.476439697265625,-1.016054380967468,1.2778336783073843,0.21886194663345812
1789799645608410600,3.48641064453125,-2.1899067296661436,-0.965213397654891,-1.150449553540349
1789799645618381800,3.4963818359375,-1.0870612233437598,-2.0184246661059557,-1.870511548051238
1789799645628353500,3.506353515625,0.04290039957165718,-1.3130115208029747,-1.845268385723233
1789799645638324000,3.516323974609375,1.0154150601506233,-0.004264963968098163,-1.8291788361877201
1789799645648296000,3.5262958984375,0.9899848508179188,1.075905915340036,-1.4293150102376937
1789799645658267100,3.53626708984375,0.4488800780534744,0.9347725205533206,-1.558850321689248
1789799645668238800,3.54623876953125,-0.15760361420288682,0.17029212312325834,-3.071131199905276
1789799645678210000,3.5562099609375,-0.44845571516156196,0.3369162252582609,-3.917596053060889
1789799645688181800,3.566181640625,-0.17777298039793968,0.6892731807544827,-4.727276359176636
1789799645698153000,3.576153076171875,0.40280674753412604,0.6074779639907181,-5.815422893539071
1789799645708124000,3.5861240234375,1.5430255605697631,0.4424931534953415,-6.787083567637205
1789799645718096100,3.59609619140625,2.347750728496164,0.9343852748014032,-5.541931531095504
1789799645728066800,3.60606689453125,1.7295147852562367,1.3965600109748542,-3.0974077969342466
1789799645738039000,3.6160390625,-0.4281332042314112,1.1804423946134746,-1.3693705368846654
1789799645748010000,3.626010009765625,-1.1412265287734566,0.2563257081091404,-1.9088760577589272
1789799645757982000,3.63598193359375,-0.8155038977026939,-0.7284967915095388,-3.4891625507086514
1789799645767953000,3.645952880859375,-0.01543137788772583,-0.9091825906142592,-4.392303230810165
1789799645777923800,3.655923828125,-0.9143442111611366,-0.2772954309016466,-3.4764375091701742
1789799645787895800,3.665895751953125,-1.464779122328758,0.644997401176393,-1.5299679260760546
1789799645797866800,3.67586669921875,-1.2398714657902716,1.5868828224748373,0.9162748869627714
1789799645807839000,3.6858388671875,-0.8345160566866398,1.933727882681787,3.1835230688542127
1789799645817810000,3.695809814453125,-0.8748597575128078,0.99047672598809,3.7913790723770853
1789799645827782000,3.705781982421875,-1.0178572656709701,-1.050692125236988,2.5270728380322454
1789799645837752800,3.7157529296875,-0.8504208973050117,-2.8157199762925504,2.0531027423858643
1789799645847724800,3.725724853515625,-1.0074714076697826,-3.448582995299995,1.8649568365335463
1789799645857695700,3.73569580078125,-0.7894611094295978,-3.281642666822672,0.3278676802754402
1789799645867667000,3.7456669921875,-0.29587679725289345,-2.33798994359076,-1.2561995002567767
1789799645877639000,3.755638916015625,-0.2835819272926077,-0.8974304857611656,-2.032263367974758
1789799645887609900,3.76560986328125,-0.38134438238646834,0.4414899678021669,-1.8754232854902744
1789799645897581800,3.775581787109375,-0.22910452370643614,1.0824486149817705,-1.4002531664043665
1789799645907553000,3.785552978515625,0.006260247704852372,0.9461758119687438,-0.9112877461999654
1789799645917524700,3.795524658203125,0.11374914704309776,0.4608095853000879,-0.21006372314989566
1789799645927496000,3.805495849609375,0.16139233896136282,0.07564063965678215,0.2867383820295334
1789799645937468000,3.815468017578125,-0.13070377070903777,0.4376636875122785,1.1844926929175854
1789799645947438800,3.82543896484375,0.17210077998042106,1.2284721198976039,0.8940630551546812
1789799645957409800,3.835409912109375,0.6908160262823104,1.4776356812924145,0.20680442909300326
1789799645967382000,3.845382080078125,-0.45589667881727214,0.6978039854735135,0.630476416131854
1789799645977353000,3.85535302734375,-1.2093272744446992,-0.7146972526073455,1.5523340716630218
1789799645987325000,3.865324951171875,-0.15287061259793117,-2.5077462062716482,2.6841478983163833
1789799645997295900,3.8752958984375,0.9553998596489429,-3.8922009150415655,3.670090780267119
1789799646007267800,3.885267822265625,0.5686982610782608,-3.7950609757602214,3.3888585944384335
1789799646017238800,3.89523876953125,-0.13601826199637726,-2.270370697826147,1.9967770440518855
1789799646027211000,3.9052109375,-0.6206155318528414,-0.6399240434348583,0.9069827424824237
1789799646037182000,3.915181884765625,-0.054524201869964595,0.550616697475314,0.19254326402842997
1789799646047153000,3.92515283203125,-0.2949322098791599,1.2323217810630798,-0.35514556330144403
1789799646057124900,3.935124755859375,-1.2112515205055474,1.559665145203471,-1.1530366474241018
1789799646067096000,3.945095947265625,-0.6321130774229765,1.1996247955977917,-1.7275445080965757
1789799646077067800,3.95506787109375,0.3332072877377271,0.28238603203892704,-1.7161276265472172
1789799646087039000,3.9650390625,0.20199907463788985,-1.2476409307479859,-0.6408838283777236
1789799646097011000,3.975010986328125,-0.23410689857099204,-3.1782974431604143,2.116761267825961
1789799646106982000,3.98498193359375,-0.1365016798654571,-4.354200586909055,4.547510159134864
1789799646116953900,3.994953857421875,-0.5492290790418163,-4.402944451811909,5.42347583206296
1789799646126925000,4.004925048828125,-1.167974688836932,-3.7887475548297163,5.288704373523593
1789799646136896000,4.01489599609375,-1.2327478975206614,-3.061099635234475,4.840106619542837
1789799646146868000,4.024867919921875,-1.106329256784916,-2.516058692064881,4.510350349041819
1789799646156839000,4.0348388671875,-0.32731296900212764,-1.8196312556415795,4.377379217922687
1789799646166811000,4.044810791015625,0.6687871498256921,-0.666816142013669,3.865931916797161
1789799646176781800,4.05478173828125,0.18879764775931834,0.7053589308977126,3.2415795365035533
1789799646186754000,4.064754150390625,-0.8311357665985822,2.1101357122063638,2.4788006822943687
1789799646196725000,4.07472509765625,-0.7949789960682392,2.783513696953654,1.0555512557059525
1789799646206697000,4.084697021484375,-0.5987333703905343,2.799880894386768,-0.16820143445432184
1789799646216668000,4.09466796875,-0.5157593191057444,2.4553911651343108,-0.36479251256883144
1789799646226639000,4.10463916015625,-0.4185328705847263,1.7454530897527931,0.469567476773262
1789799646236610800,4.11461083984375,1.1244447591900826,0.28293022191822526,1.3320160810023545
1789799646246582000,4.12458203125,2.2424410728931425,-0.8659954830557107,2.6440415133774278
1789799646256554000,4.134553955078125,3.307781316685676,-2.3303929125905034,2.2983768951267
1789799646266525000,4.14452490234375,2.4753134247004986,-3.037094490268826,1.8274930750578642
1789799646276497000,4.154496826171875,0.5193529596835375,-2.1487895602494476,1.598444665452838
1789799646286468000,4.164468017578125,-0.9637509238868951,-0.8700824601083993,1.0751251402258872
1789799646296439800,4.174439697265625,-1.633144807434082,0.3318891908764839,0.5288000024646521
1789799646306411000,4.184410888671875,-1.7344862900584934,1.1427829644352197,-0.255962720015645
1789799646316382000,4.1943818359375,-1.6420283711135386,1.6388678612560033,-1.1401052696585654
1789799646326354000,4.20435400390625,-1.6563596788048742,1.6906255210220813,-2.218973103544116
1789799646336324900,4.214324951171875,-1.310132750496268,1.330221014279127,-3.046805736944079
1789799646346297000,4.224297119140625,-1.0412211170583963,0.8432423839777707,-3.178279907503724
1789799646356268000,4.23426806640625,-0.6831359931737184,0.05581248811483383,-2.9764333930790423
1789799646366240000,4.244239990234375,-0.38346915598809717,-0.6777385180443525,-2.465373629966378
1789799646376211000,4.2542109375,0.12113280928730964,-1.0350380445092915,-1.529758082717657
1789799646386183000,4.264182861328125,0.3787795368671417,-1.3731009555846452,-0.2537707629293203
1789799646396153900,4.27415380859375,1.0279238285899162,-2.3694635247409344,0.16909399937987327
1789799646406124800,4.284124755859375,0.23965339024960994,-3.3587411040723323,1.4611287831276654
1789799646416097000,4.294096923828125,-1.3347235863953828,-3.3673663090765475,4.96524223473072
1789799646426067700,4.304067626953125,-1.219846330371499,-2.348221414747834,7.242512628942728
1789799646436040000,4.3140400390625,-0.31268121705949303,-0.9411030387490987,7.45868109870851
1789799646446011000,4.324010986328125,-0.30729017167091366,-0.0005237316131591796,7.206987726575136
1789799646455982800,4.33398291015625,-1.9338561852365732,0.514881367227435,6.511539364317059
1789799646465953800,4.343953857421875,-2.7282752093344924,0.4654974508553743,4.671489590024948
1789799646475926000,4.353926025390625,-2.323122044804692,0.011027005448937416,2.6171482457548376
1789799646485896700,4.363896728515625,-1.9992314514666794,-0.2802005046933889,1.7399492316395044
1789799646495869000,4.373868896484375,-1.6179811405718325,-0.7788128741651773,1.4418541738152504
1789799646505839900,4.38383984375,-0.866157395619154,-1.232367958292365,1.3147457972496748
1789799646515811000,4.39381103515625,-0.1188555120050907,-1.4923302693381906,0.9257581701010466
1789799646525782800,4.40378271484375,0.3909001827716827,-1.9819301880538462,-0.2587438751667738
1789799646535754000,4.41375390625,0.3617114976882934,-2.3738220122113822,-1.1829314349502325
1789799646545725700,4.4237255859375,0.42180853125452994,-2.4140906019747255,-1.1968874795883893
1789799646555697000,4.43369677734375,0.6271113236129283,-2.4403864882260558,-1.0517641383826732
1789799646565668900,4.4436689453125,0.7818120559811592,-2.4513427665263414,-1.296333942246437
1789799646575640000,4.45364013671875,0.051427368365786964,-2.3940514380306004,-1.6674650101870296
1789799646585611800,4.46361181640625,-0.5506265978148207,-1.7267787844210862,-1.4249281734555959
1789799646595583000,4.4735830078125,-0.32947745355963703,-1.1927411735638975,-0.9885434198379516
1789799646605554000,4.483553955078125,0.05389288169648498,-0.9535466329976916,-0.4701128356963396
1789799646615526000,4.49352587890625,-0.0181423538794741,-0.8167185341894626,0.4233908320099115
1789799646625496800,4.503496826171875,-0.17716040145754813,-0.9331777987077832,1.1327397093266247
1789799646635468800,4.51346875,-0.16545589860584586,-1.5788196352675556,1.246142801144719
1789799646645439700,4.523439697265625,-0.1772586011350155,-2.110098887327313,1.1125795493513344
1789799646655411700,4.53341162109375,-0.6571416471522301,-2.254305698210001,0.5409533815950155
1789799646665382700,4.543382568359375,-0.8151216203868389,-2.006064366226643,-0.005973813712596893
1789799646675354600,4.553354736328125,-0.4996130709469318,-1.7554511905454098,-1.009594975695014
1789799646685325600,4.56332568359375,-0.2756044090747833,-1.2991684350199997,-1.5845529182225464
1789799646695297800,4.5732978515625,0.16468677739687262,-0.8780560693360865,-1.7224539069592952
1789799646705268700,4.583268798828125,0.3660919047296047,-1.2577809242293239,-2.4538205548167227
1789799646715239700,4.59323974609375,1.235098260039091,-0.9506947506979108,-2.6059751098334787
1789799646725211600,4.603211669921875,2.506933720844984,-0.46643765431493517,-3.736619308185577
1789799646735182800,4.613182861328125,2.390899111479521,0.035461774003505704,-4.5015521255582565
1789799646745154600,4.623154541015625,1.144612956341356,0.336773455786705,-4.638030388015508
1789799646755125800,4.633125732421875,0.6490225650392473,0.45513314709886904,-4.797072364458441
1789799646765097700,4.64309765625,1.4237797340728342,0.537273670168966,-4.881441084972024
1789799646775068700,4.653068603515625,1.1146538714073597,-0.18287994814813135,-5.542974902668595
1789799646785040600,4.66304052734375,0.29620296046733857,-1.6055524516314268,-6.70620678089261
1789799646795011800,4.67301171875,0.0472704313494265,-1.3741536795079707,-5.9813955460280175
1789799646804983600,4.682983642578125,0.5600176360923796,0.10245718878135085,-3.7543823438912627
1789799646814954800,4.692954833984375,1.2002748570043593,0.8392306641183793,-1.702610557848215
1789799646824925700,4.70292578125,0.6546528260111808,0.4816735096305608,-1.6743676291823386
1789799646834897700,4.712897705078125,-0.7688647499941289,0.18789660726636648,-2.0311767417818305
1789799646844868600,4.72286865234375,-0.26942601270079614,0.37419805429577824,-1.6628385194301605
1789799646854840800,4.7328408203125,-0.181793321955204,-0.8759646500147878,-2.7555957624584435
1789799646864811800,4.742811767578125,-0.7048620142262428,-1.7193952500410377,-2.4608260496646164
1789799646874783700,4.75278369140625,-0.04675590595602989,-0.8276860645361244,-1.9543711499989032
1789799646884754700,4.762754638671875,-0.19166129356212913,-0.43802170716971156,-2.5093179856330154
1789799646894726700,4.7727265625,-0.8245839338023215,0.047585634778439995,-2.059751678881049
1789799646904697600,4.782697509765625,-1.0406161369025706,0.09387845326736569,-2.2301515001624823
1789799646914669800,4.792669921875,-1.489302153688669,0.34119287966415285,-2.496920276352763
1789799646924640800,4.802640869140625,-1.0446960266273468,0.30668153825327754,-3.467564466884732
1789799646934611700,4.81261181640625,-1.0984521667342633,-0.34854324242696166,-4.963831783410907
1789799646944583700,4.822583740234375,-0.7308078449308871,0.11761135716289281,-4.3997862800419325
1789799646954555000,4.832554931640625,-0.663437094034627,1.1149500778749584,-2.5733774930894375
1789799646964526600,4.842526611328125,-1.5678981360197066,1.1853674299255013,-1.5079437257945536
1789799646974497800,4.852497802734375,-1.3473767317414282,0.42038814306259153,-1.7125059289187192
1789799646984469800,4.8624697265625,-1.0212240386903286,-0.03748100487142801,-1.9692197595626115
1789799646994440700,4.872440673828125,-1.580176602834463,-0.2528404963418841,-1.717256338316202
1789799647004412700,4.88241259765625,-1.5069219815313815,-0.9632584641948342,-2.2682325167536734
1789799647014383900,4.8923837890625,-0.8448176704704761,-1.431009539195895,-2.5556261478215454
1789799647024355600,4.90235546875,-0.2579354813933372,-1.1875702006667852,-1.9979682996630668
1789799647034326800,4.912326904296875,-0.6462123299241066,-0.7320452777713536,-1.7312281650453805
1789799647044297700,4.922297607421875,-0.9758277306497096,-0.5537134944468737,-2.5146593466609715
1789799647054269700,4.932269775390625,-0.9346341349959373,-0.262173265093565,-3.1322160754650827
1789799647064240600,4.94224072265625,-0.9837661224335431,0.47063101435154675,-2.20650758972466
1789799647074212900,4.952212890625,-1.30216571713984,1.2211305249631403,0.7173416296362877
1789799647084183800,4.962183837890625,-0.6534919655382633,0.9130617701351642,2.871405915418267
1789799647094155800,4.97215576171875,0.6415063441902399,-0.36051001294404267,3.6458728693336244
1789799647104126700,4.982126708984375,0.5908201130479573,-1.8919681775778532,3.8168864385992287
1789799647114098700,4.9920986328125,-0.6661719988912344,-2.6998341277480122,4.811818098169565
1789799647124069600,5.002069580078125,-0.8220055346816778,-2.9587241333872076,5.467517802885174
1789799647134041900,5.012041748046875,0.17605156343281267,-2.797824546378851,5.6954287328928705
1789799647144012800,5.0220126953125,0.14472761988639832,-3.0063702661812304,5.4726405527263875
1789799647153983700,5.031983642578125,-0.11776947946720756,-3.4076018733531233,4.646384959384799
1789799647163955700,5.041955810546875,0.842547971972823,-3.271505303689837,3.5533693576812744
1789799647173927000,5.051927001953125,1.4901771829575299,-3.1479502356916664,2.5639362955272196
1789799647183898600,5.061898681640625,1.3835177201807498,-3.1108284195214506,2.3187124116688964
1789799647193869800,5.071869873046875,1.2688982383102179,-2.8209774584293363,2.4122873519450425
1789799647203841800,5.081841796875,0.6176075822085142,-2.3254998798519373,1.9729104307740926
1789799647213812700,5.091812744140625,-0.5052560452699661,-1.7163158425956964,1.9586936893731355
1789799647223784700,5.10178466796875,-0.25228783089518547,-1.1397153935581446,2.059745833662152
1789799647233756000,5.111755859375,1.1211024630248545,-0.4492103329211473,1.5770196001082657
1789799647243727600,5.1217275390625,1.5641232936561107,0.2853396211475134,1.1944459316551685
1789799647253698800,5.13169873046875,1.0441747061669826,0.9140414288222789,1.0405553466260433
1789799647263670800,5.1416708984375,0.1889852975522168,1.205694470900297,0.9184148216009139
1789799647273641700,5.151641845703125,-0.3655167351901531,1.7189222257018089,0.77069503416121
1789799647283612700,5.16161279296875,-0.19198621466755866,2.189528397873044,0.4026987571150064
1789799647293585000,5.1715849609375,0.21539516557203606,2.2829548695892092,-0.08513035253584385
1789799647303555800,5.181555908203125,0.34895372292399407,2.46626444132626,-0.34033670122623444
1789799647313527800,5.19152783203125,0.0234931037902832,2.6870383590608835,-0.30885435224771496
1789799647323498800,5.201498779296875,-0.7148445521235466,2.323653959724307,-0.14212415938973427
1789799647333470700,5.211470703125,-1.19987029479146,1.6712199788063764,0.6289268486022949
1789799647343441700,5.221441650390625,-1.2074223176062107,1.127962996444106,2.1663374918997285
1789799647353414000,5.231413818359375,-0.3312672961184755,0.38536008430123325,3.1614281414240595
1789799647363384800,5.241384765625,1.4841758967161178,-0.08690145386159419,2.2902929573923347
1789799647373356800,5.251356689453125,1.7499626761317253,0.08468494685590267,1.0178238748580217
1789799647383327700,5.26132763671875,0.28485622154474255,0.7393348502576351,0.471173158404231
1789799647393299700,5.2712998046875,-0.33300212055444717,0.7489367913395166,-0.032461423143744464
1789799647403270700,5.281270751953125,-0.463728103095293,0.12198796481192112,0.16069032817184925
1789799647413241600,5.29124169921875,-0.43843817901611326,-0.8889332910507917,1.4038450534164906
1789799647423213800,5.3012138671875,-0.16486322994232178,-2.0563193663448094,3.144426737740636
1789799647433184500,5.3111845703125,0.5450818597018718,-2.93361658013761,4.401934397986531
1789799647443156700,5.32115673828125,1.3293337100505829,-3.302386764165759,3.9835178472578523
1789799647453127700,5.331127685546875,0.8458218790769576,-2.8459119931995867,2.6515987968891856
1789799647463099600,5.341099609375,-0.010347206491231917,-1.873810589596629,1.1766694519460201
1789799647473070600,5.351070556640625,-0.8172153777956962,-0.7598135746628045,0.5294236873209476
1789799647483042800,5.361042724609375,-0.9081775052249431,0.11732348013222217,0.36815877413153647
1789799647493013500,5.371013427734375,0.05802314990162849,0.23120821798741817,0.20086217956244945
1789799647502985700,5.38098583984375,0.47153848458528513,-0.2565425657302141,0.483918658208847
1789799647512956700,5.390956787109375,0.14810382745438255,-0.9075549894124268,0.5589467189252376
1789799647522927900,5.400927978515625,-0.09667290629148483,-1.1863158166915178,0.7075748533815145
1789799647532899600,5.410899658203125,-0.015932906802231445,-0.9194400729954242,0.9010095132917165
1789799647542870800,5.420870849609375,-0.7105190901398658,-0.5828010572433472,0.5745359177231788
1789799647552842500,5.430842529296875,-1.9093033432602882,-0.08146130863428115,0.188768421664834
1789799647562813700,5.440813720703125,-1.7273416790008544,0.3827840963333845,-0.16451427037417887
1789799647572785700,5.45078564453125,-1.0459726954996584,0.8397808453470468,0.4158312104105949
1789799647582756900,5.4607568359375,-0.1336602824270725,1.1051602130055427,1.6808996612995861
1789799647592728600,5.470728515625,0.5451754197368398,0.7231511926978826,1.9999790549635885
1789799647602699800,5.48069970703125,0.24742457224037498,0.40259354317486284,0.9899678996831178
1789799647612671500,5.49067138671875,-0.317297186422348,0.34883155784904957,-0.4215355595320463
1789799647622642700,5.500642578125,-0.7264192545831203,0.5351899957627058,-1.001336850437522
1789799647632614700,5.51061474609375,-0.7275836221873759,0.43888709182739255,-1.1419143649071455
1789799647642586600,5.520586669921875,-0.5919359653353691,-0.02205050376653671,-1.014710711273551
1789799647652557600,5.5305576171875,-0.11662030029892921,-0.44147477023303505,-0.7632944025158882
1789799647662529800,5.54052978515625,0.3660790452480316,-0.5262333668470383,-0.5014490542024373
1789799647672500700,5.550500732421875,0.24183066122345626,-0.190152277238667,-0.21685119133293626
1789799647682472700,5.56047265625,-0.10747494387812911,0.0012464929297566413,-0.08246727080643176
1789799647692443600,5.570443603515625,0.10597031146883965,-0.47289194502085447,0.33577158526778217
1789799647702415600,5.58041552734375,0.3004137830954045,-1.3960676974132655,0.6637035629510879
1789799647712386600,5.590386474609375,0.4948199914515018,-2.4627894586920736,1.3091291264116762
1789799647722358800,5.60035888671875,0.2831400652766228,-3.157734255342185,2.3392104252964256
1789799647732329700,5.610329833984375,0.014802505399659275,-3.3191447144821282,3.2935417789310213
1789799647742301700,5.6203017578125,-0.4776502454638481,-2.9879163256019354,3.7433804728835818
1789799647752272600,5.630272705078125,-0.8831727547626942,-2.291887825368345,3.7398710034579037
1789799647762243600,5.64024365234375,-0.2490320439696312,-1.9513184844300149,3.079925331735611
1789799647772215600,5.650215576171875,0.8199053475320339,-1.8949255660787223,1.7318530189454555
1789799647782186500,5.6601865234375,0.7844563599448651,-1.9113705049231646,0.505399837654829
1789799647792158700,5.67015869140625,0.058178705789521334,-2.004459707508981,-0.18338555958271024
1789799647802129400,5.68012939453125,-0.28178163640499115,-1.985321291796863,-0.5663023423850536
1789799647812101600,5.6901015625,0.28137729338780043,-1.9676161237582563,-0.8607721954494715
1789799647822072600,5.700072509765625,1.1718356020487843,-1.8399059819072483,-1.3091326335430145
1789799647832044500,5.71004443359375,1.4278257945932447,-1.4409217152707279,-2.097921542799473
1789799647842015500,5.720015380859375,1.6683261570610104,-0.878827053708583,-3.0559044046789405
1789799647851987700,5.72998779296875,2.221362044507265,-0.5028232651650906,-3.480674123826623
1789799647861958400,5.73995849609375,2.321609886676073,-0.5358524051941931,-4.03046430734992
1789799647871930600,5.7499306640625,2.0248365789748726,-0.13946210057362912,-4.776143558198213
1789799647881901600,5.759901611328125,1.5029052932359277,0.6510542169973254,-5.884452006101608
1789799647891872800,5.769872802734375,1.7430805154025553,0.3989243531428277,-7.761217938372492
1789799647901844500,5.779844482421875,1.6273416741132736,-0.6069133158452809,-9.43006534282863
1789799647911815700,5.789815673828125,0.9516253095462918,-0.07206877251937985,-8.384966507554054
1789799647921787400,5.799787353515625,0.5317440930925309,1.2442131482563912,-4.4624832669734955
1789799647931758600,5.809758544921875,1.3895499860823153,0.5307635576225816,-2.4228958397209643
1789799647941730600,5.81973046875,1.6808755497716366,-0.6083649759583175,-2.813984238541126
1789799647951701800,5.82970166015625,0.7013220765970647,-0.31949776520654555,-4.643451244020461
1789799647961673500,5.839673583984375,-0.21814123114347456,-0.06970408921465278,-5.511621148505807
1789799647971644700,5.849644775390625,-0.805566002664715,0.16802417819127438,-4.149161998444796
1789799647981616400,5.859616455078125,-1.320465343940258,0.8290119063124061,-2.503343587398529
1789799647991587600,5.869587646484375,-0.8283317420285194,0.29893925356343387,-2.333062424060702
1789799648001559600,5.8795595703125,-0.45580432435870166,-1.0457634366631507,-3.486104332181811
1789799648011530800,5.88953076171875,-0.9023498219847679,-1.0789314006410538,-3.2802047429740426
1789799648021501400,5.89950146484375,-0.9103682932674885,-0.4260808017462492,-2.628216167736053
1789799648031473700,5.9094736328125,-0.9420563939511776,-0.41773660564050075,-2.574140878677368
1789799648041444600,5.919444580078125,-1.1460638858020304,-0.8566950091384351,-3.1666338933736085
1789799648051416600,5.92941650390625,-1.4746552041769028,-0.9643341306023299,-3.252135417309403
1789799648061387500,5.939387451171875,-2.0552152044951915,-0.6908541663356125,-1.0809271045029163
1789799648071359700,5.94935986328125,-2.207311307322979,-0.8702532866306603,1.406240424120426
1789799648081330400,5.959330322265625,-2.4249247152000666,-1.2915963923305271,2.312130110669136
1789799648091302700,5.969302734375,-2.6088667396217584,-1.6020286614194512,1.3874866238117218
1789799648101273600,5.979273681640625,-2.3716899686187505,-1.965354608567059,0.626750089085102
1789799648111245600,5.98924560546875,-1.6085364358782768,-2.122995778301358,0.7802952216774225
1789799648121216500,5.999216552734375,-1.0748732112914323,-2.43064309284687,0.9386334337651729
1789799648131188700,6.009188720703125,-1.4692670813977717,-2.56005623922348,1.4306933128535746
1789799648141159400,6.019159423828125,-1.6704834812253713,-2.6278724688649175,1.2324959685862065
1789799648151130600,6.029130615234375,-2.236742568990588,-2.9523887928858397,0.24294717109799382
1789799648161102600,6.0391025390625,-2.0481220313638446,-3.099147626338899,-0.31039749003648753
1789799648171073800,6.04907373046875,-1.1380045710522682,-2.6642680165871977,-0.6161626440972089
1789799648181045500,6.05904541015625,-0.9772703306734561,-1.8062647013291715,-0.839648158878088
1789799648191016700,6.0690166015625,-0.47230950549039985,-1.0048957119628787,-1.5766431680113075
1789799648200988400,6.078988525390625,-0.08580774034075439,-0.5630924404278397,-2.290522089973092
1789799648210959600,6.088959716796875,-0.1989770964682102,-0.28030864124298094,-2.377867780470848
1789799648220931600,6.098931640625,-0.42352125345654784,0.06150222418904304,-1.9376953250080347
1789799648230902800,6.10890283203125,-0.41163324726410205,0.11999006899297236,-1.912338180911541
1789799648240874500,6.11887451171875,-0.648379225634411,-0.04627133730947971,-2.4977421141296623
1789799648250845700,6.128845703125,-1.0068466268349439,0.07612871543467044,-2.8876567929953336
1789799648260817400,6.1388173828125,-0.693186774001643,0.6808090115308761,-2.371369650623202
1789799648270788600,6.14878857421875,-0.8718395329087972,1.4222504786789416,0.349960854139924
1789799648280759600,6.158759521484375,-1.2049328388780354,0.7861404405742883,3.64272989513278
1789799648290731800,6.168731689453125,-0.9982049821525811,-1.327615800216794,5.816031965348124
1789799648300702500,6.178702392578125,-0.7081756688188761,-2.809747623884678,6.892850465488434
1789799648310674700,6.1886748046875,-0.08893142531923949,-3.303179375848174,7.599980497711896
1789799648320645600,6.198645751953125,0.18435060522258281,-3.3004730394989252,7.404348620018363
1789799648330617600,6.20861767578125,-0.6403238564074039,-2.448358782279491,6.269449102309346
1789799648340588500,6.218588623046875,-1.3622107282578944,-1.6015549064278602,4.835546179759502
1789799648350560800,6.228560791015625,-1.3975637811899184,-1.3404939864903687,3.9736593010663985
1789799648360531500,6.238531494140625,-1.0329420220781118,-1.719809529930353,3.817759129780531
1789799648370503700,6.248503662109375,-0.7319675363600253,-2.2424726370751857,4.532792482474446
1789799648380474600,6.258474609375,0.08994385376479476,-2.380392330512404,5.214066188907623
1789799648390446600,6.268446533203125,0.8399357436478138,-1.3399410287827254,4.714332706451415
1789799648400417500,6.27841748046875,0.9282254369974136,-0.10071779776811599,3.65513169606626
1789799648410388700,6.288388671875,0.8498451432436704,0.415189405375719,2.1455343578457833
1789799648420360400,6.2983603515625,1.0090864416509866,0.5530260967046022,-0.060784431308507914
1789799648430331600,6.30833154296875,0.009835749837756156,0.8427595688968896,-0.976739000275731
1789799648440303600,6.3183037109375,-0.8708376623898744,0.9438228191018104,-0.1415863992512226
1789799648450274800,6.32827490234375,-0.773237119859457,0.6593862842738628,0.5023077168583869
1789799648460246500,6.33824658203125,-0.15081366180181502,0.0335492183804512,0.054281625285744664
1789799648470217700,6.3482177734375,-0.7641840448319912,0.19501169996857642,0.538113774254918
1789799648480189400,6.358189453125,-1.162629820677638,1.0098697009831665,0.8181734091728925
1789799648490160600,6.36816064453125,-0.8483119423270225,1.6163158377081155,0.18398703260719776
1789799648500132600,6.378132568359375,-0.052876434662938114,2.0768226406693455,-0.9385001627743244
1789799648510103800,6.388103759765625,1.0459428848832846,2.1537316928267476,-2.385979190734029
1789799648520075500,6.398075439453125,0.31170795158054676,2.2544553358137605,-2.3067092546641823
1789799648530046700,6.408046630859375,-0.6920599619287997,2.2364023772507906,-1.376782858967781
1789799648540017700,6.418017578125,-0.33129882376790043,1.4279460599720477,-1.1946212882220744
1789799648549989600,6.42798974609375,0.039581447749398646,0.518652702459693,-0.6327823549866676
1789799648559960600,6.437960693359375,-1.3221242170631884,0.21647417471408842,0.6319412279874086
1789799648569932800,6.447932861328125,-1.4139075977474451,-0.06480301930010318,1.114883734640479
1789799648579903500,6.457903564453125,-0.01369768596291542,-0.17291151184141634,1.2933464508682488
1789799648589875700,6.467875732421875,0.5289759435534477,-0.023604747471213338,1.7490934920817613
1789799648599846700,6.4778466796875,-1.607887032058835,0.4145452622532844,3.1729262715160846
1789799648609818600,6.487818603515625,-2.380667055800557,0.26880700401961805,4.315551415041089
1789799648619789600,6.49778955078125,-1.6577584396868943,-1.1038719267606734,5.057358792892098
1789799648629761800,6.50776171875,-0.35632516500744965,-2.4531939473509787,5.327328995472192
1789799648639732500,6.517732421875,-0.01410166365392506,-3.1576866168081756,3.7606659542053937
1789799648649704400,6.527704345703125,-1.1162404099464416,-2.1814982361525295,2.020088361534476
1789799648659675600,6.537675537109375,-1.8162714238196611,-0.7334943075358867,1.6438012260049581
1789799648669646600,6.547646484375,-1.3981909731775521,-0.6052420216321945,1.0490087021946906
1789799648679618600,6.55761865234375,-1.2975567620396613,-1.2492933741301298,1.8097674487531183
1789799648689589500,6.567589599609375,-0.17325170358121394,-1.9967203454285858,2.8939439104408025
1789799648699561500,6.5775615234375,1.9971686737179755,-1.888120854499936,2.917535213908553
1789799648709532400,6.587532470703125,2.5754268268346787,-1.3956331053882836,1.380089499297738
1789799648719504600,6.597504638671875,0.7777198182314634,-1.7474369570463895,-0.5913882683247328
1789799648729475600,6.6074755859375,-0.2091775879651308,-1.7437614834040402,-1.5237106192469596
1789799648739447600,6.617447509765625,0.2466518708348274,-1.4212187975436448,-2.434284664219618
1789799648749418500,6.62741845703125,0.30831133141219613,-1.2284782573774455,-2.5702923865556717
1789799648759390700,6.637390625,-0.050095864033699034,-0.9429431136578321,-1.1464274584174154
1789799648769361400,6.647361328125,0.3321042949318886,0.05358429067134857,1.7996493748426436
1789799648779333600,6.657333740234375,1.3624831154584884,0.5358998975977302,4.53556486979723
1789799648789304600,6.6673046875,2.099151376855373,-1.1075029767394065,3.4722540860056874
1789799648799276500,6.677276611328125,1.3680477638483046,-3.2265859655112026,-0.31109657821655273
1789799648809247500,6.68724755859375,-0.1151168734660372,-2.7245772315993904,-1.998551652508974
1789799648819218700,6.69721875,-0.35585108122229575,-0.4605059261783957,-2.3535189366340634
1789799648829190400,6.7071904296875,0.21592940031290053,0.7622533690303563,-2.1652526192724704
1789799648839161600,6.71716162109375,0.6118798522114753,0.860401900832355,-0.9027174862533808
1789799648849133600,6.727133544921875,1.1651075359027832,0.9375123207807541,1.6367641669750213
1789799648859104500,6.7371044921875,1.2104607354540378,0.9533888120874762,2.8856413615196943
1789799648869076500,6.747076416015625,1.1292401767730713,-1.0032707411095498,-0.264804782640934
1789799648879047700,6.757047607421875,1.2730210173286496,-3.3029733318820593,-4.821980011221767
1789799648889019400,6.767019287109375,1.0029705891191958,-2.543181676790118,-5.71588816807568
1789799648898990600,6.776990478515625,1.734762622781843,0.414792222751677,-3.071614014986157
1789799648908962600,6.786962646484375,2.439550914184749,1.6821020228266714,-1.4906646742135286
1789799648918933500,6.79693359375,1.8392181457735597,0.7626170877762138,-1.141363160765171
1789799648928905500,6.806905517578125,0.777366182488203,-0.5757039385892451,-2.198810605481267
1789799648938876700,6.816876708984375,0.422623354768753,-0.5520981682047248,-2.9515462045818563
1789799648948847600,6.82684765625,0.7991945679366588,-0.18217969092428682,-2.8847452894628045
1789799648958819600,6.836819580078125,1.1106069341041147,-1.6328402715295551,-4.473737651437521
1789799648968790500,6.84679052734375,0.995313498494774,-2.3877713348478076,-4.898033907854557
1789799648978762800,6.8567626953125,0.5003599437914789,-1.2187637958317994,-3.112653881382942
1789799648988733400,6.8667333984375,-0.11015431915521622,0.8257512970812618,0.248821616089344
1789799648998705700,6.87670556640625,0.478166962814331,0.4931706168092787,-0.17020634453594682
1789799649008676600,6.886676513671875,0.2863153343118727,-1.3182711948968469,-1.4983751024603842
1789799649018648600,6.896648681640625,0.45988896332383156,-2.4410807541005313,-1.1696996129333972
1789799649028619500,6.90661962890625,-0.19258476508259773,-2.497867201814055,-1.2595458880752324
1789799649038591700,6.916591796875,-0.668246467077732,-1.503382263097912,-1.443380360469222
1789799649048562400,6.9265625,0.30430341094508767,-1.9637224773205815,-2.774254285699129
1789799649058534700,6.93653466796875,0.538168134790659,-2.0663332492284474,-3.3683652569860216
1789799649068505600,6.946505615234375,-0.002168430080264807,0.12967018987759946,-2.01929808793962
1789799649078476500,6.9564765625,-0.3847872528493404,1.9047554706975816,-1.3679074785947798
1789799649088448500,6.966448486328125,-1.2817607886232434,1.0824999067775904,-2.8063363541364668
1789799649098419700,6.976419677734375,-1.092616519383341,-0.2467382339440286,-4.4021892495304344
1789799649108391400,6.986391357421875,0.4289512426160276,-0.5728539559856057,-5.189997915577888
1789799649118362600,6.996362548828125,0.3725883540768176,-0.05194879842400551,-5.301877158829569
1789799649128334600,7.00633447265625,-0.3813514331817627,0.5153736807890236,-5.05226410010159
1789799649138305800,7.016305908203125,-0.5453308660268783,0.7812868630632758,-4.941343472748994
1789799649148277500,7.026277587890625,-0.20219306284002958,0.6081079324573279,-5.288498621818423
1789799649158248700,7.036248779296875,0.33522812604084606,0.5652031489714979,-5.228780942958593
1789799649168220400,7.046220458984375,0.3735504771072417,0.8405462767615914,-4.718692070704698
1789799649178191600,7.056191650390625,-0.2500455318611115,0.9807923673197626,-4.260287208458781
1789799649188163600,7.06616357421875,-0.11959902384877204,0.9373884021401405,-3.5577316445440053
1789799649198134800,7.076134765625,0.4382195678293705,0.8368690495535731,-2.9774791027396916
1789799649208105500,7.08610546875,0.4335832132656127,0.6007768589168787,-2.684318578708172
1789799649218077700,7.09607763671875,0.6611551205772906,0.41696021444052456,-2.021558434087038
1789799649228048600,7.106048583984375,0.3995277989286929,0.14997399610728024,-0.931437969303131
1789799649238020600,7.1160205078125,-0.10909633453488349,-0.2251730294764042,0.5153863941401243
1789799649247991600,7.125991455078125,-0.17606741858907043,-0.8503650754645466,1.4708447059780358
1789799649257963800,7.1359638671875,0.137962436600402,-1.7430413524359463,2.438344168743491
1789799649267934500,7.1459345703125,0.498372752029635,-2.288256483128667,4.271358637571335
1789799649277906700,7.15590673828125,1.076515133279562,-2.5756375469759103,5.1270367247521875
1789799649287877600,7.165877685546875,1.2274842779040336,-3.080370737415552,4.926514736929535
1789799649297849600,7.175849609375,0.6603530834794044,-3.9356683008462188,5.448765171620249
1789799649307820500,7.185820556640625,0.8576233760297298,-5.043101134958863,6.609248043397068
1789799649317792800,7.195792724609375,1.8145242878913879,-5.579921362271905,6.743929485565424
1789799649327763500,7.205763427734375,2.0426725337862965,-5.386560936641692,6.061366323843598
1789799649337734400,7.215734375,1.7676269276380538,-4.857928691959381,4.804005963113903
1789799649347706600,7.22570654296875,1.3882967711508274,-3.833832897225022,2.977628740343451
1789799649357677600,7.235677490234375,0.9687666331570595,-2.0446020405441523,1.1308435203164815
1789799649367649500,7.2456494140625,0.5906359886527061,-0.04444236831665039,-0.4135404691249132
1789799649377620500,7.255620361328125,0.4297826154062524,1.7249094834178684,-1.5507266364663839
1789799649387592400,7.265592529296875,0.323448840919882,2.8571377360910177,-2.5075930615365505
1789799649397563400,7.2755634765625,0.4095488422054797,3.618210370904207,-3.1584067477762696
1789799649407535600,7.28553564453125,0.9939069926977157,4.126491901475191,-3.4674235971093177
1789799649417506600,7.295506591796875,1.113324814760685,4.239420361518859,-3.186910957726836
1789799649427478500,7.305478515625,0.21985855645537375,3.9984705017179247,-2.046855956950784
1789799649437449500,7.315449462890625,-0.14231946276612578,3.020995003861189,0.3806996912747621
1789799649447420700,7.325420654296875,0.5501508335292339,0.7817764001458882,2.3490040895581243
1789799649457392400,7.335392333984375,1.8218787423074245,-1.5768629482418297,3.7908962572962044
1789799649467363600,7.345363525390625,2.441531566607952,-3.0256413683623076,5.6114820371836425
1789799649477335600,7.35533544921875,2.387256371062994,-2.895660651230812,6.192875565716624
1789799649487306500,7.365306396484375,1.7272656911551951,-1.4819816015422342,5.283817770525813
1789799649497278500,7.375278564453125,-0.0470645335137844,-0.16583587436676026,4.904074941584468
1789799649507249700,7.385249755859375,-1.8306945014476774,0.911920783406496,5.66568299844861
1789799649517221400,7.395221435546875,-1.0563233360569924,1.019477487283945,6.046227206900715
1789799649527192600,7.405192626953125,1.4304957444548605,-0.45585459324121475,5.130746685186028
1789799649537164500,7.41516455078125,1.8550386691093443,-1.837010260465741,4.874029931932688
1789799649547135500,7.425135498046875,1.5790344470620155,-2.6945781069159507,5.057413737949728
1789799649557107500,7.435107421875,1.9689993948101996,-3.9372155302882192,4.834033437108993
1789799649567078700,7.44507861328125,2.005361332523823,-4.264266048961877,4.3361493819117545
1789799649577049600,7.455049560546875,2.223288628655672,-3.027628158265352,2.687207285887003
1789799649587021600,7.465021484375,2.019980224984884,-1.5391004960805177,0.7834849576294421
1789799649596992500,7.474992431640625,1.7557272310078142,-0.14311024781763554,-0.49142450379431246
1789799649606964500,7.484964599609375,1.7138076591670512,0.5654319892913102,-1.8479589399814604
1789799649616935400,7.494935302734375,1.0229939709722995,1.0382990921318531,-2.239725968715548
1789799649626907600,7.50490771484375,0.5087701908707618,1.0989052442640066,-1.906851273933053
1789799649636878600,7.514878662109375,1.2400737103641033,0.8824678944289683,-1.6271604723274706
1789799649646850000,7.52485009765625,1.8616987115204333,0.6557137332409619,-1.5884095936506986
1789799649656821200,7.5348212890625,0.9911867008883506,0.21162205850780008,-1.500026376798749
1789799649666793200,7.544793212890625,-0.22945289875268934,-0.20743805082142353,0.04018412635028362
1789799649676764200,7.55476416015625,-0.40182599286846815,-0.7115396653592586,2.1508079143345356
1789799649686735000,7.564735107421875,0.7022598689038306,-0.6972656408131123,4.089582851272821
1789799649696707300,7.574707275390625,1.834897213834524,-0.08647592192590237,5.090631532418728
1789799649706678300,7.58467822265625,2.460496963840723,0.34551322708129883,4.10683676841259
1789799649716650200,7.594650146484375,2.1391092932343483,0.05272212088406086,0.8165963691145182
1789799649726621200,7.60462109375,0.10642733452133833,0.03966682447791099,-0.657211278322339
1789799649736593200,7.61459326171875,-1.5152034876644611,0.24765841752886772,-0.025417934373021124
1789799649746564000,7.624564208984375,-1.5967302627503872,-0.5999959376722573,0.7342045016318559
1789799649756536300,7.634536376953125,-0.9242658857166767,-1.9909879392564296,2.270491693857312
1789799649766507300,7.64450732421875,0.595153173816204,-2.894157260930538,4.660152787974477
1789799649776479200,7.654479248046875,2.2414134834110735,-2.7900685254245996,5.402291005215049
1789799649786450200,7.6644501953125,2.6512229493141173,-2.7146739694833752,2.369343113231659
1789799649796422100,7.674422119140625,1.9867711983442304,-1.891298900014162,-0.6610574323564767
1789799649806393000,7.68439306640625,1.0325485657811164,-0.4861839727923274,-1.331028823530674
1789799649816364300,7.6943642578125,0.48779871451258655,-0.3433104563400149,-1.8494471327126025
1789799649826336300,7.704336181640625,0.3348644803602248,-1.0253478406220673,-1.7983184184998273
1789799649836307200,7.71430712890625,0.32940950288996096,-1.3928472740620375,-1.0434341169327497
1789799649846279200,7.724279052734375,0.9227449597597122,-1.2686375415474176,-0.28220775286257266
1789799649856250400,7.73425048828125,2.025967921092361,-1.3495841786578298,-0.036976270219683645
1789799649866222000,7.74422216796875,2.373788986724615,-1.57430741854012,-0.09659048870503902
1789799649876193300,7.754193359375,1.8315316829241812,-1.6620608130559325,-0.8133136941820382
1789799649886165200,7.764165283203125,1.147772004894167,-1.6827788991749286,-1.5267974793463945
1789799649896136200,7.77413623046875,0.9048901541173457,-1.5239283536508679,-1.498131356832385
1789799649906108200,7.784108154296875,0.9365268168747425,-0.9679095048710703,-0.23043314196169376
1789799649916079400,7.794079345703125,0.8159925580024718,-0.31764673051238057,0.8879057015687227
1789799649926050300,7.80405029296875,0.24542422873601316,-0.9030807666078209,-0.2300830133497715
1789799649936022300,7.814022216796875,0.2515242991767824,-2.297583114400506,-1.7495728000313042
1789799649945993200,7.8239931640625,0.2712662337400019,-2.969659953421354,-1.9434692322343587
1789799649955965200,7.833965087890625,1.1519092508293687,-2.679605578711629,-1.9959370860964059
1789799649965936000,7.84393603515625,2.0298048689067363,-1.6460240166209636,-0.8739438117116689
1789799649975908400,7.853908447265625,1.6298467888019978,-0.6402484530836343,0.6398737745523453
1789799649985879300,7.86387939453125,1.1092568346694112,-0.4090177310034632,0.2314543017029762
1789799649995851300,7.873851318359375,1.7648760214947163,-0.883568841408193,-1.7150661347955465
1789799650005822200,7.883822265625,2.7161738526523114,-1.196420154337585,-3.2510394387662407
1789799650015794200,7.893794189453125,2.7118334853604433,-1.6448006123058496,-4.5652930685848
1789799650025765000,7.90376513671875,2.009060479302704,-1.8580051176995038,-5.600857182794809
1789799650035736000,7.913736083984375,1.1562839587822555,-0.6177708099462091,-4.975372583600879
1789799650045708300,7.923708251953125,0.7678840683937073,0.06858472979590297,-4.519627880474925
1789799650055679000,7.933678955078125,0.9374293186724185,-0.22213103143200277,-4.336617583945393
1789799650065651200,7.943651123046875,1.6532881624050437,-1.0474426219217479,-4.902791331514716
1789799650075622100,7.9536220703125,1.616354854544252,-0.5445496525213122,-4.952557525202631
1789799650085594000,7.963593994140625,1.756385256525129,-0.6400144981972873,-5.427779666736722
1789799650095565000,7.97356494140625,1.0229226593017577,-0.8737485814005136,-6.0075020471870895
1789799650105537300,7.983537353515625,0.036705636584758755,0.7912900784224272,-4.151594778549671
1789799650115508000,7.993508056640625,0.31618878678902984,1.3369574829272926,-3.7166385964304207
1789799650125480200,8.003480224609374,0.22494141267761586,0.5127952086031436,-6.160728615349531
1789799650135451100,8.013451171875,-0.3909750015735626,0.36522827363759275,-7.543673504078388
1789799650145422300,8.02342236328125,-0.22917218211516738,1.422699099229276,-6.177801915225387
1789799650155394000,8.03339404296875,-0.2868188999198377,2.0549591839075085,-4.018008145880699
1789799650165365200,8.043365234375,-0.4779412642996758,0.9922215238288045,-4.380592334750294
1789799650175337000,8.0533369140625,0.23724347956366837,-1.3275719610750674,-5.915607607343793
1789799650185308200,8.06330810546875,0.9906746597129851,-2.431563860953599,-4.448662246891856
1789799650195280100,8.073280029296875,0.9781506206393241,-0.9646586863815784,-0.502945430240035
1789799650205251300,8.083251220703126,0.4531178617537021,0.9592217560246586,2.8694343230843544
1789799650215223000,8.09322314453125,-0.7273416301250457,-0.3308440657377243,1.8958143316119909
1789799650225194200,8.1031943359375,-2.2964310217559336,-2.457501873677969,-0.016086042404174803
1789799650235166000,8.113166015625,-2.1937527375698087,-2.894180057284236,-0.21465514259338378
1789799650245137200,8.12313720703125,-0.8214730352401733,-2.226393901194632,0.7878308778792619
1789799650255108000,8.133108154296876,-0.5420458895394579,-2.1774828630313277,1.2366951738417147
1789799650265080300,8.143080322265625,-0.17784785399874672,-2.285438503098488,1.2895762846797705
1789799650275051000,8.153051025390624,0.08112228593826293,-2.1686808401554822,0.9967799177855252
1789799650285023200,8.163023193359376,-1.1082172624886035,-1.973896226941049,-0.1252513505220413
1789799650294994200,8.172994140625,-1.469863293725252,-1.5246990457624197,-1.2760603850245475
1789799650304966100,8.182966064453124,-1.1496446668982505,-0.822389273302257,-1.658447006472945
1789799650314937000,8.19293701171875,-0.7895546329319476,-0.1568529419660568,-1.8722692053735255
1789799650324909300,8.202909423828125,0.11765958021879196,0.1782093259885907,-2.0684528717309236
1789799650334880000,8.2128798828125,0.4511667276859283,0.30918782198578115,-1.4409627779334784
1789799650344852200,8.222852294921875,0.08516133219599724,0.47949938046187157,0.11413491322398185
1789799650354823200,8.2328232421875,-0.4149830691486597,0.12292553792297839,0.7603150944441557
1789799650364794400,8.24279443359375,-0.2486526892632246,-0.90458386464715,-0.1837842035114765
1789799650374766000,8.25276611328125,-0.05959726735055446,-1.5983330217719076,-0.8787421519041061
1789799650384737300,8.2627373046875,0.08062894946336746,-1.3223065878927707,-0.10802958208620547
1789799650394709000,8.272708984375,0.6429203026413917,-0.6427659888625145,0.5607090524226427
1789799650404680200,8.28268017578125,0.5819242744088172,-0.18161212016940115,0.38071781145334244
1789799650414652200,8.292652099609375,-0.4654962818115949,0.12228490193188189,0.13092705807089805
1789799650424623400,8.302623291015625,-1.6295517513781785,0.5403069003850222,1.9756582681775092
1789799650434595000,8.312594970703126,-2.0860329520851373,-0.2491787589639425,6.460801695248485
1789799650444566300,8.322566162109375,-0.15894081762339918,-3.001265051996708,9.882820216488838
1789799650454538000,8.3325380859375,1.4798527728199957,-5.069091900783777,11.258058768624066
1789799650464509200,8.34250927734375,1.5104413878291845,-4.699769928091764,9.642057403692602
1789799650474480000,8.352480224609375,1.347062258964777,-3.7104999475449323,7.351173494669794
1789799650484452400,8.362452392578126,0.956183118981123,-3.6606390613108872,6.064840721955895
1789799650494423000,8.372423095703125,0.36894787868261336,-3.8936651423752306,5.315923804360628
1789799650504395300,8.382395263671874,0.29421090986728665,-3.162414229851961,4.178266512376069
1789799650514366200,8.3923662109375,0.39172728124558925,-1.7429910835534332,2.5314064833223817
1789799650524338200,8.402338134765625,-0.036709143716096876,-0.4682803595721721,1.5262848536491394
1789799650534309000,8.41230908203125,0.07337503281235694,0.6134983933240175,0.26643618323504925
1789799650544281300,8.42228125,0.10389876589179038,1.1611737766504286,-1.5030577073186635
1789799650554252000,8.432251953125,-1.0104723430514335,1.3487310689598322,-1.861397098225355
1789799650564224300,8.442224365234376,-1.1230033282101153,1.3667232372462748,-1.4054787920981644
1789799650574195200,8.4521953125,-0.3342904067993164,1.2819354145377873,-1.2547393645763396
1789799650584166400,8.46216650390625,0.8572691557645797,1.3513491425037383,-1.9113064997762441
1789799650594138000,8.47213818359375,1.5653449444055556,1.4531763628184795,-2.4102415253311396
1789799650604109300,8.482109375,1.3041162666857242,1.3421826702296733,-2.0130022026658057
1789799650614081000,8.4920810546875,0.8415314884066581,0.8050929783254861,-0.8513666537225246
1789799650624052200,8.50205224609375,1.069523082435131,-0.49143385614454743,-0.0856464853644371
1789799650634024200,8.512024169921874,1.155125144135952,-2.002085087332129,0.6899094328314066
1789799650643995000,8.521994873046875,0.13147241699397563,-1.8441361668229102,2.2529542836010457
1789799650653966800,8.531966796875,-0.019690222642291335,-1.1868079841226338,2.9582763896197077
1789799650663937800,8.541937744140625,-0.11642214737832546,-0.8146499112218618,2.5245114631116388
1789799650673910000,8.551909912109375,-1.348453421062231,-0.5003571673125028,2.5321704534322023
1789799650683880700,8.561880615234376,-1.9727777443051338,0.2381131750702858,2.821666025215387
1789799650693851600,8.5718515625,-0.9383096086382865,0.41611002735197544,1.6014099449992178
1789799650703824000,8.581823974609375,-0.9051274700045585,0.22038462615609167,1.5299673415541648
1789799650713794800,8.591794921875,-1.9277906015872954,-0.00684884298145771,3.1395664382278916
1789799650723766800,8.601766845703125,-2.8382471576601267,-0.32187048568725585,5.162927537822723
1789799650733737700,8.61173779296875,-1.8729057497113941,-0.7445265736818313,5.52123887167871
1789799650743709700,8.621709716796875,0.14342881224751472,-1.14507662833035,3.0670015527546406
1789799650753680600,8.6316806640625,0.8490870183527469,-1.1781921314686536,-0.03299918328225612
1789799650763652900,8.64165283203125,-1.4209119235515593,-0.362833195194602,-0.50392450440526
1789799650773623800,8.651623779296875,-2.657292624616623,0.24854513723552227,-0.6206909351766109
1789799650783594800,8.6615947265625,-2.174537164968252,0.19114625671207905,-0.16223521952629089
1789799650793566700,8.671566650390625,-0.8774187943458557,-0.27508301554918285,1.3987766641110182
1789799650803538000,8.681537841796874,0.5660323663372546,-0.8708779944002628,2.4178496622473
1789799650813509600,8.691509521484376,0.5725216552913188,-1.2902625133782624,2.537873633509874
1789799650823480800,8.701480712890625,0.8340554534375667,-1.4017846137553454,1.6964204710364341
1789799650833452800,8.711452880859374,1.5084347241818905,-1.4645152106955646,0.6406424208372831
1789799650843423700,8.721423828125,1.1810872683882712,-1.7110475468039512,0.5825619877904653
1789799650853395700,8.731395751953125,0.9325345323681831,-2.2477768809631464,1.1839870814830065
1789799650863367000,8.741366943359376,0.7988263191461563,-2.5364739958450198,2.0939526391685006
1789799650873338600,8.751338623046875,1.0866928284227848,-1.9867586311236023,2.569210436537862
1789799650883309800,8.761309814453124,1.266249769628048,-0.9063932521566748,2.83040755007565
1789799650893280800,8.77128076171875,1.3230009998977184,-0.8396677403613925,1.8363094187200069
1789799650903252700,8.781252685546875,1.00883801984787,-1.4358581482708452,0.7646545849531888
1789799650913223700,8.7912236328125,0.6864461406350135,-1.6618512619584798,0.4696820430636406
1789799650923196000,8.80119580078125,0.9113456138670444,-1.767702915483713,1.4968547610253096
1789799650933166800,8.811166748046874,1.574434259790182,-1.8994409976765512,3.046332274213433
1789799650943138800,8.821138916015625,2.2694635198533533,-2.47946937533617,3.2583903860509396
1789799650953109800,8.83110986328125,2.368372806894779,-3.434006188414991,1.7427333094000816
1789799650963081700,8.841081787109376,1.690101789408922,-3.6570904289186,-0.6421878967136144
1789799650973052700,8.851052734375,0.3250501386366784,-2.6870456655845043,-1.9940052412509917
1789799650983023900,8.86102392578125,-0.02387552723661065,-1.9912173640981314,-3.071095544070005
1789799650992995800,8.870995849609375,0.37738019146323204,-1.1964606324784457,-3.7856817375183103
1789799651002966800,8.880966796875,0.47725393962264057,-0.30915187388956544,-3.5113615230351685
1789799651012938800,8.890938720703126,0.6086952308259904,-0.5697196034826338,-3.61313146020472
1789799651022910000,8.900909912109375,0.824145323189348,-1.117442186951637,-5.028786193880438
1789799651032881700,8.910881591796874,1.0999075531743465,-1.108514784130454,-6.24672522932589
1789799651042852900,8.920852783203125,1.21294853368178,-0.29139775214269753,-5.7823044677913185
1789799651052824800,8.930824951171875,1.409355779661983,0.3139795863069594,-5.396807605367899
1789799651062795800,8.940795654296876,1.3872786801494656,1.0203761896893382,-4.376693573746085
1789799651072767700,8.950767822265625,1.3821734659649432,1.2537481615819037,-3.893841083464026
1789799651082739000,8.960739013671875,1.5935656612396238,0.6089994744695723,-4.707668572387099
1789799651092710000,8.9707099609375,0.9138613960802554,-0.3199683053277433,-5.550778854417801
1789799651102681900,8.980681884765625,0.6732840228535234,-1.1889864972054958,-5.718542481976747
1789799651112652800,8.99065283203125,1.1355027442991732,-1.994746999529004,-5.204926604640484
1789799651122624800,9.000624755859375,0.24840675167813894,-2.1263383667275306,-3.9512978316545486
1789799651132595700,9.010595703125,-1.3244167119145394,-0.7799255115821957,-1.304573362803459
1789799651142568000,9.02056787109375,-0.10307005998268723,-0.8373154781468212,-0.12543664396107196
1789799651152539000,9.030538818359375,0.5316999616898596,-2.6547099146470425,-1.472763691341877
1789799651162510800,9.0405107421875,-0.21264453342333434,-2.4949071829646825,-1.9884195500731467
1789799651172481800,9.050481689453125,-0.7745254061043262,-0.8436553486928343,-2.604003517499566
1789799651182453000,9.060452880859375,-0.3828421101309359,-0.3906812793239951,-3.436001453885436
1789799651192424700,9.0704248046875,-0.8215316335596143,-0.2374859830826521,-3.5962937226504086
1789799651202396000,9.08039599609375,-0.8519408003486693,0.3600686989173293,-1.7853098838448525
1789799651212368000,9.090367919921874,-0.6046751084644347,0.3144862206548452,-1.2893132498294115
1789799651222338800,9.1003388671875,-1.8400293160259722,-0.17722879051864146,-2.643134335404634
1789799651232310800,9.110310791015625,-2.0063690482616425,-0.28338571060076356,-3.290892141205072
1789799651242282000,9.120281982421876,-0.505541218886897,-0.6171665604427456,-4.109472962135076
1789799651252253700,9.130253662109375,-0.12350713720321654,-0.5743757587254047,-4.403442464461922
1789799651262225000,9.140224853515624,0.1470364082854241,-0.14526450324207543,-3.7178181616038084
1789799651272195800,9.15019580078125,-0.2989841156184673,-0.007945406046509743,-3.444009403774142
1789799651282167800,9.160167724609375,-0.5354384906310587,-0.5127341260656714,-4.8670466489166015
1789799651292138800,9.170138671875,-0.10339023184776305,-1.0304302584528922,-6.505998096802831
1789799651302111000,9.180111083984375,-0.51558103992939,-0.23077274917960167,-4.878702599918842
1789799651312082000,9.19008203125,-0.5932289642879739,0.953383551390469,-1.4798182860285043
1789799651322054000,9.200053955078126,-1.1320844602882862,0.6174240423351526,-1.6889911978185175
1789799651332024800,9.21002490234375,-1.1514520085811615,-0.5825941364943981,-3.5499867295056577
1789799651341996800,9.219996826171876,-0.338552740418911,-0.5698588658228516,-2.477378540536761
1789799651351967700,9.2299677734375,-0.44572482889294623,0.308341434289515,0.8012012315839528
1789799651361938700,9.239938720703124,-1.274587974384427,0.2187374434709549,3.266186739015579
1789799651371911000,9.249910888671875,-1.3662807541757822,-1.3128683129400014,3.196725080254674
1789799651381881600,9.259881591796875,-0.4633043247252702,-3.0941657462731,1.5511170970886945
1789799651391853800,9.269853759765626,-0.47726270745098587,-3.380840123155713,2.1981401588737963
1789799651401824800,9.27982470703125,-0.7704501194894313,-2.3650378172531723,4.696974159893394
1789799651411796700,9.289796630859374,-0.31978841871619224,-2.745063262528181,5.5943608065128325
1789799651421767700,9.299767578125,-0.1709375996862538,-4.20049763340652,4.823585692852736
1789799651431740000,9.309739990234375,0.07369650158537551,-4.550206558611989,4.5838954777240755
1789799651441710600,9.319710693359376,1.185157294306159,-3.628766251710057,4.40844655635953
1789799651451681800,9.329681884765625,1.1444774933934212,-2.255055055272579,3.292155293008685
1789799651461653800,9.33965380859375,-0.0698129564166069,-1.0895149001061917,1.7428671649128198
1789799651471625000,9.349625,-0.14097032231264747,0.017129998499155044,0.3764396957427263
1789799651481596700,9.3595966796875,0.6785889973938465,0.9715905314713716,-0.33573125325739384
1789799651491567900,9.36956787109375,0.36500937018990515,1.360505093383789,-0.06297054317593574
1789799651501539600,9.37953955078125,-0.054447040413948704,1.0512696328639983,1.2485948704719543
1789799651511510800,9.3895107421875,0.7558300579845905,-0.38796763645112514,3.309384075707197
1789799651521482800,9.399482666015626,1.6406161662280558,-2.112889394828677,4.941624043256044
1789799651531454000,9.409453857421875,1.901571287703514,-2.5003303770571947,5.277260603967309
1789799651541424600,9.419424560546876,1.5078735831677912,-1.4659721315056085,4.415749572849274
1789799651551396900,9.42939697265625,0.791598121458292,-1.118290912735462,2.8916788881182667
1789799651561367800,9.439367919921875,-0.5688847600936889,-1.5363368765860794,2.475525021624565
1789799651571339800,9.44933984375,-0.8561153095543385,-1.9542729503214358,3.395055110991001
1789799651581310700,9.459310791015625,0.6805553290307521,-1.9404671278089283,4.0368320888161655
1789799651591283000,9.469282958984374,2.323825224637985,-0.9423065693199634,2.9920787059783933
1789799651601253600,9.479253662109375,1.8222388077914713,1.0891712012350558,1.7107342430710792
1789799651611225900,9.489225830078125,0.2944949875056743,3.2493823192089795,0.8163643139243125
1789799651621196800,9.49919677734375,-0.12749474553465842,4.713347787067294,-0.9657043960422277
1789799651631168000,9.50916796875,-0.9611784430503845,5.64623069448173,-2.1494489009410143
1789799651641140200,9.51914013671875,-1.1142448522150517,6.250765444627404,-2.6321464929223057
1789799651651111200,9.529111083984375,0.7667606903869658,5.88732083953619,-4.01366047206521
1789799651661083100,9.539083251953125,2.09518481131196,4.396017867419124,-5.555450937882066
1789799651671054000,9.54905419921875,1.5562416004955768,2.6475971600323915,-4.5738837867975235
1789799651681026300,9.5590263671875,0.17858553888984025,1.119947447770834,-1.000672833570838
1789799651690997200,9.568997314453124,1.7462661597013474,-0.6848299376100301,1.326953536915779
1789799651700969200,9.57896923828125,4.175964665174484,-3.012534634029865,1.955620857799053
1789799651710940200,9.588940185546875,2.8752339492738246,-4.822080548986793,0.9870587342381477
1789799651720911400,9.598911376953126,-0.22005959545280784,-5.066228328046202,-0.0157376673579216
1789799651730883000,9.608883056640625,-2.6024878522396087,-3.5152187829852104,1.2991624436706304
1789799651740854300,9.618854248046874,-3.7767221859931945,-1.6345511671006678,4.316250503221154
1789799651750826200,9.628826171875,-2.474096450126171,-0.5214508087456226,7.329629771381616
1789799651760797200,9.638797119140625,0.21733692902326582,-0.49875265472531316,9.56988414788544
1789799651770769200,9.64876904296875,2.482050624001026,-0.9565437689870595,11.305866813981533
1789799651780740400,9.658740234375,2.73616917745471,-2.593016259539127,9.530583234110473
1789799651790712000,9.668712158203125,0.4507832813262939,-4.4042800843298435,6.956040204373002
1789799651800683300,9.678683349609376,-0.2964636754964478,-4.713526650765538,5.520686498492956
1789799651810654200,9.688654296875,0.47386608728263524,-4.087299124249816,3.670278996315598
1789799651820626200,9.698626220703124,0.6648609162926673,-3.765900932249427,1.601892760080099
1789799651830597000,9.70859716796875,0.2906546786904335,-3.0482763940185307,-0.4796843816399574
1789799651840569300,9.7185693359375,0.5099380656063557,-1.4947960749298332,-2.6375591656208037
1789799651850540300,9.728540283203126,0.7303367202877998,-0.0507855998635292,-4.774890927788615
1789799651860512300,9.73851220703125,0.11676292364001273,0.5864747773200273,-6.896600757932663
1789799651870483200,9.748483154296874,-0.5855027539500967,1.009348891979456,-8.868538544282316
1789799651880455200,9.758455078125,-0.11234744528532027,1.2876175518274307,-10.373500623917579
1789799651890426000,9.768426025390625,1.2023194415092469,2.447704702284932,-9.244394302657247
1789799651900397000,9.77839697265625,1.138246490049362,4.44216528608799,-5.8622354981184
1789799651910369300,9.788369384765625,0.27206805164217945,5.435557315000891,-2.665058582442999
1789799651920340000,9.798340087890624,1.169275396171957,4.883820673584938,1.0424643951177597
1789799651930312200,9.808312255859375,3.301003200852871,2.5566215885996817,5.245032989579439
1789799651940283100,9.818283203125,2.9716777229845524,-1.212443945160508,6.257313843357562
1789799651950255000,9.828255126953126,-1.0633318265795708,-3.5509576203644273,6.438587525352835
1789799651960226000,9.83822607421875,-4.457278684067726,-3.666306877814233,6.690335258021951
1789799651970197200,9.848197265625,-1.1601333276867867,-2.157418272385001,5.184190106081962
1789799651980169000,9.8581689453125,1.5478279924154281,-0.9326531903117895,2.8816087450027466
1789799651990140200,9.86814013671875,-0.16556228158976882,0.11962152794152497,3.1719857757955787
1789799652000112000,9.878112060546876,-0.20712175141386688,0.352517845146358,3.768569274675846
1789799652010083000,9.8880830078125,1.2759481568217277,-1.142036237721145,3.6467999210506674
1789799652020055000,9.898054931640624,1.912175683826208,-3.3121243143260477,2.480307579725981
1789799652030026200,9.908026123046875,1.1148176836669443,-4.593633027884364,1.0259650957375763
1789799652039998000,9.917998046875,0.6215887607991695,-4.730889581237733,-0.30300854882895945
1789799652049969200,9.92796923828125,1.5512439383387564,-3.763814773625135,-0.7366068865984677
1789799652059940000,9.937940185546875,3.1768460753083225,-2.5855238579571247,0.004689619120955467
1789799652069912300,9.947912353515624,3.2258702184572816,-1.7795447444468735,0.38934301645755764
1789799652079883000,9.957883056640625,1.909613139861822,-1.8003429100647568,-0.5983288812428712
1789799652089855200,9.967855224609375,1.5328667162574827,-2.829142060184479,-3.092215488988161
1789799652099826200,9.977826171875,1.653841704634577,-3.3127181885659693,-5.470463793209195
1789799652109798100,9.987798095703125,1.815300679091364,-2.1011055796630678,-7.949310652732849
1789799652119769000,9.99776904296875,1.2769897748291492,0.3135610686339438,-7.881773240032792
1789799652129741300,10.0077412109375,1.0139211683310567,1.8682691759519279,-6.66389090321064
1789799652139712000,10.0177119140625,0.6026362230479717,2.805834542094171,-4.204107640597224
1789799652149683200,10.02768310546875,0.5093583660222589,2.37773275591433,-2.7367864325702187
1789799652159655200,10.0376552734375,1.609414387756586,-0.28344372439831494,-4.322401427066326
1789799652169626000,10.047626220703124,2.16193370398283,-2.1914868384644386,-5.624329243797064
1789799652179598000,10.05759814453125,1.8937490696452557,-2.5720880378007887,-6.231710615545511
1789799652189569300,10.0675693359375,0.7421791337728499,-1.5056559071183204,-4.503666925755143
1789799652199541000,10.077541015625,-0.6904945392429829,1.0226647390179335,-0.4772358194440603
1789799652209512200,10.08751220703125,-0.37108036066666245,1.9392593594543635,1.6391326496720313
1789799652219483100,10.097483154296874,-0.466244908221811,0.044858255641162394,0.35904490882754325
1789799652229455400,10.107455322265626,0.26166940722465515,-2.186497798005491,-1.5303309141695498
1789799652239426000,10.117426025390625,-0.779744017535448,-2.0511894561104476,-3.657125500231981
1789799652249398300,10.127398193359374,-0.21357830714210865,-1.0843803136967123,-4.686230063039064
1789799652259369200,10.137369140625,0.8519104052104055,-0.45851256040409205,-6.236849147477746
1789799652269341200,10.147341064453125,1.0980535958707331,0.40425037047117945,-7.503715587699413
1789799652279312100,10.15731201171875,0.9892226342737674,1.3940524120680986,-7.051884258624911
1789799652289284400,10.167284423828125,0.6165361535847187,2.1255095146879555,-5.417372254490852
1789799652299255000,10.177255126953124,-0.2282185346521437,2.153638461585343,-4.514050957125425
1789799652309226200,10.187226318359375,-0.8417044338207691,1.654448876747489,-4.212015052720904
1789799652319198200,10.1971982421875,-0.4031903400242328,0.7835983548760413,-4.363539493140578
1789799652329169200,10.207169189453126,0.691251860416308,-0.08387859890908002,-5.125085006162524
1789799652339141000,10.21714111328125,1.0140181258995085,-0.048560909551382064,-3.958414970183372
1789799652349112300,10.2271123046875,0.6835854905068874,0.5198749377310276,-1.2554986585110426
1789799652359084000,10.237083984375,-0.29763617160823197,0.24037205991297958,-0.22069033110439776
1789799652369055200,10.24705517578125,-1.0361083771545438,-0.6159396489962935,-0.6989069782793521
1789799652379026200,10.257026123046876,-1.6437971343517304,-1.1343342850416898,-0.2826157491415739
1789799652388998100,10.266998046875,-1.0387386525928974,-1.9751777911841868,-0.022854221364855765
1789799652398969000,10.276968994140624,0.7436310861468315,-2.3837378415480255,-0.03356149334013462
1789799652408941300,10.28694140625,1.0890122112810612,-1.8929747242718933,1.487767783728242
1789799652418912300,10.296912353515625,0.25457097339630125,-1.6338248986527322,3.2405139530986546
1789799652428884200,10.30688427734375,-0.5773065514802932,-2.406469897837937,4.232815848687291
1789799652438855200,10.316855224609375,-0.7692004116892814,-3.3141412071064114,4.64199987616837
1789799652448826000,10.326826171875,0.4730921437680721,-3.4514287401199337,4.353852796384692
1789799652458798000,10.336798095703125,0.8522434365570545,-2.843155387967825,3.9905256801933047
1789799652468769000,10.34676904296875,1.0935831724584102,-2.431236382564902,2.987726355987787
1789799652478741200,10.3567412109375,1.155544830852747,-2.563705993902683,2.064587428474426
1789799652488712200,10.366712158203125,0.3644704410076141,-2.463644614216685,1.8924042309075593
1789799652498684200,10.37668408203125,-0.43895138923525806,-1.8757342511355877,2.301391274511814
1789799652508655000,10.386655029296875,-0.1785340278983116,-1.0389362209916113,2.9615216551512478
1789799652518627000,10.396626953125,1.1864391508102416,-0.5406804098725319,2.641007260248065
1789799652528598000,10.406597900390626,2.093714154237509,-0.16388883195221424,1.6851602413535116
1789799652538569200,10.4165693359375,1.7944424538493156,0.17028993116617203,0.9500152440011501
1789799652548541200,10.426541259765624,0.9368447967827319,0.6558370673596858,0.5159288304537535
1789799652558512000,10.43651220703125,0.6057903396973386,1.34884680429399,0.026173136654496193
1789799652568484000,10.446484130859375,-0.19917115773558616,1.9103654195338486,-0.15297347018420696
1789799652578455300,10.456455322265626,0.011038074832223355,1.974576902681589,0.9251789089083671
1789799652588427000,10.466427001953125,0.46632462239451705,1.4554682731479405,2.3603414761304853
1789799652598398200,10.476398193359374,0.8893874645590781,0.6662035630732774,3.1964819191485643
1789799652608369200,10.486369140625,1.551399421161413,0.3007984715640545,2.825648372849822
1789799652618341000,10.496341064453125,1.5621405954062937,0.06349135217964649,1.90075821775496
1789799652628312000,10.50631201171875,0.46483635659813877,-0.24718261671066283,2.330136307480931
1789799652638284300,10.5162841796875,-0.33393392151184376,-0.7869529260009527,3.323453517591953
1789799652648255200,10.526255126953124,1.018121323434636,-1.1430179422348736,4.052337700983882
1789799652658227000,10.53622705078125,1.6883388713896275,-0.8865998796671628,3.9878216819316146
1789799652668198100,10.5461982421875,0.7343758396107704,-0.3179915984272957,3.5994828740805387
1789799652678169900,10.556169921875,0.018645115769840775,-0.14841186135709286,3.5857530394136905
1789799652688141000,10.56614111328125,0.2789150679927319,-0.5632809487372636,3.298541194653511
1789799652698112000,10.576112060546874,0.5410778116922825,-1.1436281830877064,2.828555200207233
1789799652708084200,10.586084228515626,0.4453647999415174,-1.3956839587926864,2.568301504999399
1789799652718055000,10.596054931640625,0.36415717380736023,-0.6897527809649705,2.1924346407085658
1789799652728027100,10.606027099609374,0.7112193473637104,-0.3555997368097305,0.7994260386049747
1789799652737998000,10.615998046875,0.8086603154182433,-0.41418811937868594,0.10317395874857901
1789799652747970000,10.625969970703125,0.42714868670608847,-0.4264250851392746,0.15839900236427784
1789799652757941000,10.63594091796875,0.3811807527899742,-0.6812199304193258,0.45892976290285586
1789799652767912200,10.645912109375,1.0353156924068927,-0.9183464325398206,0.8233551957249641
1789799652777884000,10.6558837890625,1.6712182252407073,-0.9102402829736471,0.8045546336650848
1789799652787855000,10.665855224609375,1.7963363047719,-0.5340314733773469,0.4122545209676027
1789799652797827000,10.6758271484375,1.1902888119757176,-0.0800216312199831,0.000012274959683418274
1789799652807798300,10.68579833984375,-0.27958851027488707,0.39552491996288297,0.014704817178845404
1789799652817770000,10.69577001953125,-1.0115408490657807,0.9082534930706023,0.17364333324730397
1789799652827741200,10.7057412109375,-0.9344552712976932,1.5202490806162356,0.5516133072972297
1789799652837712100,10.715712158203125,-0.24144842044021933,1.8774340407907961,0.6760656163960694
1789799652847684000,10.72568408203125,0.038860184270143504,1.9107249004960059,0.384521295389533
1789799652857655000,10.735655029296876,-0.894361745840311,1.6041858394533395,0.3106786450654268
1789799652867627300,10.745627197265625,-1.4050994373917578,1.2340040350615977,0.9804121358305216
1789799652877598000,10.755597900390624,-1.001733740800619,0.7557756974488496,2.33386847974658
1789799652887570200,10.765570068359375,-0.19904493754003197,-0.11577625069022178,3.692594288498163
1789799652897541000,10.775541015625,0.04559391297195106,-1.149811840158701,4.345674750626087
1789799652907512000,10.785511962890626,0.013753836596943438,-1.9009768289417028,3.982054204446077
1789799652917484000,10.795484130859375,-0.04214169015884399,-2.1602409285902975,2.790556601202488
1789799652927455000,10.805455078125,0.013345767252705991,-1.9580542224258184,2.4684055450081823
1789799652937427000,10.815427001953125,0.3759481128334999,-2.1804934430241585,2.6321061609119174
1789799652947398000,10.82539794921875,0.9460638760268688,-2.699864522886276,2.164869172912836
1789799652957370000,10.8353701171875,0.7540542804837227,-2.8096573152527213,1.4022878871023654
1789799652967341000,10.845341064453125,0.01659921609070152,-2.7940266154006124,0.9014093262642622
1789799652977312000,10.85531201171875,-0.11464932901952415,-2.92010506439656,0.8739432271897792
1789799652987284000,10.865283935546875,-0.19516247008349746,-2.7464558859303594,1.670510369232297
1789799652997255200,10.875255126953125,0.17777418597433714,-2.2344778389289974,2.83025791247189
1789799653007227000,10.885226806640626,0.6290133578419685,-2.0367159634694456,3.2599212488800284
1789799653017198000,10.895197998046875,0.5189607454955577,-2.4674770319864154,2.5401731426239014
1789799653027170000,10.905170166015624,0.5180547365665435,-2.5328286250799894,1.7579980985492467
1789799653037141000,10.91514111328125,0.9470656734805554,-2.1439967730149627,0.9227338538438081
1789799653047112000,10.92511181640625,1.2848352276325226,-1.7330556727334856,0.08398936580717563
1789799653057084200,10.935084228515626,1.6644905244208872,-1.7299194205343722,-0.7352332601577043
1789799653067055000,10.94505517578125,2.0615853240489956,-1.6306594203591345,-1.3811936611473559
1789799653077027000,10.955027099609374,2.26256966868639,-1.8983330364346502,-1.2580728929132223
1789799653086998000,10.964998046875,1.499257730513811,-2.140077553744614,-1.0357616826087235
1789799653096970000,10.974969970703125,1.1375766279637813,-2.359402880106121,-1.9122288753181695
1789799653106941000,10.98494091796875,1.7163922688327728,-2.6025556567788124,-3.3388241052031513
1789799653116912000,10.994912109375,1.8230488090001045,-2.357552137672901,-4.339298201331496
1789799653126884000,11.004884033203124,1.5006455316103995,-1.8869089944921433,-5.467179364711046
1789799653136855000,11.01485498046875,0.848100345402956,-0.8579495392441749,-5.894428625714778
1789799653146827000,11.024826904296875,0.1473449627779424,0.7498395853981376,-4.774516249257326
1789799653156798200,11.034798095703126,-0.23921923661604522,2.125470497851819,-3.402092170020938
1789799653166770000,11.04477001953125,0.3437396415375173,1.8821914644509552,-3.6760558261513707
1789799653176741000,11.0547412109375,1.0808405952632427,0.30112448864802716,-5.2902580327063795
1789799653186712000,11.064712158203125,1.1449920187868177,-0.9036588587567209,-5.768503321453928
1789799653196684000,11.07468408203125,0.6363176895059645,-1.5101090871348977,-5.699851810032129
1789799653206655000,11.084655029296876,0.5226373881816864,-1.5833436885632575,-4.996454534596205
1789799653216627200,11.094627197265625,0.4746517943002283,-0.20427417996302247,-2.2912989195644853
1789799653226598100,11.10459814453125,0.833126063632965,0.5673797623582184,-0.10250175857543944
1789799653236570000,11.114570068359376,1.0910419635429978,-1.0315383658252655,-2.123245953670144
1789799653246541000,11.124541015625,0.1622610846199095,-2.1908749901764093,-5.669412248104811
1789799653256512300,11.13451220703125,-0.7489338687300682,-1.681950047135353,-7.550027841541171
1789799653266484000,11.14448388671875,-0.8289059617199003,-0.5538811060987413,-8.135514192345738
1789799653276455200,11.154455078125,-0.7880736005939543,0.7975478236429393,-7.376523624503612
1789799653286427100,11.16442724609375,-0.7651100736357271,2.000373022717237,-5.695665464258194
1789799653296398000,11.174398193359375,-0.3501848721541464,1.6697138120271264,-4.250530953598022
1789799653306370000,11.1843701171875,0.035173093255236744,0.8678891878478229,-2.620838916966319
1789799653316341200,11.19434130859375,-0.3885574190378189,1.4219941658303141,-1.2348194430977106
1789799653326312200,11.204312255859374,-0.815466488301754,1.1462672994196414,-1.3328180450350045
1789799653336284200,11.2142841796875,-1.530309871381521,0.01809285218194127,-1.299762163129449
1789799653346255000,11.224255126953125,-1.692664333373308,-1.0752755084820091,-1.6452420724630354
1789799653356227000,11.23422705078125,-1.3725707942306995,-1.7525898097649215,-1.796160948204994
1789799653366198000,11.244197998046875,-0.897297214770317,-1.7995447454243898,-0.5140805722385645
1789799653376170200,11.254170166015625,-0.37283494924902916,-1.856598758032918,0.8742056775182485
1789799653386141200,11.26414111328125,-0.36972412375211716,-2.3679387993916867,1.221118250003457
1789799653396112000,11.27411181640625,-0.3307306684911251,-2.353287173704803,0.8330284484773873
1789799653406084000,11.284083984375,-0.14243395599126815,-2.276941308388114,-0.8527186528533697
1789799653416055000,11.294054931640625,-0.13582301341891287,-2.3695883201643824,-2.7035452572256324
1789799653426027000,11.304027099609375,-0.08748773845010437,-2.4763576730564236,-3.3392285943508146
1789799653435998000,11.313998046875,-0.29559973387718197,-2.5515526147723198,-1.5004408028185368
1789799653445970200,11.32397021484375,0.3037871137197129,-2.160203519189358,1.4509382285028696
1789799653455940900,11.33394091796875,0.603155863007903,-2.0102870984882113,3.0732769797623156
1789799653465912000,11.343912109375,0.15935703374147414,-2.692422974708676,2.6380729603618382
1789799653475884000,11.353884033203125,-0.25599662228524683,-3.10820040910542,2.0836796669572593
1789799653485855000,11.36385498046875,-0.34986674611568447,-2.557362762355804,1.815870441803336
1789799653495827000,11.373826904296875,-0.32151622888948767,-1.6896142981529234,1.336677643072605
1789799653505798100,11.383798095703124,-0.3012117285400629,-0.921450828295946,0.06672200466394423
1789799653515769900,11.393769775390625,-0.2714508330592885,-0.06693710871934891,-1.7018968566209076
1789799653525741000,11.403740966796875,-0.20272563534677027,0.9645259999126196,-2.912530537489056
1789799653535712000,11.4137119140625,-0.5542179368376732,1.9375889420241117,-2.9969635554105043
1789799653545684200,11.423684326171875,-0.6601093378514051,2.690267842501402,-1.7932570434570312
1789799653555655000,11.433655029296874,-0.28348606570269913,2.4179238965272902,0.6310369726240634
1789799653565627100,11.443627197265625,0.8743675900816917,0.32730653926134107,2.767810516387224
1789799653575598000,11.45359814453125,1.4315847087353466,-1.6442857946515081,3.767006263142824
1789799653585569000,11.463569091796876,0.8861082967579365,-1.8320675433665512,3.699427349388599
1789799653595541000,11.473541015625,0.2847849464068189,-1.3275585170716047,3.0886054817974564
1789799653605512200,11.48351220703125,0.062090801199339324,-1.306438572153449,2.699191153669357
1789799653615484000,11.49348388671875,-0.6646914049446583,-2.0709072791457177,3.014776859998703
1789799653625455000,11.503455078125,-0.8372966273158788,-3.184818369361758,4.291170422500372
1789799653635427000,11.513427001953126,0.10392919756267219,-3.2013445567488668,5.650391905814409
1789799653645398000,11.52339794921875,0.3477046361783519,-2.196003146845102,5.453291709133983
1789799653655369000,11.533368896484374,-0.17965101269688455,-1.2488467994064092,4.4926469345688815
1789799653665341200,11.543341064453125,-0.9987520946413277,-0.805098823544383,3.9774791516155004
1789799653675312000,11.55331201171875,-1.0690542958796023,-0.9344190309405326,3.921594767308235
1789799653685284000,11.5632841796875,-0.683092154031992,-1.2133312493890522,4.466700592407584
1789799653695255000,11.573255126953125,0.08898702796399593,-0.9908388372987508,4.073018085440993
1789799653705227300,11.583227294921874,0.8164186744600535,-0.2797521764039993,2.450304655650258
1789799653715198000,11.593197998046875,0.23537120115207508,0.29813422079086305,0.8883405858546495
1789799653725169200,11.603169189453125,-0.3311480171203613,0.48727206028997894,-0.3089578126221895
1789799653735141000,11.61314111328125,-0.8731301572412252,0.18419862953126429,-0.9889221900224685
1789799653745112000,11.623112060546875,-1.47417531170547,0.056929509446024894,-0.4587643432080745
1789799653755084000,11.633083984375,-1.1998457448720932,-0.4264800301969051,0.1458604233086109
1789799653765055200,11.64305517578125,-0.7258575290471315,-0.6388140363663435,0.6665262191563844
1789799653775026200,11.653026123046875,-0.4779197100549936,-0.06096855570375919,1.0194377397954464
1789799653784998100,11.662998046875,-0.2718073366130702,0.546053335082531,0.6930395475506782
1789799653794969000,11.672968994140625,0.23958675475418567,1.3302794664680957,0.061572951337695116
1789799653804941000,11.682941162109374,-0.08156011109994724,1.8410101437568664,-0.49915714387297627
1789799653814912000,11.692912109375,-0.8207868065416812,1.9676286909788845,-0.7540116103857756
1789799653824884200,11.70288427734375,-1.5790888075977563,1.7239625579565763,-0.5794201826333999
1789799653834855200,11.712855224609376,-1.6006547427177429,0.8106699016749859,-0.49859541833698745
1789799653844825900,11.722825927734375,-1.1430220338881014,-0.446657725828886,0.3749140936106443
1789799653854798000,11.732798095703124,-0.3576525776863098,-1.7027572728425264,2.306872336271405
1789799653864769000,11.74276904296875,0.406442619818449,-3.043395051717758,3.861114871904254
1789799653874741000,11.752740966796875,-0.15256489851647057,-3.815278418880701,5.203476990354061
1789799653884712000,11.7627119140625,0.030852818903326987,-3.062999915897846,4.9190457162231205
1789799653894684200,11.77268408203125,0.7904957131743431,-1.8529437426567077,2.006449127760529
1789799653904655000,11.782655029296874,-0.2299696161031723,-0.7481792509704828,0.0600181231111288
1789799653914626000,11.7926259765625,-2.1625556352734563,-0.27645196581482884,0.5793927101045847
1789799653924598000,11.802597900390625,-2.370772853773832,-0.7210603578984737,1.7922808919012545
1789799653934569200,11.8125693359375,-1.0888836164653302,-1.7860428742945194,3.4506314522624013
1789799653944541000,11.822541015625,0.77610361520648,-2.656915607997775,4.812131401902437
1789799653954512100,11.83251220703125,1.6415525702953337,-3.1058243276238438,4.225974604490399
1789799653964484000,11.842484130859376,1.1987947745144367,-3.178635881334543,1.1942045241147279
1789799653974455000,11.852455078125,0.38546179111003875,-2.2884037826448678,-1.2042284900009632
1789799653984426000,11.862426025390626,-0.18442133237123487,-0.9384192064926028,-1.3569500312507152
1789799653994398200,11.872398193359375,-0.051486989598534996,-0.17887977259606122,-0.9542530277013778
1789799654004369000,11.882368896484374,0.19251465898845344,-0.25763445262014867,-0.4970341603696346
1789799654014341000,11.892341064453126,0.31961773832440377,-0.43231326639503237,0.32194355092346666
1789799654024312000,11.90231201171875,0.474237879737094,-0.44166357080340385,1.3495020533323288
1789799654034283300,11.912283203125,0.6608487580418586,-0.7368561851844191,1.6422639334350824
1789799654044255000,11.9222548828125,0.7881822486001998,-1.622370607702434,0.9808429284632205
1789799654054226200,11.93222607421875,0.9220833540458232,-2.305730765020847,-0.43424715706706046
1789799654064198100,11.9421982421875,0.6252221488654613,-2.3802520452588793,-1.146161500957608
1789799654074169000,11.952169189453125,0.7397778447847813,-1.54139006832242,-0.018390812215209006
1789799654084141000,11.96214111328125,1.0656500403940676,0.06494914977252483,2.1559049452126025
1789799654094112300,11.9721123046875,1.2487281414628029,0.21041268271803854,2.349079492881894
1789799654104083000,11.9820830078125,1.5529133328557014,-1.3688275160491465,-0.22300562230944632
1789799654114055200,11.99205517578125,1.0544636065997182,-1.6500316448271273,-1.1388859569966792
1789799654124026000,12.002026123046875,0.4592027346253395,-0.8803563091024756,-0.8377256663829088
1789799654133998000,12.011998046875,0.38259427284970876,-0.6543762010268867,-1.3294278180748222
1789799654143969000,12.021968994140625,0.6457587409377098,-0.3111331108346581,-2.73171161352396
1789799654153940200,12.031940185546874,1.0570016006447374,0.527310786820203,-3.528428393170237
1789799654163912000,12.041911865234376,1.0464729001067579,1.006402755524963,-3.5240228516876697
1789799654173883100,12.051883056640625,1.0333305099390446,0.14554332018345595,-4.490410553818941
1789799654183855000,12.061855224609374,1.7907061899304388,-0.951136356985569,-5.531010324108601
1789799654193826300,12.071826416015625,2.4513841214500367,-1.2988555696785449,-6.128282389774919
1789799654203798000,12.081798095703125,1.9612123941957949,-0.19067586272135376,-5.643912480667233
1789799654213769200,12.091769287109376,1.14367304514274,0.9348328724384307,-4.299949941283464
1789799654223740200,12.101740234375,0.7553495809912681,0.07744571631737053,-4.592666813200712
1789799654233712000,12.111712158203124,0.9684602706216275,-1.265951078942418,-3.9879491077035665
1789799654243683000,12.12168310546875,0.16926000359654425,-1.587131536538899,-3.003022709318995
1789799654253655300,12.1316552734375,-0.9771078335881233,-0.6085140290401876,-2.04594877897799
1789799654263626000,12.1416259765625,-0.3071592387676239,-0.6282523103415966,-2.56130536250174
1789799654273597000,12.151596923828125,0.6312018077969551,-1.1945610824674366,-3.272037803131342
1789799654283569200,12.161569091796874,0.44105785999521613,-1.3888567431211472,-3.8722833316504954
1789799654293540000,12.1715400390625,-0.22082637857422233,0.08430778410658239,-3.5672201883792876
1789799654303512000,12.181511962890625,-0.2001497935093939,0.9616671033501625,-3.822354056355357
1789799654313483000,12.19148291015625,-0.5021932966984808,0.5996401099719106,-4.483862739610672
1789799654323455000,12.201455078125,-0.34746187693104147,-0.405153018399328,-5.53869327982664
1789799654333426000,12.211426025390624,-0.07317293436899781,-0.7458079917944967,-5.83771071319282
1789799654343397000,12.221397216796875,0.056382835348695516,-0.25142712241262194,-4.988585700917244
1789799654353369000,12.231369140625,0.040895489490032196,-0.4436563520558178,-4.974976277759671
1789799654363340000,12.241340087890626,-0.01750423863902688,-0.4175006049275398,-4.748306287723779
1789799654373312000,12.25131201171875,0.11345920591950416,0.22035671523585915,-3.672034900072217
1789799654383283200,12.261283203125,0.12674779962487517,0.4744356673315167,-2.4669617759406566
1789799654393254100,12.271254150390625,-0.23224450223259627,-0.16164017624258994,-2.5444863296478983
1789799654403226000,12.28122607421875,-0.6984195600885897,-1.0586147349298,-4.078257739660144
1789799654413197000,12.291197021484376,-0.6359750135481357,-1.3531386562690138,-4.890934889504313
1789799654423169000,12.3011689453125,-0.42637372027821835,-1.0500152488887309,-4.236691813337803
1789799654433140000,12.311139892578124,-0.092748389791511,-0.12900661140233277,-1.4845061515837907
1789799654443112200,12.3211123046875,0.3097860801398754,0.34197073216885326,0.8923439762771129
1789799654453083100,12.331083251953125,0.01894671079861,-0.690289079798758,0.8109539793133735
1789799654463054000,12.34105419921875,-0.5039841256380081,-2.2026102900251745,-0.4139022881746292
1789799654473026000,12.351026123046875,-0.7754045270264148,-3.0598622023940085,-0.5643529618829488
1789799654482997200,12.360997314453124,-0.40315176157951355,-3.2561239024236794,0.3428530679613352
1789799654492969000,12.370968994140625,-0.19780279199182987,-3.1301971368581056,1.505211085960269
1789799654502940200,12.380940185546875,-0.08018763543665408,-3.507104157851636,1.8246067059665918
1789799654512911000,12.3909111328125,0.21367955729318783,-4.0613901914894575,1.8923492858499287
1789799654522883000,12.400883056640625,0.19464167934609575,-4.278151366451382,2.1087591631561518
1789799654532854000,12.41085400390625,-0.0426403055970557,-4.003759840297699,2.583926359632611
1789799654542826200,12.420826171875,-0.20433307054340838,-3.0675235308021307,2.780731372758746
1789799654552797200,12.430797119140625,0.6257312674313783,-1.914132078590989,2.0035078136116264
1789799654562769200,12.44076904296875,0.8018471282720565,-1.1454314331173896,1.3196534430354834
1789799654572740000,12.450739990234375,0.2969248450011015,-1.1444389149487018,1.300463004875183
1789799654582711000,12.4607109375,0.17371873657107353,-1.2113216631323098,1.7658908976256846
1789799654592683000,12.47068310546875,0.17446283293664455,-0.8086170607984066,2.5801035864740607
1789799654602654000,12.480654052734375,-0.08377716609491034,0.06725918028056621,3.0226053616672752
1789799654612626200,12.490626220703126,-0.30961715331375594,1.083648638421297,2.8186235887795683
1789799654622596900,12.500596923828125,-0.4177420124679804,1.7682225554436444,2.0816466998249292
1789799654632568000,12.510568115234374,0.0005061959564685822,1.9272662854522467,2.2252549602925775
1789799654642540000,12.5205400390625,0.004428337836265564,1.5910709218144417,2.5877707601010798
1789799654652511200,12.53051123046875,-0.023365668885177,0.9572592237800359,2.7678917649298906
1789799654662483200,12.540483154296876,-0.07636777575439772,-0.1422270352423191,2.930478282111883
1789799654672454400,12.550454345703125,0.010100547386938705,-1.0766577566206454,2.952712325751781
1789799654682425300,12.56042529296875,0.5515186147511005,-0.9713064538329839,2.94531052506268
1789799654692397300,12.570397216796875,0.3746142338812351,-0.32081308558881283,2.41331844855845
1789799654702368300,12.5803681640625,-0.15413372786892576,0.3172790662437677,1.9193284781903028
1789799654712340500,12.590340576171876,-0.7879471977353095,0.3410784595042467,2.034876180821657
