time,seconds_elapsed,z,y,x
1789799642180737300,0.0587373046875,7.850736881256103,6.680421182250976,-0.5960065757751465
1789799642190708200,0.068708251953125,7.902661129760742,6.434117686462402,-0.8858546142578124
1789799642200679200,0.07867919921875,7.878868750762939,6.332663391113281,-1.0619780738830567
1789799642210651100,0.088651123046875,7.724293106079101,6.315305429077148,-1.1049240661621094
1789799642220622000,0.0986220703125,7.6951137733459465,6.37755467224121,-1.2128127784729004
1789799642230594000,0.108593994140625,7.864503540802001,6.293458338928223,-1.3226467796325683
1789799642240565000,0.11856494140625,7.940818718719482,6.073341423797607,-1.2740145584106444
1789799642250536200,0.1285361328125,7.855974197387694,5.903353105926513,-1.1887211242675781
1789799642260508200,0.138508056640625,7.719803977966309,5.711068785095215,-1.1546037506103515
1789799642270479000,0.14847900390625,7.4405802093505855,5.574898565673828,-1.061080248260498
1789799642280451000,0.158451171875,6.9910688476562495,5.604526811218261,-0.7787140899658203
1789799642290422300,0.16842236328125,6.45446840057373,5.856965448760986,-0.4370914405822754
1789799642300393200,0.178393310546875,6.102371118927001,6.4609028175354,0.029628245544433593
1789799642310365200,0.188365234375,5.843498064422607,6.978499288940429,0.6602011077880859
1789799642320336100,0.198336181640625,5.565471396636963,7.184699906921386,1.1490671592712403
1789799642330308000,0.20830810546875,5.275623358154297,7.119457911682129,1.20667763671875
1789799642340279000,0.218279052734375,5.018845230102539,7.268496965026855,0.697161595916748
1789799642350250200,0.228250244140625,4.761019638824463,7.311143682098388,-0.1514332550048828
1789799642360222200,0.23822216796875,4.566191478729248,7.156268762207031,-0.7140706451416016
1789799642370193200,0.248193115234375,4.630984561157226,6.851756238555907,-1.0899603057861327
1789799642380165000,0.2581650390625,5.106682503509521,6.558765810394287,-1.2684779670715332
1789799642390136300,0.26813623046875,5.849633206176757,6.4004492256164545,-1.2198457458496093
1789799642400107300,0.278107177734375,6.714688193511963,6.498761131286621,-1.0516530792236327
1789799642410079200,0.288079345703125,7.551162398529052,6.6334349746704095,-0.834379278564453
1789799642420050200,0.29805029296875,8.169315339660644,6.738181297302246,-0.4296095603942871
1789799642430022100,0.308022216796875,8.685415435028075,6.719027684020996,-0.07122749938964844
1789799642439993000,0.3179931640625,9.221417331695555,6.517166556549072,-0.0718260498046875
1789799642449964300,0.32796435546875,9.535805937194823,4.359242672729492,-1.1694178733825682
1789799642459936300,0.337936279296875,9.836128607940672,3.968987802124023,-1.1296142707824706
1789799642469907200,0.3479072265625,9.936984352874756,4.817582653045654,-0.8315361640930176
1789799642479879200,0.357879150390625,9.313294820404051,4.2305543334960936,-1.2969091117858886
1789799642489850400,0.367850341796875,9.070432989501953,5.5732525520324705,-0.49889177093505854
1789799642499821300,0.3778212890625,8.47278040008545,7.842656450653076,0.7540238853454589
1789799642509793300,0.387793212890625,7.416638192749023,10.040982487487792,2.3300071281433103
1789799642519764200,0.39776416015625,6.893954042816162,11.126304027557373,3.608361177062988
1789799642529736200,0.407736083984375,5.559336254882812,10.345794286346434,3.511994560241699
1789799642539707100,0.41770703125,4.0158243721008295,7.457638896179199,2.0808605178833006
1789799642549678000,0.427677978515625,2.7684453071594235,4.458751679229736,1.4673463424682616
1789799642559650300,0.437650390625,3.093757457733154,3.6571430358886716,0.7386112121582031
1789799642569621000,0.44762109375,4.408473444366455,2.9933506256103515,0.7353191848754882
1789799642579593200,0.45759326171875,5.7435401451110835,2.6759692680358884,0.7643488800048828
1789799642589564200,0.467564208984375,5.40146858291626,2.1471499763488766,1.0684124908447266
1789799642599535000,0.47753515625,4.637418978118896,1.2633902885437012,0.6756137809753417
1789799642609507000,0.487507080078125,6.177788471221923,-0.2998737579345703,-0.13557166900634765
1789799642619478300,0.497478271484375,7.8261963142395015,-1.906383071899414,-0.8074445098876952
1789799642629450000,0.507449951171875,8.662371244049071,-2.6684873878479003,-1.7431284461975096
1789799642639421400,0.51742138671875,9.900023864746093,-2.067991683959961,-3.6852749053955076
1789799642649392400,0.527392333984375,11.977293080139159,0.07407061386108398,-9.054122490692139
1789799642659364400,0.5373642578125,13.357550337219237,2.7269956909179687,-14.496292501831054
1789799642669335300,0.547335205078125,13.201627954101562,3.2410008598327633,-9.84450831375122
1789799642679307500,0.5573076171875,12.120047354125976,1.6401777748107909,-1.4281412902832031
1789799642689278500,0.567278564453125,12.051064418792723,1.1984475685119629,2.8764836570739742
1789799642699249400,0.57724951171875,12.971036406707762,1.5617676704406738,4.251653235626221
1789799642709221400,0.587221435546875,13.666402351379393,1.8371008613586424,5.155015449523925
1789799642719192600,0.597192626953125,10.868478436279297,1.651699870300293,5.372738162994384
1789799642729164300,0.607164306640625,8.435969549560546,1.6539444343566894,4.965274967956542
1789799642739135500,0.617135498046875,6.281337693023681,2.3228245231628417,4.419546627044677
1789799642749106400,0.6271064453125,4.4385506027221675,2.8170775283813474,5.345504119110107
1789799642759078400,0.637078369140625,3.443011624908447,2.3255180000305176,5.1590556648254395
1789799642769049300,0.64704931640625,3.439719597625732,1.2559084083557128,2.955193036651611
1789799642779021600,0.657021484375,3.6221278366088865,0.174926358795166,3.3975217933654784
1789799642788992500,0.666992431640625,3.6062662506103513,-0.29837738189697266,5.5552960395812985
1789799642798964500,0.676964599609375,3.97736750793457,-0.023792378997802732,5.538087715148926
1789799642808935400,0.686935302734375,3.8079777404785156,0.6489782875061034,5.900061078643798
1789799642818906400,0.69690625,2.379387537384033,1.759588582611084,6.417358274841308
1789799642828878300,0.70687841796875,0.7463923675537109,2.7353753967285153,6.476016215515136
1789799642838849300,0.716849365234375,0.8200140686035156,1.512536898803711,6.015880583953857
1789799642848821500,0.726821533203125,3.076549133300781,-0.5903203468322754,5.3761798278808595
1789799642858792200,0.736792236328125,4.734982695770263,-1.6784850013732908,4.755931960296631
1789799642868763400,0.746763427734375,5.463119275665283,-2.3707085563659667,5.256918657684325
1789799642878735400,0.7567353515625,6.0145338455200195,-1.3985130447387695,7.812280017089844
1789799642888706600,0.76670654296875,4.91589455871582,0.3725976333618164,9.087940589141844
1789799642898678500,0.776678466796875,2.5704747573852536,0.28490999755859375,8.33750800628662
1789799642908649500,0.7866494140625,1.1522095489501953,-0.8426093467712402,6.931961994171142
1789799642918620400,0.796620361328125,1.4992191520690916,-1.6283564041137695,6.413168421936035
1789799642928592400,0.80659228515625,2.590825471496582,-2.099714855957031,6.640019029235839
1789799642938563300,0.816563232421875,3.436128295135498,-2.2061071922302244,7.677157260894775
1789799642948535600,0.82653564453125,4.080767092132568,-1.7782932830810545,9.713874685668944
1789799642958506200,0.83650634765625,3.861847277832031,-1.6026187362670898,10.03559553375244
1789799642968477400,0.8464775390625,3.1157541854858395,-2.025793879699707,9.84555577697754
1789799642978449400,0.856449462890625,2.3329998802185057,-2.4902690017700193,9.78629928588867
1789799642988420600,0.866420654296875,1.9301754508972166,-3.0814871742248533,10.111461798858642
1789799642998392300,0.876392333984375,2.297086855316162,-3.3927333900451657,11.167753643798827
1789799643008363500,0.886363525390625,3.161393654632568,-3.760991532897949,12.23811142349243
1789799643018334500,0.89633447265625,4.028094655609131,-3.784185361480713,11.913397823333739
1789799643028306400,0.906306396484375,4.219181875610351,-3.4804210258483885,12.317568991088866
1789799643038277400,0.91627734375,3.6454713027954098,-3.355623264312744,12.91537121810913
1789799643048249600,0.92624951171875,3.1090204933166503,-3.411737365722656,12.450896096038818
1789799643058220300,0.93622021484375,2.3956980361938474,-3.463511976623535,12.097900988769531
1789799643068191500,0.94619140625,0.7330746208190918,-3.510198908996582,13.249661624908446
1789799643078163500,0.95616357421875,-0.715716658782959,-2.4877251625061034,17.606061183166503
1789799643088134400,0.966134521484375,-2.77098914642334,-1.7761983566284179,22.091149080657956
1789799643098106400,0.9761064453125,-4.435557850646973,-0.1640028137207031,23.177817359161377
1789799643108077600,0.98607763671875,-1.8122610191345214,2.9830256309509275,24.62586045074463
1789799643118048500,0.996048583984375,-1.0579378585815429,4.68605119934082,27.45416079940796
1789799643128020500,1.0060205078125,-5.997325521087646,4.48852956237793,27.63716758880615
1789799643137991400,1.015991455078125,-5.939266130828857,4.266317720794677,25.06474754257202
1789799643147963600,1.025963623046875,-4.937592011260986,5.717054289245605,24.070555303192137
1789799643157934300,1.035934326171875,-5.4610243492126465,5.4333413925170895,24.38778702316284
1789799643167905300,1.0459052734375,-4.71762473373413,4.7393221862792965,25.298631117248533
1789799643177877500,1.05587744140625,-3.686771281433105,5.531653298187256,24.68766078109741
1789799643187848400,1.065848388671875,-4.831648587799072,6.5577183471679685,21.90350352554321
1789799643197820400,1.0758203125,-6.648698010253906,5.052364053344726,17.93361789779663
1789799643207791400,1.085791259765625,-8.148066799926758,1.1258733306884765,17.867926989746092
1789799643217762600,1.095762451171875,-9.156025698852538,-1.6029180114746093,12.637194912719727
1789799643227734300,1.105734375,-8.196699021148682,-2.924666965484619,10.869974812316894
1789799643237705500,1.11570556640625,-6.223577577972412,-2.670582314300537,14.61375802078247
1789799643247677400,1.125677490234375,0.6431424209594726,2.7603648765563964,29.649793359375
1789799643257648400,1.1356484375,3.1726164749145505,2.15777424621582,18.922273545837403
1789799643267620400,1.145620361328125,-0.6844423995971679,-1.5759832427978515,9.641001172637939
1789799643277591600,1.155591552734375,0.11821370697021484,-3.0072669227600097,7.48906279296875
1789799643287562500,1.1655625,2.677615281677246,-3.0538042175292968,7.915679601287842
1789799643297534500,1.175534423828125,2.790741310119629,-2.7540800971984862,8.63812995223999
1789799643307505400,1.18550537109375,1.523161168670654,-2.602197929382324,7.352892573547363
1789799643317477400,1.195477294921875,1.970876879119873,-3.116951286315918,4.3068695114135735
1789799643327448300,1.2054482421875,2.6376620414733885,-2.916137622070312,3.296965323638916
1789799643337419500,1.21541943359375,0.5310638557434082,-3.735403502655029,2.371007831573486
1789799643347391500,1.2253916015625,0.3295020034790039,-4.453514363098145,2.3403321228027343
1789799643357362400,1.235362548828125,1.6371850227355955,-5.071816941833496,3.250428028869629
1789799643367334400,1.24533447265625,2.223614791870117,-5.511901134490967,2.7603648765563964
1789799643377305600,1.2553056640625,1.0660182891845702,-7.468412803649902,0.373495458984375
1789799643387276300,1.2652763671875,-0.0939724151611328,-8.290970711517334,-0.033219548034667964
1789799643397248500,1.27524853515625,-1.5939397552490233,-6.419752476501465,3.8049849884033202
1789799643407219500,1.285219482421875,-2.714725407409668,-5.19691397857666,7.579443905639648
1789799643417191400,1.29519140625,-2.7705402336120604,-4.566191478729248,8.799289651489257
1789799643427162400,1.305162353515625,-2.7971757270812985,-4.500650208282471,8.621819453430176
1789799643437133300,1.31513330078125,-2.714126856994629,-3.020883944702148,10.08766941986084
1789799643447105300,1.325105224609375,-2.277185054016113,-1.0570400329589844,13.403638719177245
1789799643457076200,1.335076171875,-1.8091186294555663,-0.7615057655334472,15.26498087234497
1789799643467048400,1.34504833984375,-1.8891747474670408,-0.7507318580627441,14.797961911010741
1789799643477019400,1.355019287109375,-1.4932336479187012,-0.9416694404602051,13.51496909637451
1789799643486990300,1.364990234375,-0.8614636848449706,-1.8013374740600585,12.689268798828124
1789799643496962300,1.37496240234375,-1.1291653579711913,-2.0108301193237303,11.688043592071532
1789799643506933500,1.38493359375,-1.5058032066345215,-3.0915128936767577,10.599130749511717
1789799643516905200,1.3949052734375,-1.6657658050537107,-4.28397495803833,9.294739757537842
1789799643526876400,1.40487646484375,-0.7891887222290038,-6.334608679962158,7.090128941345214
1789799643536848400,1.414848388671875,0.7653963432312011,-8.150161726379395,4.261379679870605
1789799643546819300,1.4248193359375,0.48662148742675776,-7.558045728302002,2.476502342224121
1789799643556790300,1.434790283203125,-0.8265981231689452,-6.666953797912598,2.959083614349365
1789799643566762500,1.444762451171875,-1.2499229042053221,-5.616946732330322,5.24165562210083
1789799643576733400,1.4547333984375,-1.2922703460693359,-4.573374083709717,6.640767217254639
1789799643586705400,1.464705322265625,-1.8689736709594726,-3.175609226989746,6.943484089660644
1789799643596676400,1.47467626953125,-1.4308347671508788,-2.511517541503906,7.428160288238525
1789799643606647600,1.4846474609375,-1.1450269439697265,-3.0342016914367673,4.610783484649658
1789799643616619300,1.494619384765625,-1.671452033996582,-3.6127006675720215,2.816927890777588
1789799643626590500,1.504590576171875,-2.1971289360046384,-2.363525951385498,6.048800856781005
1789799643636562400,1.5145625,-4.046799356079101,1.364994221496582,15.976358040618896
1789799643646533400,1.524533447265625,-6.105513508605957,3.2290298515319824,21.209933232116697
1789799643656504300,1.53450439453125,-5.4779333984375,2.7697920455932614,17.62730972290039
1789799643666476500,1.5444765625,-4.169502191162109,0.8569745567321777,11.97654489212036
1789799643676447500,1.554447509765625,-3.482067039489746,0.018255787658691406,8.612990834808349
1789799643686419500,1.56441943359375,-3.201047619628906,0.4848258361816406,5.928941136169433
1789799643696390400,1.574390380859375,-4.257938014984131,-0.7425017898559569,5.186588983917236
1789799643706361600,1.584361572265625,-5.3576247650146485,-0.8680477394104004,5.824643726348876
1789799643716333300,1.594333251953125,-4.724657701110839,-0.8330325401306152,7.821856823730468
1789799643726304500,1.604304443359375,-2.1628619247436522,-1.9984101982116698,12.836212925720215
1789799643736276500,1.6142763671875,0.9279027809143066,-2.9219734886169433,17.84458352355957
1789799643746247400,1.624247314453125,2.1422119354248044,-3.2703298301696777,21.109376762390134
1789799643756218400,1.63421826171875,1.5080477706909179,-4.270806848907471,20.90901201095581
1789799643766190600,1.644190673828125,-1.375917766571045,-6.227318518066406,16.616358071899413
1789799643776161500,1.65416162109375,-4.25838692779541,-8.541164785003662,11.519850925445557
1789799643786133500,1.664133544921875,-4.205564853668212,-9.618705169677733,8.811410297393799
1789799643796104400,1.6741044921875,-2.5110686286926267,-9.44288098526001,5.425410599517822
1789799643806076400,1.684076416015625,-0.8192658805847167,-8.117241453552246,7.474248670196533
1789799643816047400,1.69404736328125,0.9727940620422363,-5.3487961463928215,11.283124236297606
1789799643826018300,1.704018310546875,0.8047510330200195,-3.0928596321105957,14.267047692871094
1789799643835990500,1.713990478515625,-0.5618892021179199,-0.9448118301391601,17.0965451423645
1789799643845961200,1.723961181640625,-2.59830735168457,-0.017357962036132813,18.49401072387695
1789799643855933400,1.733933349609375,-3.118896575164795,0.3151367935180664,18.026842124938963
1789799643865904400,1.743904296875,-2.7754782745361326,-1.3311761230468748,14.39648422012329
1789799643875875600,1.75387548828125,-2.1945850967407226,-2.96237564163208,11.40881982345581
1789799643885847300,1.763847412109375,-0.7695861961364746,-4.246415919494629,10.990881996154785
1789799643895818500,1.773818603515625,-1.2470797897338866,-5.486462741851806,10.347440299987792
1789799643905790200,1.783790283203125,-2.356343346405029,-5.191227749633788,10.681132156372069
1789799643915761400,1.793761474609375,-2.863914098358154,-3.990984529876709,12.18139877166748
1789799643925732400,1.803732421875,-2.1404162841796874,-3.8907273353576657,10.735899519348143
1789799643935704600,1.81370458984375,-0.5315127685546874,-4.748599717712402,5.972186403656005
1789799643945675300,1.82367529296875,5.459827248382568,-4.492120864868164,4.789151508331298
1789799643955647500,1.8336474609375,3.088669779205322,-1.1727099006652832,7.430105577087402
1789799643965618400,1.843618408203125,-7.515099736022949,1.617133583831787,-1.0339958419799804
1789799643975589600,1.853589599609375,-7.803601036071777,4.989815534973144,1.970876879119873
1789799643985561300,1.863561279296875,-6.678775168609619,6.396558647918701,5.735758989715576
1789799643995532500,1.873532470703125,-3.862894741058349,6.147561675262451,5.023783271026611
1789799644005504300,1.883504150390625,-4.649389986419678,5.395931991577148,8.298751866912841
1789799644015475500,1.893475341796875,-5.734561888885498,5.467907678985595,8.75948604888916
1789799644025447400,1.903447509765625,-6.2386909759521485,3.725377783203125,7.466168239593506
1789799644035418600,1.913418701171875,-5.371391424560547,2.8392238937377927,6.8587892059326165
1789799644045389300,1.923389404296875,-4.68006569519043,2.539499773406982,5.535693513488769
1789799644055361500,1.933361572265625,-4.806210195159911,2.812887675476074,4.3454760131835934
1789799644065332500,1.94333251953125,-5.280860674285888,3.840299462890625,3.6640263656616208
1789799644075304400,1.953304443359375,-5.370942511749267,3.205536747741699,3.1024364387512207
1789799644085275400,1.963275390625,-5.953182427978516,1.2502221794128416,3.5296517974853514
1789799644095246300,1.973246337890625,-6.261585529327392,-0.0818517692565918,3.9873932273864745
1789799644105218300,1.98321826171875,-4.891802904510498,-3.01983648147583,5.062240135192871
1789799644115189200,1.993189208984375,-3.595791618347168,-5.10772996673584,6.433968048858643
1789799644125161500,2.003161376953125,-0.6215946060180664,-8.480112642669678,6.4935238151550285
1789799644135132400,2.01313232421875,-1.6391303115844726,-5.10728105392456,-0.2059013427734375
1789799644145104400,2.0231044921875,-2.1875521293640134,-5.4686558670043945,1.0332476539611817
1789799644155075300,2.033075439453125,2.747047129821777,-4.600907402801513,9.40382557067871
1789799644165046500,2.043046630859375,2.9349919601440426,-3.464709077453613,10.661080717468261
1789799644175018200,2.053018310546875,1.329230834197998,-2.906111902618408,15.141978762054443
1789799644184989400,2.062989501953125,-1.3114239593505859,-2.19638074798584,15.57787310180664
1789799644194961400,2.07296142578125,-1.3412018424987793,-2.504035661315918,12.227936066436767
1789799644204932400,2.082932373046875,-1.435174257659912,-3.2513258544921873,11.44622922439575
1789799644214903300,2.0929033203125,-2.6473884857177734,-3.9276878234863277,8.126518984985351
1789799644224875500,2.10287548828125,-2.0343232231140136,-1.654692622375488,8.22946965637207
1789799644234846500,2.112846435546875,3.3596634796142575,-2.3368904579162595,8.36354494934082
1789799644244818400,2.122818359375,6.854300077819824,-9.351901322174072,7.910741560363769
1789799644254789400,2.132789306640625,5.306747979736328,-1.5204676918029785,0.9255085792541503
1789799644264761300,2.14276123046875,2.9966426528930663,-1.0468646759033202,-2.5685294685363766
1789799644274732300,2.152732177734375,0.5690718070983887,-6.799831990051269,2.6569652923583984
1789799644284703500,2.162703369140625,-2.3801357254028317,-6.524049886322021,11.024400819396972
1789799644294675500,2.172675537109375,-3.519626078033447,-3.3678935478210446,20.299238775634766
1789799644304646400,2.182646484375,-4.161870673370361,0.3277063522338867,24.883985317230223
1789799644314618400,2.192618408203125,-4.516212519073486,-0.23612813873291014,20.34158621749878
1789799644324589600,2.202589599609375,-0.9796773918151855,-4.5404538108825685,8.419359775543212
1789799644334560500,2.212560546875,0.47285482788085936,-8.656535377502442,8.0054621635437
1789799644344532500,2.222532470703125,1.6093524284362792,-10.239701225280761,9.108889853668213
1789799644354503400,2.23250341796875,1.9750667320251463,-10.620379289245605,7.676109797668457
1789799644364475400,2.242475341796875,1.4185644836425781,-10.220098699188231,8.4145713722229
1789799644374446300,2.2524462890625,-0.155772745513916,-10.474033712768554,9.741258367156982
1789799644384418600,2.26241845703125,-1.3678373359680176,-9.484779514312743,8.550143041229248
1789799644394389500,2.272389404296875,-1.3287819213867187,-9.361927041625975,6.949469593811035
1789799644404360400,2.2823603515625,-0.49320554199218747,-9.76220763168335,7.601739908599853
1789799644414332400,2.29233251953125,0.08080430603027343,-9.060556907653808,8.45302823638916
1789799644424303600,2.3023037109375,-0.10474632263183593,-7.936928141021728,10.471340235900879
1789799644434275300,2.312275390625,-0.12779051361083985,-7.886649906158447,10.478971753692626
1789799644444246500,2.32224658203125,0.5638344909667968,-8.737040408325194,9.848249253845214
1789799644454218500,2.332218505859375,-0.448164623260498,-6.9904702972412105,10.573692356872558
1789799644464189400,2.342189453125,-1.9984101982116698,-3.7761049308776853,13.00455522994995
1789799644474160400,2.352160400390625,-3.736899878692627,-3.831171569061279,12.667720983886719
1789799644484132600,2.362132568359375,-2.058564514923096,-5.303455952453613,10.295067138671874
1789799644494103600,2.372103515625,0.19437924728393555,-1.818246523284912,6.835894652557372
1789799644504075500,2.382075439453125,1.2032359718322754,2.1088427497863766,2.346916177368164
1789799644514046500,2.39204638671875,1.0045172340393065,3.1407436653137206,1.6364368347167968
1789799644524017400,2.402017333984375,-0.3555389465332031,2.0337246726989746,3.9270892730712887
1789799644533989400,2.4119892578125,-0.28655601119995117,-5.366303746032714,4.111143525695801
1789799644543960300,2.421960205078125,-2.155230406951904,-4.060566015625,7.3742907508850095
1789799644553932500,2.4319326171875,-1.932569652557373,-0.0579097526550293,8.739733885192871
1789799644563903200,2.4419033203125,-1.1508628105163574,-0.4997895965576172,7.524377267456054
1789799644573875500,2.45187548828125,-0.8954314208984374,-3.684227442169189,7.395090377807617
1789799644583846400,2.461846435546875,-1.0467150382995605,-7.036109766387939,9.17413184890747
1789799644593817600,2.471817626953125,-0.43065702362060543,-9.120411949157715,9.294590119934082
1789799644603789300,2.481789306640625,-0.34281975021362304,-9.648782328033446,9.540893615722656
1789799644613760500,2.491760498046875,-0.9524433479309081,-8.01144766769409,8.272116373443604
1789799644623732200,2.501732177734375,-0.9846154327392578,-1.5966332321166992,6.043264265441894
1789799644633703400,2.511703369140625,0.946158568572998,9.664494276428222,7.704092029571533
1789799644643675600,2.521675537109375,0.8590694831848144,6.5586161727905266,5.548412709808349
1789799644653646600,2.531646484375,-1.4381670097351074,5.456086308288574,5.685331117248535
1789799644663617500,2.541617431640625,-2.6497826873779293,2.4670751731872556,5.937021566772461
1789799644673589800,2.55158984375,-1.636287197113037,-1.3628992950439451,6.415712261199951
1789799644683560700,2.561560791015625,2.4136545486450194,-3.5314474487304683,8.151658102416992
1789799644693532700,2.57153271484375,5.747580360412598,-4.590582408142089,9.08584566268921
1789799644703503600,2.581503662109375,6.311863764190673,-3.5324949119567868,8.440757952880858
1789799644713474800,2.591474853515625,5.034706816101074,-0.6833949363708496,10.295964964294432
1789799644723446500,2.601446533203125,2.5712229454040525,-3.915567177581787,11.792789914703368
1789799644733417700,2.611417724609375,-4.6815620712280275,-7.20804337310791,9.401581006622314
1789799644743389700,2.6213896484375,-5.954978079223633,-9.04753843612671,6.82512074508667
1789799644753360600,2.631360595703125,-3.142240041351318,-9.598803368377684,8.355015605926512
1789799644763332600,2.64133251953125,0.5497685562133788,-8.327781562042237,8.40828659286499
1789799644773303800,2.6513037109375,1.2729670951843262,-7.7495818611145015,3.3452982696533202
1789799644783274800,2.661274658203125,0.3173813575744629,-8.885031998443603,1.9550152931213378
1789799644793246700,2.671246826171875,-0.3229179489135742,-7.540238853454589,4.633079487609863
1789799644803217700,2.6812177734375,-2.707542802429199,-11.305420239257812,9.39798970413208
1789799644813189600,2.691189697265625,-2.14490541229248,-20.402787997436523,15.20781930770874
1789799644823160600,2.70116064453125,0.535702621459961,-27.30542102127075,17.411831573486328
1789799644833132800,2.7111328125,4.948814831542968,-20.132692122650145,6.748655929565429
1789799644843103700,2.721103759765625,2.5954642372131347,-12.639289839172363,-3.8693291580200193
1789799644853074700,2.73107470703125,-2.074126825714111,-12.784587952423095,-5.498882662963867
1789799644863046700,2.741046630859375,-2.81558115234375,-12.586018852233886,-2.6605565948486327
1789799644873017900,2.751017822265625,-2.278531792449951,-10.919205583953858,3.2109237014770504
1789799644882989600,2.760989501953125,-1.550095937347412,-10.550199253082274,6.759729112243652
1789799644892960800,2.770960693359375,-0.628178660583496,-10.066271242523193,8.590096281433105
1789799644902931700,2.780931640625,-0.5210381362915039,-9.828946002960205,10.158597644042969
1789799644912903700,2.790903564453125,-0.04878185882568359,-10.186579875946045,10.467599295806885
1789799644922874600,2.80087451171875,0.7767688011169434,-10.288034171295166,9.854833308410644
1789799644932846800,2.810846923828125,0.93852705078125,-8.95655877304077,9.757868141174315
1789799644942817800,2.82081787109375,0.49904140853881834,-6.549937191772461,10.512640214538573
1789799644952789800,2.830789794921875,-0.2545335639953613,-4.6438533950805665,10.906336750030517
1789799644962760700,2.8407607421875,-0.4070142822265625,-4.639663542175293,9.938480728912353
1789799644972731600,2.850731689453125,-0.4613327323913574,-5.050718039703368,8.40170253829956
1789799644982703600,2.86070361328125,-0.5427355888366698,-4.96707061920166,7.278971597290039
1789799644992674600,2.870674560546875,-0.7776666267395019,-5.211578463745117,5.559186617279052
1789799645002646800,2.880646728515625,-1.5227122558593749,-5.830180317687988,5.178658190917968
1789799645012617500,2.890617431640625,-1.6129437309265136,-7.4968439483642575,6.3247325981140134
1789799645022589700,2.900589599609375,0.9344868354797363,-9.293393019104004,6.366331851959228
1789799645032560600,2.910560546875,3.2236428977966307,-10.012401705169678,6.282834069061279
1789799645042531800,2.92053173828125,2.4494179359436035,-8.881590333557128,7.491756269836426
1789799645052503600,2.930503662109375,1.2062287239074707,-8.119336380004881,8.000673760223389
1789799645062474800,2.940474853515625,0.2759317413330078,-7.688978631591796,7.707234419250488
1789799645072446500,2.950446533203125,-0.607827946472168,-7.2140288772583006,6.966677918243408
1789799645082417700,2.960417724609375,-1.4021043472290038,-6.571185731506347,7.217171266937256
1789799645092389600,2.9703896484375,-1.9437924728393554,-6.107159522247314,9.159018450927734
1789799645102360800,2.98036083984375,-0.612915625,-6.0987798164367675,10.722731410217284
1789799645112331500,2.99033154296875,1.4938321983337401,-6.598120500183105,10.324695384216309
1789799645122303700,3.0003037109375,1.707065783691406,-7.053168453216553,9.328557855987547
1789799645132274700,3.010274658203125,-0.062249243164062495,-6.968473569488525,7.528118207550048
1789799645142246700,3.02024658203125,-2.070236248016357,-6.357802508544921,6.056282736968994
1789799645152217600,3.030217529296875,-3.254617881774902,-5.886444056701659,6.553977407073974
1789799645162189800,3.04018994140625,-2.583343591308594,-6.267421395874023,6.992415586090088
1789799645172160500,3.050160400390625,-0.5799953521728515,-6.452373474121093,6.991966673278808
1789799645182131700,3.060131591796875,1.284489190673828,-6.076483813476562,6.949619231414794
1789799645192103700,3.070103759765625,1.5604209320068358,-5.398176555633545,7.511807708740234
1789799645202075000,3.080074951171875,-1.0488099647521971,-5.284900889587402,8.806921169281006
1789799645212046600,3.090046630859375,-2.8721441665649414,-5.564573571014404,10.200645810699463
1789799645222017800,3.100017822265625,-1.9505261650085448,-5.7794531700134275,11.366771656799315
1789799645231989500,3.109989501953125,-0.3263596138000488,-5.834220532989502,11.451915453338623
1789799645241960700,3.119960693359375,-0.41150341033935545,-5.773018753051757,10.810867958831787
1789799645251931600,3.129931640625,-1.9098247367858885,-5.711068785095215,9.962273107910155
1789799645261904000,3.13990380859375,-2.5002947212219238,-5.31183565826416,9.336189373779296
1789799645271874600,3.14987451171875,-1.4823101028442383,-4.340837247467041,9.592069676208496
1789799645281846800,3.1598466796875,-0.07676409072875977,-3.6563948478698727,10.180145458984374
1789799645291817700,3.169817626953125,0.5907692596435546,-4.00879140472412,10.121487518310547
1789799645301789700,3.179789794921875,0.4964975692749023,-4.604049792480469,9.664344638824462
1789799645311760600,3.1897607421875,0.010025719451904296,-4.744260227203369,10.14453170928955
1789799645321731600,3.199731689453125,-0.014215572357177733,-4.9814358291625975,10.45083988418579
1789799645331703600,3.20970361328125,0.39758711318969725,-5.628768103027343,9.843161575317382
1789799645341674500,3.219674560546875,-0.02558803024291992,-6.187664553070068,9.18700068283081
1789799645351646700,3.229646728515625,-0.9229647399902343,-6.400748500823974,8.586056066131592
1789799645361617700,3.23961767578125,-1.285835929107666,-6.011092180633544,8.049006706237792
1789799645371589600,3.249589599609375,-1.7937059562683104,-5.125836116790771,7.771428951263427
1789799645381560600,3.259560546875,-1.9026421318054199,-4.451868349456787,7.923610394287109
1789799645391531800,3.26953173828125,-1.1420341918945311,-3.995772933197021,8.489988724517822
1789799645401503500,3.27950341796875,-0.2362777763366699,-3.8118683181762694,9.58952583694458
1789799645411474700,3.289474609375,0.09337386474609374,-3.723881407165527,11.278335832977294
1789799645421446700,3.29944677734375,0.2747346405029297,-3.9405566574096675,12.344653397369385
1789799645431417600,3.30941748046875,0.34760815353393554,-4.490175576019287,12.503718170166016
1789799645441389600,3.3193896484375,0.044592005920410155,-5.229684613800049,11.497554922485351
1789799645451360800,3.32936083984375,-0.2136824981689453,-5.20948353729248,9.433753091430663
1789799645461332500,3.33933251953125,-0.5467758041381836,-3.435529744720459,8.45991156616211
1789799645471303700,3.3493037109375,-0.34611177749633787,-2.4486697479248045,8.284386656951904
1789799645481274600,3.359274658203125,-0.7650970680236816,-2.9804817916870117,8.362198210906982
1789799645491246600,3.36924658203125,-1.3346177879333496,-3.3666964469909666,7.99304224243164
1789799645501217500,3.379217529296875,-0.8283937744140625,-3.3143232856750484,7.300519412231445
1789799645511189800,3.389189697265625,-0.6172551155090331,-3.052457479095459,6.459256803894043
1789799645521160700,3.39916064453125,0.12090718383789062,-3.353079425048828,4.8898576156616205
1789799645531132700,3.409132568359375,1.2877812179565429,-3.7529111022949215,3.5284546966552734
1789799645541103600,3.419103515625,1.0880150169372558,-3.0454245117187497,3.713556412506103
1789799645551074800,3.42907470703125,0.7607575775146483,-2.005742440795898,4.169951103973388
1789799645561046500,3.439046630859375,0.6239888076782226,-1.439663385772705,4.357746296691894
1789799645571017700,3.449017822265625,-0.09187748870849609,-0.16445172653198242,6.183773975372314
1789799645580989700,3.45898974609375,-0.8072948722839355,0.6977601463317871,8.574833245849609
1789799645590960600,3.468960693359375,-1.777994007873535,0.24091654205322263,9.697115274047851
1789799645600932600,3.4789326171875,-3.603872048950195,-1.70467158203125,9.03407105178833
1789799645610903800,3.48890380859375,-3.0986954986572264,-3.449296404266357,7.816619507598877
1789799645620874800,3.498874755859375,-1.8764555511474608,-3.2932243835449215,7.658153285217285
1789799645630846700,3.5088466796875,-0.8234557334899902,-2.068590234375,7.7690347496032715
1789799645640817000,3.51881689453125,-0.37125089492797847,-0.8575731071472168,7.867645930480957
1789799645650789000,3.5287890625,-0.9265560424804687,-0.43350013809204097,8.28064571685791
1789799645660759800,3.538759765625,-1.3938742790222167,-1.2256816123962402,7.060351058197021
1789799645670732000,3.54873193359375,-1.98554136428833,-1.4692916313171387,5.87357522277832
1789799645680703000,3.558702880859375,-1.7480664871215819,-1.0995371124267577,5.144840092468262
1789799645690675000,3.568675048828125,-1.4483423667907713,-1.0643722755432128,4.181323561859131
1789799645700646000,3.57864599609375,-0.299424845123291,-1.3959692054748534,2.9397803634643553
1789799645710616800,3.588616943359375,0.6673837127685547,-1.2454337760925291,3.2118215270996093
1789799645720588800,3.5985888671875,0.9642647186279296,-0.7260416534423828,5.512649322509765
1789799645730559700,3.608559814453125,-0.979976667022705,-0.7647977928161621,7.683142765045165
1789799645740532000,3.618531982421875,-2.1957821975708005,-1.537227103424072,8.009203103637695
1789799645750503000,3.6285029296875,-2.152836205291748,-2.7346272087097168,6.575225946807861
1789799645760475000,3.638474853515625,-1.1783961296081542,-3.404105847930908,5.202899482727051
1789799645770445800,3.64844580078125,-1.3346177879333496,-3.192967189025879,5.407753362274169
1789799645780417000,3.6584169921875,-2.271498825073242,-2.4990976203918454,7.027730060577392
1789799645790388700,3.668388671875,-2.0916344253540036,-1.7200842552185058,9.27588541946411
1789799645800360000,3.67835986328125,-1.7075146965026855,-1.2123638656616211,11.688342867279053
1789799645810332000,3.688331787109375,-1.4024036224365233,-1.7848773376464844,13.065607372283935
1789799645820302800,3.698302734375,-1.5722423027038572,-3.6776433876037595,12.233622295379638
1789799645830274800,3.70827490234375,-1.3440449569702149,-5.871330658721924,11.15249060821533
1789799645840246000,3.71824609375,-1.3174094635009765,-7.082796698760986,11.144709452819823
1789799645850217700,3.7282177734375,-1.30229606552124,-7.342866854095458,9.97873324432373
1789799645860189000,3.73818896484375,-0.7395090377807617,-6.855946091461181,8.190114966583252
1789799645870160000,3.748159912109375,-0.5098153160095215,-5.72049595413208,6.972663422393798
1789799645880131800,3.7581318359375,-0.6449380722045898,-4.444087194061279,6.728754128265381
1789799645890102800,3.768102783203125,-0.5377975479125976,-3.6477158668518066,7.078756483459472
1789799645900075000,3.778074951171875,-0.29284079055786133,-3.715052788543701,7.445218975067138
1789799645910046000,3.7880458984375,-0.049530046844482416,-4.268562284851074,8.022221575164794
1789799645920018000,3.798017822265625,0.06808510971069336,-4.947019180297851,8.460510116577147
1789799645929988900,3.80798876953125,0.009726444244384765,-5.061192671966553,9.083002548217772
1789799645939960800,3.8179609375,-0.18644845428466797,-4.454561826324463,9.463231699371338
1789799645949931800,3.827931884765625,0.8078934226989746,-4.097676141357422,8.333916703796387
1789799645959903000,3.837903076171875,0.16175824966430663,-4.595071536254882,8.40813695526123
1789799645969875000,3.847875,-0.9680056587219238,-5.976974806976318,9.033472501373291
1789799645979846000,3.857845947265625,-0.503680174255371,-7.78235249633789,10.021080686187744
1789799645989817900,3.86781787109375,0.9277531433105468,-9.56917512283325,11.093982305145262
1789799645999789000,3.8777890625,1.102529864501953,-10.211419718170166,11.278036557769775
1789799646009760800,3.8877607421875,0.39489363632202146,-9.143605777740477,10.121188243103028
1789799646019732000,3.89773193359375,-0.2780266677856445,-7.573907314300537,8.694692966461181
1789799646029704000,3.907703857421875,-0.0652419952392578,-6.248567057800293,7.851036156463622
1789799646039675000,3.9176748046875,0.2367266891479492,-5.501276864624023,7.1692872337341305
1789799646049645800,3.927645751953125,-0.75971011428833,-5.084685775756836,6.459107166290283
1789799646059618000,3.9376181640625,-0.8116343627929687,-5.2439001861572265,5.600187320709228
1789799646069589000,3.947589111328125,0.26126725616455077,-6.054935998535156,5.352088173675536
1789799646079561000,3.95756103515625,0.6437409713745117,-7.391050162506103,5.801449897766113
1789799646089532000,3.967531982421875,0.10579378585815429,-9.356540087890625,7.968800950622558
1789799646099503900,3.97750390625,0.12479776153564452,-10.989984170532226,10.71884083251953
1789799646109474800,3.987474853515625,-0.027533319091796873,-11.49815347290039,12.135609664916991
1789799646119447000,3.997447021484375,-0.7209539749145507,-11.105953313446044,12.221651287078856
1789799646129418000,4.00741796875,-0.9753379013061523,-10.392930131530761,11.780220355987549
1789799646139389000,4.017388916015625,-0.9715969612121581,-9.817723182678222,11.355698474121093
1789799646149361000,4.02736083984375,-0.5476736297607422,-9.26466259918213,11.169399657440184
1789799646159332000,4.03733203125,0.5856815811157227,-8.26089355316162,10.857854166412352
1789799646169303800,4.0473037109375,0.7353191848754882,-6.940940250396728,10.2019925491333
1789799646179275000,4.05727490234375,-0.4273649963378906,-5.4619221748352045,9.618555532073975
1789799646189247000,4.0672470703125,-0.7683890953063964,-4.430021259307861,8.436268824768065
1789799646199218000,4.077218017578125,-0.608426496887207,-4.177881896972656,7.05451519165039
1789799646209190000,4.08718994140625,-0.4608838195800781,-4.37315896987915,6.4178071876525875
1789799646219161000,4.0971611328125,-0.5927145484924317,-4.8403275688171385,7.096114445495605
1789799646229132000,4.107132080078125,0.5123591552734374,-6.021566812896729,7.90999337234497
1789799646239104000,4.11710400390625,1.9017443061828612,-7.284059275817871,9.2948893951416
1789799646249075000,4.127074951171875,3.0961516593933105,-8.486846334838866,9.727342070007323
1789799646259047000,4.137046875,3.2517747673034667,-9.701454764556884,9.039607643127441
1789799646269017900,4.147017822265625,1.4847043045043944,-9.207201759338378,8.982446078491211
1789799646278990000,4.156989990234375,-0.21308394775390624,-7.932439012908935,8.536376381683349
1789799646288961000,4.1669609375,-1.1658265708923339,-6.571933919525146,8.115595439910889
1789799646298933000,4.17693310546875,-1.429338391113281,-5.522226129150391,7.462277661895752
1789799646308904000,4.186904052734375,-1.3590087173461913,-4.852747489929199,6.696731681060791
1789799646318875000,4.196875,-1.4457985275268554,-4.511723390960693,5.740397755432128
1789799646328846800,4.206846923828125,-1.2451345008850097,-4.738573998260498,4.770446807861328
1789799646338817800,4.21681787109375,-0.9706991355895995,-5.0954596832275385,4.4379520523071285
1789799646348790000,4.2267900390625,-0.6643909606933593,-5.750423474884033,4.575319372558593
1789799646358761000,4.236760986328125,-0.4086602958679199,-6.552331393432617,4.986523507690429
1789799646368733000,4.24673291015625,0.04833294601440429,-7.01007282333374,5.734112976074218
1789799646378704000,4.256703857421875,0.30960020217895506,-7.257872695159912,7.0263833221435545
1789799646388675800,4.26667578125,0.9463082061767577,-7.955632841491699,7.8064441505432125
1789799646398646800,4.276646728515625,0.8363245674133301,-9.09198080444336,8.436867375183105
1789799646408618000,4.286617919921875,-0.7034463752746581,-9.487622628784179,11.327267329406737
1789799646418590000,4.29658984375,-1.3263877197265623,-8.770259956359864,14.49225228652954
1789799646428561000,4.306560791015625,-0.44143093109130854,-7.3484034454345695,15.363143140411376
1789799646438532900,4.316532958984375,0.19722236175537108,-6.07798018951416,15.202581991577148
1789799646448504000,4.326504150390625,-0.9862614463806152,-5.361066429901123,14.845546669006346
1789799646458475800,4.336475830078125,-2.2788310676574706,-4.977245976257324,13.564050230407714
1789799646468447000,4.346447021484375,-2.2307973968505856,-5.295225884246826,11.4140571395874
1789799646478419000,4.3564189453125,-1.7917606674194335,-5.476137747192382,10.18268929824829
1789799646488390000,4.366389892578125,-1.591695191192627,-5.756857891845703,9.859621711730956
1789799646498361900,4.37636181640625,-1.0353425804138183,-6.16117869720459,9.757419228363036
1789799646508333000,4.3863330078125,-0.30406361083984373,-6.272359436798095,9.649081603240965
1789799646518303700,4.3963037109375,0.2720411636352539,-6.547542990112304,8.838045790863037
1789799646528276000,4.40627587890625,0.33952772293090816,-6.874201879119872,7.689876457214355
1789799646538247000,4.416246826171875,0.27892449340820313,-6.859836669158935,7.503128727722167
1789799646548219000,4.426218994140625,0.33788170928955075,-6.7191773216247555,7.720552165985107
1789799646558189800,4.43618994140625,0.5457283409118652,-6.573729570770263,7.751826425170898
1789799646568162000,4.446162109375,0.15502455749511718,-6.410624582672119,7.395988203430175
1789799646578133000,4.456133056640625,-0.7743745994567871,-5.82868394165039,7.446715351104736
1789799646588105000,4.46610498046875,-0.7885901718139648,-4.946270992279053,7.971045514678955
1789799646598076000,4.476075927734375,-0.4203320289611816,-4.467281022644043,8.49133546295166
1789799646608047000,4.486047119140625,-0.28655601119995117,-4.122366345977783,9.27004955291748
1789799646618018800,4.496018798828125,-0.5789478889465332,-3.904793270111084,10.265139617919921
1789799646627990000,4.505989990234375,-0.6247369956970215,-4.173542406463623,10.602123501586913
1789799646637961700,4.515961669921875,-0.6820481979370117,-4.662857370758056,10.635043774414061
1789799646647932700,4.5259326171875,-1.0383353324890137,-4.773738835144043,10.199897622680663
1789799646657904600,4.535904541015625,-1.5200187789916992,-4.469824861907958,9.75562357711792
1789799646667875800,4.545875732421875,-1.3415011177062988,-4.049792108154296,8.891466415405272
1789799646677847600,4.55584765625,-1.1770493911743163,-3.586663724517822,8.10197841796875
1789799646687818800,4.56581884765625,-0.8916904808044434,-2.8501474388122556,7.951442988586425
1789799646697790700,4.575790771484375,-0.6759130561828612,-2.9287071807861325,7.378181328582763
1789799646707761700,4.58576171875,-0.2549824768066406,-2.851943090057373,7.077110469818114
1789799646717732600,4.595732666015625,1.0134954902648925,-2.2692542610168456,6.391770244598388
1789799646727704800,4.605704833984375,1.523161168670654,-1.7185878791809082,5.2733787940979004
1789799646737675800,4.61567578125,0.4483142608642578,-1.271021806335449,5.011064074707031
1789799646747647700,4.625647705078125,-0.603338818359375,-1.075744733428955,4.893299280548096
1789799646757618700,4.63561865234375,-0.11941080780029296,-0.9745897132873534,4.706252275848389
1789799646767590700,4.645590576171875,0.07586626510620116,-1.1804910560607909,4.538957434844971
1789799646777561600,4.6555615234375,-0.6952163070678711,-2.6755203552246094,3.1771056030273437
1789799646787533800,4.665533935546875,-1.2427402992248535,-3.170970461273193,3.122637515258789
1789799646797504800,4.6755048828125,-0.9045593147277832,-1.9710265167236327,4.960187289428711
1789799646807476700,4.685476806640625,-0.2284966209411621,-0.8723872299194335,7.2441060356140135
1789799646817447700,4.69544775390625,0.044891281127929686,-0.8493430389404296,8.218695748901366
1789799646827419000,4.7054189453125,-1.5542857902526854,-1.4363713584899902,7.473500482177734
1789799646837390600,4.715390625,-1.6174328590393066,-1.2428899368286133,7.981071234130859
1789799646847361800,4.72536181640625,-1.0842740768432617,-1.9403508079528808,7.277624858856201
1789799646857333800,4.735333740234375,-1.594089392852783,-3.4400188728332517,6.7926493850708
1789799646867304700,4.7453046875,-1.3018471527099609,-2.9809307044982907,7.626430113220215
1789799646877276700,4.755276611328125,-0.8147767524719238,-2.433855625152588,7.236624155426025
1789799646887248000,4.765247802734375,-1.5505448501586914,-2.069637697601318,7.293935357666015
1789799646897219600,4.775219482421875,-1.6904560096740722,-1.9125182136535643,7.505223654174804
1789799646907190800,4.785190673828125,-2.197428211212158,-1.905036333465576,7.106439440155029
1789799646917162800,4.795162841796875,-1.9698294158935545,-1.7471686614990234,6.63358461227417
1789799646927133700,4.8051337890625,-1.7105074485778808,-2.4594436553955075,4.9528550468444825
1789799646937104600,4.815104736328125,-1.5685013626098632,-2.659060218811035,4.594921898651123
1789799646947076900,4.825076904296875,-1.0357914932250976,-1.7657237243652342,6.225672504425049
1789799646957047800,4.8350478515625,-1.686715069580078,-1.424998900604248,7.6193971458435055
1789799646967019800,4.845019775390625,-2.005742440795898,-2.1103391258239745,7.895628162384033
1789799646976990700,4.85499072265625,-1.2633902885437012,-2.9548937614440915,7.305457453155517
1789799646986962700,4.864962646484375,-1.6677110939025879,-3.2845454025268555,7.538742477416991
1789799646996933600,4.87493359375,-1.8118121063232422,-3.9782653335571285,7.221660395050049
1789799647006905900,4.88490576171875,-1.3364134391784668,-4.8317982254028315,6.6057520179748535
1789799647016876800,4.894876708984375,-0.4734533782958984,-5.006574946594238,6.841880156707763
1789799647026848800,4.904848876953125,-0.5174468338012695,-4.70505517501831,7.334936061096191
1789799647036819700,4.91481982421875,-0.9714473236083984,-4.584596903991699,6.810905172729492
1789799647046790700,4.924790771484375,-0.9793781166076659,-4.59013349533081,5.865045879364013
1789799647056762600,4.9347626953125,-0.8812158485412597,-4.1846155891418455,5.959916120147705
1789799647066733600,4.944733642578125,-1.1768997535705565,-3.5148376747131347,8.234557334899902
1789799647076705800,4.954705810546875,-0.9528922607421875,-3.4843116035461423,10.901099433898926
1789799647086676500,4.964676513671875,0.32456396255493164,-4.640411730194091,12.011560091400145
1789799647096648700,4.974648681640625,1.0185831687927245,-6.373963369750976,12.138602416992187
1789799647106619600,4.98461962890625,-0.03845686416625976,-7.66114603729248,12.708422412109375
1789799647116591600,4.994591552734375,-0.7740753242492675,-8.258200076293944,13.542053502655028
1789799647126562800,5.004562744140625,0.016160861206054686,-8.340949671173096,13.763217881011961
1789799647136534800,5.01453466796875,0.5199906730651855,-8.47876590423584,13.666103076171874
1789799647146505700,5.024505615234375,0.01092354507446289,-9.061305095672607,12.939612509918213
1789799647156476700,5.0344765625,0.5199906730651855,-9.235932179260253,11.839925759887695
1789799647166449000,5.044448974609375,1.4859014053344726,-9.114426445007323,10.659733979034423
1789799647176419800,5.054419921875,1.5089455963134766,-9.207501034545897,10.022577062225341
1789799647186391800,5.064391845703125,1.3371616271972655,-9.114426445007323,10.051457119750976
1789799647196362800,5.07436279296875,1.0070610733032226,-8.792705596923827,9.726144969177245
1789799647206334700,5.084334716796875,-0.18869301834106444,-8.284985207366942,9.347711469268798
1789799647216305700,5.0943056640625,-0.6334159767150879,-7.808838352203368,9.496151972198486
1789799647226278000,5.10427783203125,0.5017348854064941,-7.232284664916992,9.101856886291504
1789799647236248800,5.114248779296875,1.4137760803222656,-6.604554917144775,8.563760063171387
1789799647246220800,5.124220703125,1.1299135459899903,-5.934777002716064,8.261492103576659
1789799647256191700,5.134191650390625,0.3500023551940918,-5.647921716308593,8.075043649291992
1789799647266163700,5.144163818359375,-0.4147954376220703,-5.31153638305664,7.907898445892333
1789799647276134700,5.154134765625,-0.5252279891967773,-4.80710802078247,7.576301515960693
1789799647286105600,5.164105712890625,-0.11477204208374023,-4.623053768157959,7.04149672012329
1789799647296077800,5.174077880859375,0.1188122573852539,-4.618714277648926,6.615029549407959
1789799647306048500,5.184048583984375,0.007930792999267577,-4.302380383300781,6.576722322845459
1789799647316020700,5.194020751953125,-0.6491279251098633,-4.504391148376465,6.6011132522583
1789799647325991700,5.20399169921875,-1.2900257820129393,-5.085583601379394,7.119308274078369
1789799647335963600,5.213963623046875,-1.4941314735412596,-5.68832386932373,8.355913431549071
1789799647345934600,5.2239345703125,-1.1148001480102538,-6.323086584472656,9.869348155975342
1789799647355906800,5.23390673828125,0.5609913764953613,-6.964433354187011,9.64683703918457
1789799647365877500,5.24387744140625,1.729511424255371,-7.058405769348144,8.302193531799317
1789799647375849700,5.253849609375,0.618601853942871,-6.423493416595458,7.559691741943359
1789799647385820700,5.263820556640625,-0.4177881896972656,-6.067056644439697,7.115567333984375
1789799647395792600,5.273792724609375,-0.575206948852539,-6.479308242797851,6.912958018493652
1789799647405763600,5.283763671875,-0.7100304298400878,-7.2888476791381835,7.9192709037780755
1789799647415734800,5.29373486328125,-0.4563946914672851,-8.415319560241699,9.533112460327148
1789799647425706800,5.303706787109375,-0.052073886108398436,-9.354445161437988,11.264569173431395
1789799647435677700,5.313677734375,0.9829694190979004,-9.90196915359497,11.503540426635741
1789799647445649700,5.323649658203125,0.9816226806640624,-9.677363110351562,10.487650734710693
1789799647455620900,5.333620849609375,0.17552490921020505,-8.799439289093018,8.976759849548339
1789799647465592600,5.343592529296875,-0.613514175415039,-7.631218516540527,8.046163591766357
1789799647475563800,5.353563720703125,-1.1290157203674316,-6.534374880981445,7.873182521820068
1789799647485535700,5.36353564453125,-0.4246715194702148,-6.043862815856933,7.709778258514404
1789799647495506700,5.373506591796875,0.34671032791137696,-6.293757614135742,7.9004165657043455
1789799647505478700,5.383478759765625,0.21697452545166016,-6.847416748046874,8.182633086395263
1789799647515449900,5.393449951171875,-0.1640028137207031,-7.272537180328369,8.282291730499267
1789799647525420500,5.403420654296875,-0.127042325592041,-7.081449960327148,8.618228150939942
1789799647535392800,5.413392822265625,-0.37708676147460934,-6.66500850906372,8.513631465911864
1789799647545363700,5.42336376953125,-1.6811784782409667,-6.17988339767456,8.188319315338134
1789799647555335700,5.433335693359375,-2.0691887847900388,-5.529558371734619,7.8615107887268065
1789799647565306600,5.443306640625,-1.4917372718811035,-5.047276374816894,8.003217599487304
1789799647575278800,5.45327880859375,-0.7661445312499999,-4.491971227264404,9.303418738555907
1789799647585249500,5.46324951171875,0.06958148574829101,-4.5784617622375485,10.17715270690918
1789799647595221800,5.4732216796875,0.09217676391601562,-4.847809449005126,9.707739543914794
1789799647605192700,5.483192626953125,-0.5268740028381347,-4.9157449211120605,8.330026126098632
1789799647615164700,5.49316455078125,-0.985064345550537,-4.623203405761719,7.500734526062011
1789799647625135600,5.503135498046875,-1.1979986557006834,-4.459948780059814,7.326406717681884
1789799647635107800,5.51310791015625,-1.1001356628417969,-4.679167869567871,7.401674432373047
1789799647645079600,5.52307958984375,-0.860565859222412,-5.053261878967285,7.722647092437744
1789799647655050500,5.533050537109375,-0.3268085266113281,-5.157858563995361,8.012195855712891
1789799647665022700,5.543022705078125,-0.26171616897583005,-4.8503532882690426,8.407089492034912
1789799647674993400,5.552993408203125,-0.6389525680541992,-4.367772016143799,8.611344821166991
1789799647684965600,5.562965576171875,-0.6646902359008788,-4.4476784965515135,8.987982669830322
1789799647694936600,5.5729365234375,-0.4273649963378906,-5.09441222000122,9.432855265808104
1789799647704908500,5.582908447265625,-0.2319382858276367,-6.0048074012756345,9.963769483947754
1789799647714879500,5.59287939453125,-0.28865093765258787,-6.733392893981933,10.972476570892333
1789799647724851700,5.602851806640625,-0.5970540390014648,-6.90143592300415,12.061239775848389
1789799647734822400,5.612822509765625,-0.942267990875244,-6.599916151428222,12.834417274475097
1789799647744794600,5.622794677734375,-1.5445593460083007,-5.810128878784179,12.99123748321533
1789799647754765600,5.632765625,-1.3676876983642576,-5.102193375396729,12.72997022705078
1789799647764736800,5.64273681640625,-0.3318962051391601,-4.876539868927002,11.57506720123291
1789799647774708500,5.65270849609375,0.08813654861450194,-4.712088142395019,10.246434917449951
1789799647784679700,5.6626796875,-0.6232406196594238,-4.671985264587402,9.436596205902099
1789799647794651400,5.6726513671875,-1.2642881141662596,-4.586841468048095,8.9248356010437
1789799647804622600,5.68262255859375,-1.1703156990051269,-4.4184991638183595,8.711153102874755
1789799647814594600,5.692594482421875,-0.3640682899475097,-4.274248513793945,8.288576509857178
1789799647824565800,5.702565673828125,0.0770633659362793,-3.810072666931152,7.759009030151367
1789799647834537500,5.712537353515625,0.10983400115966796,-3.240851222229004,6.693140378570556
1789799647844508700,5.7225087890625,0.5639841285705566,-2.5858874305725097,6.129156249999999
1789799647854480400,5.73248046875,0.8863035270690918,-2.5014918220520017,5.709572409057617
1789799647864451600,5.74245166015625,0.6474819114685059,-2.235735437774658,5.021688344573974
1789799647874423600,5.752423583984375,0.10160393295288085,-1.44280577545166,4.115931929016113
1789799647884394800,5.762394775390625,0.027234043884277342,-1.0735001693725585,2.5411457870483396
1789799647894365400,5.772365478515625,0.18180968856811522,-1.9858406394958494,0.5606921012878417
1789799647904337700,5.782337646484375,-0.2700958747863769,-2.231994497680664,0.2545335639953613
1789799647914308600,5.79230859375,-0.9379285003662109,-0.6962637702941894,3.6548984718322752
1789799647924280600,5.802280517578125,-0.38531682968139647,-0.6177040283203125,6.705709937286376
1789799647934251500,5.81225146484375,0.4557961410522461,-1.894112788391113,7.136516598510742
1789799647944223700,5.8222236328125,-0.117465518951416,-2.0992659431457517,5.7511716629028315
1789799647954194400,5.8321943359375,-1.0416273597717285,-1.6635212409973144,4.072537023925781
1789799647964166700,5.842166748046875,-1.6300024177551269,-1.574337229156494,4.874145667266846
1789799647974137600,5.8521376953125,-2.122908684539795,-0.9829694190979004,6.534075605773926
1789799647984109600,5.862109619140625,-1.952920366668701,-0.9380781379699706,7.543530880737304
1789799647994080500,5.87208056640625,-1.2011410453796385,-2.309806051635742,6.5023524337768555
1789799648004052700,5.882052734375,-1.3504793739318848,-2.976291938781738,6.09683452758789
1789799648014023400,5.8920234375,-1.5240589942932128,-2.436848377227783,6.818087777709961
1789799648023994600,5.90199462890625,-1.333719962310791,-2.20236625213623,7.098658284759521
1789799648033966600,5.911966552734375,-1.4290391159057616,-2.6454431968688965,6.699574795532226
1789799648043937800,5.921937744140625,-1.5523405014038085,-3.061286097717285,6.1647699996948235
1789799648053909500,5.931909423828125,-1.9737199935913086,-2.9673136825561524,7.426813549804687
1789799648063880700,5.941880615234375,-2.2291513832092282,-3.042731034851074,10.168922638702393
1789799648073852400,5.951852294921875,-2.254290500640869,-3.6234745750427244,11.675773308563231
1789799648083823600,5.96182373046875,-2.488772625732422,-4.090792811584472,11.33863978729248
1789799648093795600,5.971795654296875,-2.3473650901794434,-4.652532376098632,10.137498741912841
1789799648103766800,5.981766845703125,-1.7510592391967772,-5.023334358215331,10.058041174316406
1789799648113738500,5.991738525390625,-0.8421604339599609,-5.434239218139648,10.139294393157959
1789799648123709700,6.001709716796875,-0.9712976860046386,-5.839607486724853,10.474183350372314
1789799648133681400,6.011681396484375,-1.1846809089660644,-6.037428398895264,10.630105733489989
1789799648143652600,6.021652587890625,-1.57044665145874,-6.425289067840576,9.72330185470581
1789799648153623600,6.03162353515625,-1.8499696952819824,-6.896348244476318,8.869170412445067
1789799648163595800,6.041595703125,-0.9304466201782225,-6.8381392166137696,8.449586571502685
1789799648173566500,6.05156640625,-0.5520131202697753,-6.281188055419921,8.156745780944824
1789799648183538700,6.06153857421875,-0.17462708358764648,-5.585073922729491,7.540687766265869
1789799648193509600,6.071509521484375,0.37708676147460934,-5.175366163635253,6.610839696502685
1789799648203481600,6.081481689453125,0.5066729263305664,-5.0842368629455565,6.155791743469238
1789799648213452500,6.09145263671875,0.2742857276916504,-4.9090112289428705,6.388178942108154
1789799648223424800,6.1014248046875,0.24480711975097655,-4.887164138793945,6.563554213714599
1789799648233395500,6.1113955078125,0.21921908950805663,-5.173271237182617,6.043264265441894
1789799648243367700,6.12136767578125,-0.20635025558471679,-5.3938370651245116,5.372289250183105
1789799648253338600,6.131338623046875,-0.057610477447509766,-5.096956059265136,5.312134933471679
1789799648263310600,6.141310546875,0.09756371765136718,-4.449324510192871,7.072172428894042
1789799648273281500,6.151281494140625,-0.3525461944580078,-4.510077377319336,10.373028330230712
1789799648283252500,6.16125244140625,-0.2841618095397949,-6.40359161529541,12.950236779785156
1789799648293224400,6.171224365234375,-0.04144961624145507,-8.448539108276366,14.255076684570312
1789799648303195400,6.1811953125,0.448164623260498,-9.307458953857422,14.994436084747313
1789799648313167600,6.191167724609375,0.9686042091369629,-9.62723451309204,15.166519329071043
1789799648323138600,6.201138671875,0.4478653480529785,-9.141810126495361,14.229039741516113
1789799648333110500,6.211110595703125,-0.47928924484252927,-8.25460877380371,12.778901723480224
1789799648343081500,6.22108154296875,-0.8462006492614745,-7.790881839752196,11.562796917724608
1789799648353053700,6.2310537109375,-0.5843348426818847,-8.035688959503174,11.099518896484375
1789799648363024400,6.2410244140625,-0.31498715591430665,-8.616582137298584,11.446528499603271
1789799648372996600,6.25099658203125,0.21173720932006834,-9.04095438156128,12.328941448974609
1789799648382967600,6.260967529296875,1.1002853004455566,-8.486547059631347,12.222399475097655
1789799648392939500,6.270939453125,1.3931260910034178,-7.153126372528075,11.275791993713378
1789799648402910500,6.280910400390625,1.252017830657959,-6.375908658599853,9.94012674255371
1789799648412881700,6.290881591796875,1.4450503395080565,-6.18646745223999,7.94201581954956
1789799648422853600,6.300853515625,0.8927379440307617,-5.9974751586914055,6.231508370971679
1789799648432824600,6.310824462890625,-0.19901801300048827,-5.73994884262085,6.573879208374023
1789799648442796800,6.320796875,-0.5520131202697753,-5.898265427398681,7.596801867675781
1789799648452767500,6.330767578125,0.17223288192749023,-6.451924561309814,7.335833886718749
1789799648462739700,6.34073974609375,0.0056862289428710935,-6.697030956268311,7.410951963806152
1789799648472710700,6.350710693359375,-0.702847824859619,-5.989843640899658,8.001870861053467
1789799648482682600,6.3606826171875,-0.6139630882263183,-5.272181693267822,7.646631189727783
1789799648492653600,6.370653564453125,-0.04668693237304687,-4.762516014862061,6.712144354248046
1789799648502625800,6.380625732421875,1.1182418128967284,-4.497956731414795,5.255422281646728
1789799648512596500,6.390596435546875,1.2110171272277832,-4.472518338775634,4.635772964477539
1789799648522568700,6.400568603515625,-0.0570119270324707,-4.279934742736816,5.550657273864746
1789799648532539600,6.41053955078125,-0.23358429946899412,-4.775085573577881,6.067505557250977
1789799648542510600,6.420510498046875,0.48766895065307614,-5.727080008697509,6.317250717926025
1789799648552482600,6.430482666015625,-0.37454292221069335,-6.201281575012207,7.554304788208007
1789799648562453500,6.44045361328125,-1.3018471527099609,-6.381594887542724,8.4015529006958
1789799648572425700,6.45042578125,-0.28266543350219725,-6.556521246337891,8.681674494934082
1789799648582396400,6.460396484375,1.0913070442199706,-6.426186893463134,8.933215306854247
1789799648592368600,6.47036865234375,-0.39668928756713867,-6.010792905426025,10.155455254364012
1789799648602339600,6.480339599609375,-1.952321816253662,-5.652410844421387,11.585990746307372
1789799648612311600,6.4903115234375,-1.6524480583190917,-6.561309649658202,12.516886279296875
1789799648622282500,6.500282470703125,-0.4816834465026855,-7.904007868194579,13.199981940460205
1789799648632254700,6.510254638671875,0.4129997863769531,-8.87336026535034,12.437129436492919
1789799648642225400,6.520225341796875,-0.2798223190307617,-8.438663026428221,10.448595320129394
1789799648652197600,6.53019775390625,-1.4526818572998046,-6.810456259918213,9.789441675567627
1789799648662168600,6.54016845703125,-1.2810475257873535,-6.041169338989257,9.300425986480713
1789799648672139500,6.550139404296875,-1.159990704345703,-6.462848106384277,9.475950895690918
1789799648682111500,6.560111572265625,-0.646733723449707,-7.10539197692871,10.806977381134033
1789799648692082700,6.570082763671875,1.308131932067871,-7.378929516601562,11.295843432617186
1789799648702054400,6.580054443359375,2.825606871795654,-6.669198361968994,10.498723917388915
1789799648712025600,6.590025634765625,1.652896971130371,-6.7465610031127925,8.310273962402343
1789799648721997600,6.59999755859375,0.03172317199707031,-6.852803701782226,7.252036828613281
1789799648731968800,6.60996875,0.08469488372802735,-6.526893000793456,6.312013401794434
1789799648741940500,6.6199404296875,0.44322658233642576,-6.118531980133056,5.858761100006103
1789799648751911700,6.62991162109375,0.014065934753417967,-5.9105357109069825,6.666804160308837
1789799648761883400,6.63988330078125,-0.049829322052001954,-5.021538706970214,9.213336901092529
1789799648771854600,6.6498544921875,0.7624035911560059,-3.975272581481933,12.46241819152832
1789799648781826600,6.65982666015625,1.6748936988830565,-4.590881683349609,13.244274671173095
1789799648791797800,6.6697978515625,1.5536872398376464,-6.84352617034912,9.85752678527832
1789799648801769500,6.67976953125,0.027533319091796873,-7.276278120422363,7.31024585647583
1789799648811740700,6.68974072265625,-0.8295908752441405,-5.217863243103027,6.684012484741211
1789799648821711600,6.699711669921875,-0.48811786346435543,-3.19236863861084,6.783521491241455
1789799648831683600,6.70968359375,-0.09068038787841796,-2.6702830390930172,7.5427826927185055
1789799648841654500,6.719654541015625,0.27578210372924805,-2.443282794189453,9.872340908050537
1789799648851626800,6.729626708984375,0.5312134933471679,-2.1109376762390135,12.017994508361816
1789799648861597400,6.739597412109375,0.1792658493041992,-2.947711156463623,10.760739361572265
1789799648871569700,6.749569580078125,0.4004302276611328,-5.501576139831543,5.994482406616211
1789799648881540600,6.75954052734375,0.016759411621093748,-5.890484272003174,3.4084453384399414
1789799648891512600,6.7695126953125,0.2829647087097168,-3.2207997833251953,5.268740028381347
1789799648901483500,6.7794833984375,1.1155483360290526,-0.7957727767944336,7.587524336242676
1789799648911455700,6.789455810546875,0.9449614677429199,-0.9442132797241211,8.32553699798584
1789799648921426400,6.799426513671875,-0.18315642700195311,-2.2150854484558105,7.848941230010986
1789799648931398700,6.809398681640625,-0.8147767524719238,-2.698564546203613,6.605602380371093
1789799648941369600,6.81936962890625,-0.7653963432312011,-1.9587562332153319,6.8408326934814445
1789799648951340500,6.829340576171875,-0.2522889999389648,-2.780416315460205,5.63744708404541
1789799648961312500,6.8393125,-0.34925416717529295,-4.029441394042968,4.618863915252685
1789799648971283500,6.849283447265625,-0.5482721801757812,-3.4980782630920406,5.460575436401367
1789799648981255400,6.85925537109375,-1.4194623092651366,-1.421856510925293,8.71489404296875
1789799648991226400,6.869226318359375,-1.0817302375793456,-0.6114192489624023,10.12522845840454
1789799649001198600,6.879198486328125,-0.8447042732238769,-2.2034137153625486,8.275857313537598
1789799649011169500,6.88916943359375,-0.9364321243286132,-3.659537237548828,8.341099308776855
1789799649021141500,6.8991416015625,-1.047762501525879,-4.212148908233642,8.354716330718993
1789799649031112400,6.909112548828125,-2.021903302001953,-3.367743910217285,8.342595684814453
1789799649041084400,6.91908447265625,-1.3391069160461424,-3.2137668159484862,7.350498371887206
1789799649051055400,6.929055419921875,-0.6844423995971679,-3.873219735717773,6.2401873519897455
1789799649061027600,6.939027587890625,-1.0594342346191405,-2.5194483345031737,6.921936274719238
1789799649070998500,6.94899853515625,-1.486200680541992,-0.1240495735168457,8.237250811767577
1789799649080969500,6.958969482421875,-2.155380044555664,-0.12853870162963865,7.457638896179199
1789799649090941400,6.96894140625,-2.6713305023193357,-1.6353893714904784,5.649717367553711
1789799649100912600,6.97891259765625,-1.324741706085205,-2.4494179359436035,4.574122271728515
1789799649110884600,6.988884521484375,-0.620547142791748,-2.262670206451416,4.205564853668212
1789799649120855600,6.99885546875,-1.372027188873291,-1.735197653198242,4.352957893371582
1789799649130827800,7.008827880859375,-1.723226644897461,-1.433827519226074,4.573822996520996
1789799649140798500,7.018798583984375,-1.5515923133850096,-1.6021698234558104,4.299836544036865
1789799649150770700,7.028770751953125,-0.9389759635925292,-1.8891747474670408,4.105906209564209
1789799649160741600,7.03874169921875,-0.6109703361511231,-1.8390461502075195,4.5036429603576655
1789799649170713600,7.048713623046875,-1.0082581741333008,-1.753004528045654,4.917839847564697
1789799649180684500,7.0586845703125,-1.2485761657714842,-1.9137153144836425,5.486762017059326
1789799649190656800,7.06865673828125,-0.5705681831359863,-2.136226431274414,6.157587394714355
1789799649200627500,7.07862744140625,-0.3537432952880859,-2.5151088439941405,6.40972675704956
1789799649210598400,7.088598388671875,-0.15771803436279297,-2.8794764091491696,6.880785933685302
1789799649220570600,7.098570556640625,-0.058957215881347655,-3.2893338058471677,7.711124996948242
1789799649230541600,7.10854150390625,-0.5301660301208496,-3.7958570945739742,9.03945800552368
1789799649240513500,7.118513427734375,-0.7369651985168456,-4.489277750396728,10.153659603118896
1789799649250484500,7.128484375,-0.49679684448242184,-5.534646050262451,10.875511403656006
1789799649260456400,7.13845654296875,-0.1183633445739746,-6.439654277801513,12.36036534576416
1789799649270427400,7.148427490234375,0.3899555953979492,-6.947973217773437,13.730147970581054
1789799649280399600,7.158399658203125,0.8875006278991698,-7.539341027832031,13.5852987701416
1789799649290370600,7.16837060546875,0.44547114639282226,-8.4528785987854,13.6236059967041
1789799649300342500,7.178342529296875,0.21862053909301757,-9.715969612121581,14.600140998840331
1789799649310313500,7.1883134765625,1.0341454795837401,-10.7130049659729,15.119233846282958
1789799649320285400,7.198285400390625,1.6491560310363769,-10.897059218597411,14.557195006561278
1789799649330256400,7.20825634765625,1.4263456390380858,-10.61065284500122,13.447033624267577
1789799649340227600,7.2182275390625,1.0920552322387695,-9.969455712890625,11.703007352447509
1789799649350199600,7.228199462890625,0.6253355461120605,-8.560468035888672,9.69187795791626
1789799649360170500,7.23817041015625,0.19722236175537108,-6.704961749267578,7.936329590606689
1789799649370142500,7.248142578125,-0.13242927932739257,-4.90946014175415,6.534075605773926
1789799649380113700,7.25811376953125,-0.2237082176208496,-3.655497022247314,5.453991381835937
1789799649390085400,7.26808544921875,-0.3532943824768066,-2.9103017555236814,4.55212554397583
1789799649400056600,7.278056640625,0.0818517692565918,-2.4142530990600584,4.00265626296997
1789799649410028500,7.288028564453125,0.4786906944274902,-2.2451626068115234,3.948487450408935
1789799649419999500,7.29799951171875,-0.10205284576416015,-2.4594436553955075,4.627692533874511
1789799649429971500,7.307971435546875,-0.870142665863037,-3.1070752044677734,6.532429592132568
1789799649439942700,7.317942626953125,-0.5568015235900878,-5.014805014801025,8.864531646728516
1789799649449913600,7.32791357421875,0.6304232246398925,-7.517793212890624,10.251522595977782
1789799649459885600,7.337885498046875,1.6138415565490722,-9.452757067108154,11.971756488800049
1789799649469856500,7.3478564453125,1.7616835090637206,-9.979930345153807,13.230508011627197
1789799649479828500,7.357828369140625,1.4188637588500976,-8.90583162536621,12.64751990737915
1789799649489799400,7.36779931640625,0.0383072265625,-7.454047593688965,11.896189498901366
1789799649499771600,7.377771728515625,-2.0810101554870606,-6.293009426116943,12.279710677337645
1789799649509742600,7.38774267578125,-2.5451860023498534,-5.63086302947998,13.098527645111083
1789799649519714600,7.397714599609375,-0.26171616897583005,-6.551882480621337,12.573898206329345
1789799649529685500,7.407685546875,1.0790367607116698,-8.140884194946288,11.921777529144286
1789799649539657500,7.417657470703125,0.689530078125,-8.987234481811523,12.183493698120117
1789799649549628400,7.42762841796875,0.9587281272888183,-10.052205307769775,12.141146256256103
1789799649559600600,7.4376005859375,1.1119570335388183,-10.890624801635742,11.877634436035155
1789799649569571600,7.447571533203125,1.287182667541504,-10.064625228881836,10.739640459442137
1789799649579542500,7.45754248046875,1.2780547737121581,-8.520814070892333,8.790760308074951
1789799649589514500,7.467514404296875,0.9466074813842773,-7.017105790710449,7.3265563552856445
1789799649599485700,7.477485595703125,0.8951321456909179,-5.965901624298096,6.098330903625488
1789799649609457400,7.48745751953125,0.5009866973876953,-5.454889207458495,5.175216526031494
1789799649619428600,7.4974287109375,-0.25797522888183594,-5.12613539199829,5.4789808616638185
1789799649629400600,7.507400634765625,0.032172084808349606,-5.299565374755859,5.757755717468261
1789799649639371500,7.51737158203125,1.016338604736328,-5.436633419799804,6.02680412902832
1789799649649343200,7.52734326171875,0.7202057868957519,-5.780500633239746,5.916820490264892
1789799649659314200,7.537314208984375,-0.5267243652343749,-6.147412037658691,6.952013433074951
1789799649669286100,7.5472861328125,-1.2246341491699217,-6.611587884521484,9.01461816329956
1789799649679257000,7.557257080078125,-0.5104138664245605,-6.785466780090331,11.165509079742431
1789799649689228000,7.56722802734375,0.7576151878356933,-6.264877556610107,12.636745999908447
1789799649699200300,7.5772001953125,1.5649100601196289,-5.558588066864013,12.699144880676268
1789799649709171000,7.5871708984375,1.8070237030029295,-5.505017804718017,10.0357451713562
1789799649719143200,7.59714306640625,0.3404255485534668,-5.635052882385254,7.537246101379394
1789799649729114000,7.607114013671875,-1.7705121276855467,-5.251531703948975,7.784447422790527
1789799649739086000,7.617086181640625,-2.4160487503051757,-5.4896051315307615,8.627954595184326
1789799649749057000,7.62705712890625,-2.034023947906494,-6.702417910003661,9.794529354095458
1789799649759029200,7.637029296875,-0.9059060531616211,-7.745541645812988,12.157007842254638
1789799649769000200,7.647000244140625,0.8900444671630859,-7.893084323120116,13.866018914794921
1789799649778972200,7.65697216796875,1.744774459838867,-7.564330507659911,12.407351553344725
1789799649788943400,7.666943359375,1.4446014266967773,-7.133074933624267,8.593089033508301
1789799649798915000,7.6769150390625,0.44502223358154297,-5.523872142791748,7.487865692138671
1789799649808886300,7.68688623046875,-0.2581248664855957,-4.74351203918457,6.959345675659179
1789799649818857200,7.696857177734375,-0.5602431884765625,-5.0945618576049805,6.8411319686889644
1789799649828829200,7.7068291015625,-0.6793547210693359,-5.5558945899963375,7.42516753616333
1789799649838800100,7.716800048828125,-0.4586392555236816,-5.341314266204834,8.349030101776123
1789799649848772400,7.7267724609375,0.4626794708251953,-5.1405006019592285,8.877699755859375
1789799649858743300,7.736743408203125,1.1990461189270019,-5.149029945373535,8.992022885131835
1789799649868715300,7.74671533203125,0.8530839790344238,-5.125686479187012,8.60625714263916
1789799649878686200,7.756686279296875,0.155772745513916,-4.959289463806152,7.821707186126709
1789799649888658200,7.766658203125,-0.32127193527221676,-4.7399207366943354,7.562834131622314
1789799649898629000,7.776629150390625,-0.32785598983764647,-4.137928656768799,8.479514092254638
1789799649908601300,7.786601318359375,-0.33518823242187495,-3.247884189605713,9.94102456817627
1789799649918572300,7.796572265625,-0.9039607643127441,-3.0641292121887207,9.83792425918579
1789799649928543000,7.80654296875,-1.1875240234375,-4.229057957458496,8.066215030670165
1789799649938515200,7.81651513671875,-1.2298714653015137,-5.115660759735107,7.46272657470703
1789799649948486100,7.826486083984375,-0.859967308807373,-5.025578922271729,7.4512044792175285
1789799649958458000,7.8364580078125,0.14634557647705076,-4.074931225585937,7.959822694396972
1789799649968429000,7.846428955078125,0.1984194625854492,-2.8501474388122556,9.667038115692138
1789799649978401300,7.8564013671875,-0.6139630882263183,-2.124105785369873,10.158597644042969
1789799649988372000,7.8663720703125,-0.42886137237548827,-2.3671172538757324,8.520963708496094
1789799649998344200,7.87634423828125,0.6121674369812011,-2.7301380805969235,6.766013891601562
1789799650008315100,7.886315185546875,0.9614216041564941,-2.989759323120117,5.428552989196777
1789799650018287000,7.896287109375,0.45190556335449217,-3.4771289985656737,4.20092608795166
1789799650028258000,7.906258056640625,-0.45549686584472654,-2.6605565948486327,4.120570694732666
1789799650038229200,7.916229248046875,-1.0504559783935545,-1.5263035583496092,4.929511580657959
1789799650048201000,7.926200927734375,-1.126172605895996,-1.4701894569396972,5.097554609680175
1789799650058172200,7.936172119140625,-0.3896563201904297,-2.288108599090576,4.867860887908935
1789799650068144000,7.94614404296875,-0.1945288848876953,-2.267757884979248,4.570530969238281
1789799650078115300,7.956115234375,-0.014215572357177733,-1.9143138648986815,4.354753544616699
1789799650088087000,7.966087158203125,-0.3076549133300781,-2.4564509033203126,3.616740882873535
1789799650098058200,7.976058349609375,-1.3928268157958983,-1.3896844261169432,4.478503842926025
1789799650108030200,7.9860302734375,-1.4535796829223633,-0.13377601776123046,6.14157617111206
1789799650118001200,7.996001220703125,-1.1385925270080566,-0.6908768165588378,4.4306198097229
1789799650127973000,8.00597314453125,-1.6466121917724608,-1.351526837158203,2.204461178588867
1789799650137944300,8.0159443359375,-1.6895581840515135,-0.7083844161987304,2.6213515426635743
1789799650147915000,8.0259150390625,-1.4859014053344726,0.222810391998291,4.8898576156616205
1789799650157887200,8.03588720703125,-1.6537947967529296,-0.2567781280517578,5.628768103027343
1789799650167858200,8.045858154296875,-1.314566349029541,-2.4070704940795897,4.096628678131103
1789799650177830100,8.055830078125,-0.09756371765136718,-4.4306198097229,4.01567473449707
1789799650187801000,8.065801025390625,0.19228432083129882,-4.008342491912842,7.417386380767822
1789799650197773300,8.075773193359375,0.00029927520751953123,-1.7969979835510252,11.522694039916992
1789799650207744000,8.085743896484376,-0.7493851196289062,-2.0028993263244628,12.119149528503417
1789799650217716200,8.09571630859375,-2.296937217712402,-4.380940125274658,10.022577062225341
1789799650227687200,8.105687255859374,-2.975693388366699,-5.727528921508789,8.992022885131835
1789799650237659100,8.1156591796875,-1.6744447860717773,-5.38186605682373,9.795576817321777
1789799650247630000,8.125630126953125,-0.8897451919555663,-5.20963317489624,10.434978298187255
1789799650257601300,8.135601318359376,-0.7003039855957031,-5.537189889526367,10.537330419158934
1789799650267573000,8.145572998046875,-0.0713771369934082,-5.668571705627441,10.362254422760008
1789799650277544200,8.155544189453124,-0.809539436340332,-5.675155760192871,9.487772266387939
1789799650287516200,8.16551611328125,-1.696291876220703,-5.533299311828613,8.116044352722167
1789799650297487400,8.1754873046875,-1.387888774871826,-5.084087225341796,7.367856333923339
1789799650307459000,8.185458984375,-1.1029787773132325,-4.553771557617187,7.107636540985107
1789799650317430300,8.19543017578125,-0.2693476867675781,-4.270507573699951,6.740575498962402
1789799650327402200,8.20540234375,0.4703109886169433,-4.323329647827149,6.849212399291992
1789799650337373200,8.215373291015625,0.3489548919677734,-4.350264416503906,8.081478066253661
1789799650347345200,8.22534521484375,-0.12419921112060546,-4.603600879669189,9.172336197662354
1789799650357316400,8.23531640625,-0.20605098037719724,-5.664381852722167,8.623166191864014
1789799650367287000,8.245287109375,0.16475100173950194,-6.798036338806152,7.402422620391845
1789799650377259300,8.25525927734375,0.22221184158325194,-7.051372801971435,7.612214540863037
1789799650387230200,8.265230224609375,0.7218518005371093,-6.590488982391357,8.389731529998778
1789799650397202200,8.2752021484375,1.0643722755432128,-6.1559413810729975,8.39526812133789
1789799650407173000,8.285173095703126,0.3022679595947265,-5.953481703186035,7.9092451843261715
1789799650417145300,8.295145263671875,-0.8677484642028808,-5.707178207397461,8.544307174682617
1789799650427116000,8.305115966796874,-1.8326117332458496,-5.863549503326416,12.310386386108398
1789799650437088300,8.315088134765626,-0.8390180442810058,-8.1594392578125,16.338181766510008
1789799650447059200,8.32505908203125,1.343895319366455,-10.952574769592285,18.50822629623413
1789799650457031200,8.33503125,1.7331027267456054,-11.53646069946289,17.91880377502441
1789799650467002000,8.345002197265625,1.5720926651000975,-10.511293476104736,15.389778633880614
1789799650476973000,8.35497314453125,1.1993453941345213,-10.181791472625731,13.736732025146484
1789799650486945300,8.3649453125,0.6733692169189452,-10.450690246582031,12.833369811248778
1789799650496916000,8.374916015625,0.25258827514648435,-10.22773021697998,11.937639115142822
1789799650506888200,8.38488818359375,0.46716859893798823,-8.930521829986573,10.315118577575683
1789799650516859100,8.394859130859375,0.13691840744018555,-7.595455129241943,9.016713089752196
1789799650526831000,8.4048310546875,-0.08334814529418945,-6.438457176971435,8.053495834350585
1789799650536802300,8.41480224609375,0.18914193115234373,-5.6681227928161615,6.24377865447998
1789799650546774300,8.424774169921875,-0.6748655929565429,-5.420771833801269,5.244199461364746
1789799650556745200,8.4347451171875,-1.3997101455688477,-5.334730211639404,5.543025756072998
1789799650566717200,8.44471728515625,-0.8671499137878418,-5.443067836761474,5.893626661682129
1789799650576688400,8.4546884765625,0.24615385818481444,-5.429450814819336,5.505915630340576
1789799650586659000,8.4646591796875,1.2277765388488768,-5.331438184356689,4.810549685668945
1789799650596631300,8.47463134765625,1.3856442108154297,-5.332485647583008,4.820425767517089
1789799650606602200,8.484602294921874,0.8426093467712402,-5.6766521362304685,5.7912745407104484
1789799650616574200,8.49457421875,0.7906850982666015,-6.629245121765137,6.874501154327392
1789799650626545200,8.504545166015625,1.324143155670166,-8.316708379364012,7.336881349945068
1789799650636517400,8.514517333984376,0.4400841926574707,-8.783278427886962,8.902539598083495
1789799650646487800,8.52448779296875,0.16909049224853515,-8.098387115478515,9.948955361175537
1789799650656459800,8.534459716796874,0.10295067138671875,-7.560739205169678,10.02377416305542
1789799650666430700,8.5444306640625,-0.4535515769958496,-7.285256376647949,9.565434182739256
1789799650676402700,8.554402587890625,-1.7776947326660155,-6.577620148468017,10.217854135131835
1789799650686373600,8.56437353515625,-1.0366893188476562,-6.0339867340087885,9.469516478729247
1789799650696344800,8.5743447265625,-0.4164414512634277,-6.101622930908203,8.733598743438721
1789799650706316800,8.58431689453125,-1.1927613395690917,-6.20517215270996,9.9208234916687
1789799650716287700,8.594287841796875,-2.411409984588623,-6.392817707824706,12.075305710601805
1789799650726259700,8.604259765625,-2.2979846809387205,-6.67129328842163,13.36308692855835
1789799650736231000,8.61423095703125,-0.514603719329834,-6.967575743865966,12.08533143005371
1789799650746202600,8.62420263671875,1.0582371337890624,-7.157765138244629,8.699032456970214
1789799650756173800,8.634173828125,-0.36212300109863277,-6.475866577911376,7.402721895599365
1789799650766145800,8.644145751953126,-2.510769353485107,-5.562329006958008,7.4676646156311035
1789799650776116700,8.65411669921875,-2.4973019691467284,-5.281159949493408,7.551012760925293
1789799650786087700,8.664087646484376,-1.6651672546386718,-5.515642074584961,8.958204786682128
1789799650796060000,8.674059814453125,-0.08200140686035155,-5.981314297485351,10.377816733551025
1789799650806030800,8.68403076171875,0.4116530479431152,-6.368875691223145,10.896759943389892
1789799650816002800,8.6940029296875,0.25363573837280273,-6.453121662139893,10.503961233520506
1789799650825973800,8.703973876953125,1.0567407577514647,-6.368576416015625,9.412055638885498
1789799650835945700,8.71394580078125,1.0256161361694336,-6.395361547088623,9.03272431335449
1789799650845916700,8.723916748046875,0.6661866119384765,-6.706158850097656,9.520991814422606
1789799650855889000,8.733888916015625,0.48332946014404293,-7.044339834594727,10.45113915939331
1789799650865859800,8.74385986328125,0.5351040710449219,-6.716184569549561,11.183016679382323
1789799650875831800,8.753831787109375,0.7921814743041992,-5.517288088226318,11.652579479980469
1789799650885802800,8.763802734375,0.8125321884155273,-4.801870704650879,11.22970361175537
1789799650895774000,8.77377392578125,0.6398503936767578,-5.1416977027893065,10.045770890808106
1789799650905745700,8.78374560546875,0.10773907470703124,-5.388899024200439,9.502436751556395
1789799650915716900,8.793716796875,0.11701660614013672,-5.310937832641601,10.062380664825438
1789799650925688800,8.803688720703125,0.48063598327636714,-5.243151998138427,11.679514248657226
1789799650935659800,8.81365966796875,1.2373533454895018,-5.43289247970581,12.631508683776854
1789799650945631700,8.8236318359375,1.4847043045043944,-6.133046827697753,11.772439200592041
1789799650955603000,8.83360302734375,1.1572972274780273,-6.656030252838135,9.52578021774292
1789799650965574700,8.84357470703125,-0.1680430290222168,-5.818658222198486,7.761552869415283
1789799650975545900,8.8535458984375,-1.0639233627319336,-4.777779050445556,6.7556888969421385
1789799650985516800,8.863516845703124,-0.8467991996765136,-4.001758437347412,5.815515832519531
1789799650995488800,8.87348876953125,-0.7640496047973633,-2.8075007217407224,5.748178910827637
1789799651005459700,8.883459716796875,-0.7203554244995117,-2.5329157188415525,6.092495037078857
1789799651015432000,8.893431884765626,-0.6992565223693847,-2.8960861831665037,5.089324541473388
1789799651025403000,8.90340283203125,-0.4565443290710449,-3.1200936759948728,3.539677516937256
1789799651035374800,8.913374755859374,-0.42003275375366206,-2.335394081878662,3.4657565406799313
1789799651045345800,8.923345703125,-0.2467524085998535,-1.540519130706787,4.011634519195557
1789799651055317800,8.93331787109375,-0.25139117431640623,-0.7764695259094238,4.696675469207763
1789799651065288700,8.943288818359376,-0.3312976547241211,-0.19288287124633788,5.632209767913818
1789799651075261000,8.953260986328125,-0.04369418029785156,-0.4468178848266601,5.29268204498291
1789799651085231900,8.96323193359375,-0.35314474487304687,-1.3468880714416502,4.23309817276001
1789799651095202600,8.97320263671875,-0.919971987915039,-2.204610816192627,3.8500259071350094
1789799651105174800,8.9831748046875,-0.5057751007080078,-3.052457479095459,4.177133708953857
1789799651115145700,8.993145751953126,-0.6156091018676757,-3.5851673484802244,5.034407540893555
1789799651125117700,9.00311767578125,-2.3485621910095213,-2.667439924621582,7.237222705841064
1789799651135088600,9.013088623046874,-2.1154268043518063,-1.7955016075134276,9.521440727233886
1789799651145060900,9.023060791015626,-0.7594108390808105,-3.416226493835449,8.560019123077392
1789799651155031800,9.03303173828125,-1.0488099647521971,-4.247613020324707,7.878719113159179
1789799651165003800,9.043003662109374,-1.9164087913513181,-2.8603227958679196,7.20116004333496
1789799651174974700,9.052974609375,-1.6208745239257811,-1.8851345321655273,6.5859998542785645
1789799651184946000,9.06294580078125,-1.648407843017578,-1.922244657897949,5.810128878784179
1789799651194917600,9.072917724609376,-1.9566613067626952,-1.4737807594299315,7.099107197570801
1789799651204888800,9.082888916015625,-1.481711552429199,-1.2600982612609863,8.470236560821533
1789799651214860800,9.09286083984375,-2.1173720932006836,-1.8366519485473631,7.4597338226318355
1789799651224831700,9.102831787109375,-3.1370027252197263,-2.180968074798584,6.466439408874511
1789799651234804000,9.112803955078125,-1.748665037536621,-2.5182512336730953,5.786935050201416
1789799651244775000,9.12277490234375,-0.9323919090270996,-2.858676782226562,5.095010770416259
1789799651254747000,9.132746826171875,-0.6030395431518555,-2.627935597229004,5.473593907928467
1789799651264717800,9.1427177734375,-0.6898293533325195,-2.44507844543457,6.1002761924743645
1789799651274688800,9.152688720703125,-1.1845312713623046,-2.851344539642334,5.283853426361084
1789799651284660700,9.16266064453125,-0.7185597732543945,-3.6917093223571773,3.293673296356201
1789799651294631700,9.172631591796875,-0.7727285858154297,-3.6215292861938475,3.3707366622924804
1789799651304604000,9.18260400390625,-0.9620201545715331,-2.4703672004699704,6.758382373809814
1789799651314574600,9.19257470703125,-1.220743571472168,-2.3123498908996583,8.135197966003417
1789799651324546800,9.202546875,-1.5429133323669433,-3.6318542808532714,6.115239952850342
1789799651334517800,9.212517822265625,-0.8330325401306152,-4.400093738555908,5.824494088745117
1789799651344489700,9.22248974609375,-0.2877531120300293,-3.8160581710815427,8.565705352020263
1789799651354460700,9.232460693359375,-0.9934440513610839,-3.5850177108764645,11.477353845977783
1789799651364432000,9.242431884765624,-1.4495394676208495,-4.792293898010254,12.489203322601318
1789799651374403800,9.25240380859375,-0.7161655715942382,-6.917297509002685,10.80233861541748
1789799651384374800,9.262374755859375,-0.18345570220947263,-8.092551248931885,10.29805989074707
1789799651394346800,9.2723466796875,-0.5511152946472168,-7.464073313140869,12.342408833312987
1789799651404318000,9.28231787109375,-0.330699104309082,-7.266402038574219,14.066234028625487
1789799651414289700,9.29228955078125,0.08828618621826172,-8.773402346038818,13.508983592224121
1789799651424260900,9.3022607421875,0.05117606048583984,-9.843760125732421,12.889184637451171
1789799651434232800,9.31223291015625,0.9775824653625488,-9.49989291229248,12.71066697616577
1789799651444203800,9.322203857421876,1.5655086105346678,-8.341997134399413,11.883919215393066
1789799651454174700,9.3321748046875,0.4929062667846679,-7.245752049255371,10.265289255523681
1789799651464147000,9.34214697265625,-0.22819734573364256,-6.294206526947021,8.675090440368653
1789799651474117600,9.35211767578125,0.469263525390625,-5.387402648162841,7.555501889038085
1789799651484089900,9.36208984375,0.6548141540527344,-4.914248545074463,7.2915411560058585
1789799651494060800,9.372060791015626,-0.08948328704833984,-5.030068050384521,8.155548680114746
1789799651504032800,9.38203271484375,0.2973299186706543,-6.1750949943542475,9.889249957275391
1789799651514003700,9.392003662109374,1.2425906616210938,-8.080131327819824,11.764957320404053
1789799651523976000,9.401975830078126,1.7712603157043456,-9.222764070129394,12.541875759124755
1789799651533947000,9.41194677734375,1.502211904144287,-8.575132521057128,12.02802022781372
1789799651543917800,9.421917724609376,0.9412205276489257,-7.878868750762939,10.529249988555907
1789799651553889800,9.431889892578125,-0.3051110740661621,-8.15913998260498,9.489867192840576
1789799651563861000,9.441861083984374,-1.274912384033203,-8.662520881652831,9.988758963775634
1789799651573832700,9.451832763671876,-0.3037643356323242,-8.852261363220215,11.011382347869873
1789799651583804000,9.461803955078125,1.5595231063842772,-8.296956215667723,10.531344915008544
1789799651593775900,9.47177587890625,2.059013427734375,-6.570736818695068,9.158868813323974
1789799651603746800,9.481746826171875,0.49844285812377925,-4.305223497772216,8.256554062652587
1789799651613718800,9.49171875,-0.36436756515502927,-2.532766081237793,6.842478707122802
1789799651623690000,9.50168994140625,-0.9525929855346679,-1.4739303970336912,5.216666142272949
1789799651633660700,9.51166064453125,-1.8447323791503905,-0.6585550941467285,4.645649046325683
1789799651643633200,9.521633056640624,-0.6768108818054199,-0.6319196006774902,3.6632781776428223
1789799651653604400,9.531604248046875,1.159392153930664,-1.772307778930664,1.9062334342956542
1789799651663576000,9.541576171875,1.3039420791625975,-3.5426702690124507,1.6151882949829102
1789799651673547300,9.55154736328125,-0.11552023010253906,-5.147683206939697,4.648492160797119
1789799651683519200,9.561519287109375,0.07870937957763671,-6.726359926605224,7.706785506439209
1789799651693490200,9.571490234375,3.028515462493896,-8.940996462249755,8.965836304473877
1789799651703462100,9.581462158203125,3.343053705596924,-11.048941386413574,8.56794991607666
1789799651713433300,9.591433349609375,0.5674257934570313,-11.979238368988037,7.250091539764404
1789799651723404300,9.601404296875,-2.073677912902832,-10.988637432098388,7.6385507591247555
1789799651733376300,9.611376220703125,-3.806780639648437,-9.039607643127441,10.17700306930542
1789799651743347200,9.62134716796875,-3.5639188087463376,-7.492654095458984,13.495815483093262
1789799651753319200,9.631319091796875,-1.0347440299987793,-7.091625317382812,15.93460914916992
1789799651763290000,9.6412900390625,1.4941314735412596,-7.23976654510498,18.210896377563476
1789799651773262300,9.651262451171876,2.8576293190002438,-8.26074391555786,18.006940323638915
1789799651783233300,9.6612333984375,1.156249764251709,-10.18313821105957,15.195549024200439
1789799651793205200,9.671205322265624,-0.5150526321411133,-11.003900467681884,13.644555261230469
1789799651803176200,9.68117626953125,-0.08708908538818359,-10.45742393875122,12.063484339904784
1789799651813147100,9.691147216796875,0.43619361495971676,-9.891793796539305,10.11909331665039
1789799651823119000,9.701119140625,0.07302315063476562,-9.360729940795897,8.100182766723632
1789799651833090000,9.711090087890625,-0.00029927520751953123,-7.998429196166992,6.031293257141113
1789799651843062300,9.721062255859374,0.3779845870971679,-6.281487330627441,3.9260418098449703
1789799651853033000,9.731032958984375,0.11073182678222655,-5.313032759094238,1.8414403518676756
1789799651863005200,9.741005126953125,-0.7442974411010742,-4.79453846206665,-0.13467384338378904
1789799651872976100,9.75097607421875,-0.7384615745544433,-4.432714736175537,-1.8994997421264648
1789799651882948000,9.760947998046875,0.4269160835266113,-3.681384327697754,-2.013972509002685
1789799651892919000,9.7709189453125,1.0030208580017088,-1.7003320915222166,1.0158896919250489
1789799651902890200,9.78089013671875,0.13467384338378904,-0.05566518859863281,4.397549899291992
1789799651912862000,9.790862060546875,-0.032172084808349606,0.15173253021240232,7.812728929901122
1789799651922833200,9.800833251953126,2.1199159324645995,-1.2530652938842772,12.351087814331054
1789799651932805000,9.81080517578125,3.0952538337707516,-4.459649504852295,14.857667314910888
1789799651942776300,9.8207763671875,0.3247136001586914,-7.415890004730224,14.998925212860106
1789799651952748000,9.830748046875,-4.201524638366699,-8.094945450592041,15.541810439300535
1789799651962719200,9.84071923828125,-3.5027170288085934,-6.828861685180664,14.97752703552246
1789799651972690200,9.850690185546876,0.8704419410705566,-5.20918426208496,12.47453883743286
1789799651982662100,9.860662109375,0.03666121292114258,-3.8968624771118163,11.963526420593261
1789799651992633000,9.870633056640624,-1.025915411376953,-3.0009821434020996,12.772317668914795
1789799652002605300,9.880605224609376,-0.05132569808959961,-3.6091093650817867,13.046753034210205
1789799652012576000,9.890575927734375,1.0875661041259765,-5.568913061523437,12.30350305633545
1789799652022548200,9.90054833984375,0.5512649322509765,-7.078606845855712,10.901548346710204
1789799652032519200,9.910519287109375,-0.3742436470031738,-7.5074682182312005,9.535656299591064
1789799652042491100,9.9204912109375,-0.10579378585815429,-6.725761376190185,8.665363996124267
1789799652052462000,9.930462158203126,1.349581548309326,-5.331138909149169,9.108141665649413
1789799652062433300,9.940433349609375,2.136226431274414,-4.237437663269043,9.827000714111328
1789799652072405000,9.950405029296874,0.9151835845947265,-3.6872201942443845,9.529521157836914
1789799652082376200,9.960376220703125,0.10429740982055663,-4.344727825164795,7.309048755645752
1789799652092348200,9.97034814453125,0.053121349334716794,-5.138854588317871,4.991611186218261
1789799652102319400,9.9803193359375,0.23343466186523437,-4.531026641845703,2.3599346488952637
1789799652112291000,9.990291015625,-0.11596914291381835,-2.3171382942199705,1.2811971633911132
1789799652122262300,10.00026220703125,-0.6599018325805663,-0.2561795776367187,2.345719076538086
1789799652132234000,10.01023388671875,-0.9308955329895019,0.8391676818847655,4.216039485931396
1789799652142205200,10.020205078125,-1.4047978240966796,1.203984159851074,6.687304512023926
1789799652152176000,10.030176025390626,-0.5680243438720702,-0.8882488159179687,5.843946977233887
1789799652162148400,10.0401484375,0.32411504974365235,-3.321805165863037,4.317643418884277
1789799652172119000,10.050119140625,0.3736450965881347,-4.279036917114258,3.300107713317871
1789799652182091300,10.06009130859375,-0.41584290084838865,-3.8227918632507323,4.036324723815918
1789799652192062200,10.070062255859375,-1.8704700469970703,-1.6834230422973633,7.483526201629639
1789799652202034200,10.0800341796875,-2.205209366607666,0.24181436767578124,10.829123746490477
1789799652212005000,10.090005126953125,-1.866729106903076,-0.8200140686035156,10.509048912048339
1789799652221976300,10.099976318359374,-1.412279704284668,-3.3469442832946776,8.876053742218017
1789799652231948000,10.109947998046875,-1.8038813133239746,-4.2503064971923825,6.451176373291015
1789799652241919200,10.119919189453125,-2.1520880172729493,-3.312976547241211,5.222950921630859
1789799652251891200,10.12989111328125,-0.8942343200683593,-2.7117326553344725,3.873219735717773
1789799652261862400,10.1398623046875,-0.30840310134887694,-2.009782656097412,2.310404602050781
1789799652271834000,10.149834228515624,-0.2700958747863769,-1.1355997749328612,2.0388123512268064
1789799652281805300,10.159805419921875,-0.4261678955078125,-0.35015199279785153,3.4062007743835445
1789799652291777000,10.169777099609375,-1.0345943923950194,-0.1361702194213867,4.754734859466552
1789799652301748200,10.179748291015626,-1.8037316757202146,-0.6009446166992187,5.105635040283203
1789799652311719200,10.18971923828125,-1.7158944023132323,-1.4818611900329588,5.196315428161621
1789799652321691400,10.19969140625,-0.607827946472168,-2.5968109756469726,4.459948780059814
1789799652331662000,10.209662109375,0.17941548690795897,-3.150470109558105,4.593724797821045
1789799652341634300,10.21963427734375,0.206200617980957,-2.7617116149902343,7.0573583061218255
1789799652351605200,10.229605224609376,-0.5086182151794433,-2.7952304382324216,8.915707707214356
1789799652361577200,10.2395771484375,-1.303044253540039,-3.759495156860351,8.623764742279052
1789799652371548200,10.249548095703124,-1.9361609550476073,-4.53910707244873,8.583961139678955
1789799652381519000,10.25951904296875,-1.9831471626281738,-5.410746114349365,9.024344607543945
1789799652391491000,10.269490966796875,-0.2889502128601074,-6.3156047042846675,8.833257387542725
1789799652401462000,10.2794619140625,0.7953238639831542,-6.273107624816894,9.643545011901855
1789799652411434200,10.289434326171875,0.34925416717529295,-5.951985327148437,11.474810006713867
1789799652421405200,10.2994052734375,-0.5374982727050781,-6.552331393432617,12.623577890777588
1789799652431377200,10.309377197265626,-1.0944494338989257,-7.779808657073974,13.16376964035034
1789799652441348000,10.31934814453125,-0.26740239791870113,-8.42055687637329,12.958317210388183
1789799652451319300,10.3293193359375,0.6830956611633301,-8.239645013427733,12.53244859008789
1789799652461291000,10.339291015625,0.732924983215332,-7.792677490997314,11.69657293548584
1789799652471262200,10.34926220703125,1.1376947013854979,-7.984213623809814,10.45098952178955
1789799652481234200,10.359234130859376,0.5288192916870117,-8.170063527679442,9.929801747894286
1789799652491205000,10.369205078125,-0.34551322708129883,-7.949647337341308,9.974543391418456
1789799652501177000,10.379177001953124,-0.6699275520324707,-7.250390814971923,10.58476553955078
1789799652511148300,10.389148193359375,0.4282628219604492,-6.742820063018798,10.619780738830565
1789799652521120000,10.3991201171875,1.6279074913024902,-6.490531063079834,9.646088851165771
1789799652531091200,10.40909130859375,1.7872715393066405,-6.260238790893554,8.69514187927246
1789799652541062100,10.419062255859375,0.8921393936157226,-5.993434943389892,8.068758869934081
1789799652551034000,10.4290341796875,0.4982932205200195,-5.404610972595215,7.543530880737304
1789799652561005000,10.439005126953125,-0.2647089210510254,-4.914996733093261,7.005882970428466
1789799652570977300,10.448977294921875,-0.5370493598937988,-4.7283986412048336,7.496993585968017
1789799652580948200,10.4589482421875,-0.07062894897460938,-5.111770182037353,8.888473663330078
1789799652590920200,10.468920166015625,0.2702455123901367,-6.002712474822998,9.90900212097168
1789799652600891100,10.47889111328125,0.8635586112976074,-6.589142243957519,10.001029247283935
1789799652610862300,10.4888623046875,1.1727099006652832,-6.930764893341064,8.939200811004637
1789799652620834000,10.498833984375,0.5072714767456055,-7.204302433013916,8.737638958740234
1789799652630805200,10.50880517578125,-0.8265981231689452,-7.741202155303955,9.675717096710205
1789799652640777200,10.518777099609375,-0.13991115951538086,-8.248174356842041,10.483909794616698
1789799652650748000,10.528747802734374,1.1700164237976074,-8.264035942840575,10.759991173553466
1789799652660720000,10.53872021484375,0.6681319007873535,-7.694365585327148,10.346692111968993
1789799652670691000,10.548691162109375,-0.3404255485534668,-7.326855630493164,10.243741440582275
1789799652680663000,10.5586630859375,-0.3393780853271484,-7.515847924041748,10.127921935272216
1789799652690634000,10.568634033203125,-0.01331774673461914,-8.060828076934815,9.757119953155517
1789799652700605200,10.578605224609374,0.08170213165283202,-8.499266255950927,9.351751684570312
1789799652710577000,10.588576904296875,-0.13916297149658202,-8.066364668273925,9.252990866088867
1789799652720548000,10.598548095703125,0.1258452247619629,-7.397484579467773,8.176497944641113
1789799652730520000,10.60852001953125,0.40282442932128903,-7.389853061676025,7.108085453796386
1789799652740491300,10.6184912109375,0.16654665298461913,-7.358878077697754,6.989722109222412
1789799652750463000,10.628462890625,-0.1031003089904785,-7.475894683837891,7.279869422912597
1789799652760434200,10.63843408203125,0.3324947555541992,-7.735815201568603,7.665036614990234
1789799652770405000,10.648405029296875,1.1507131729125977,-7.780257569885253,7.920318367004394
1789799652780377000,10.658377197265626,1.5099930595397948,-7.492504457855224,7.6568065467834465
1789799652790348000,10.66834814453125,1.3385083656311034,-6.949768869018555,7.268197689819336
1789799652800320300,10.6783203125,0.07496843948364257,-6.434716236877441,7.185747370147705
1789799652810291000,10.688291015625,-0.9949404273986816,-5.872228484344482,7.369801622772217
1789799652820263200,10.69826318359375,-1.2177508193969726,-5.19047956161499,7.7599068557739255
1789799652830234000,10.708234130859376,-0.6582558189392089,-4.612728773498535,8.112752325439452
1789799652840205000,10.718205078125,-0.06314706878662109,-4.346074563598632,8.039130624389648
1789799652850177000,10.728177001953124,-0.6328174263000488,-4.444536106872558,7.883657154083251
1789799652860148000,10.73814794921875,-1.4754267730712889,-4.685602286529541,8.34469061126709
1789799652870120000,10.748119873046875,-1.459415549468994,-4.955249248504638,9.589974749755859
1789799652880091000,10.7580908203125,-0.6763619689941406,-5.523123954772949,11.13468373336792
1789799652890063000,10.76806298828125,-0.258573779296875,-6.4266358062744136,12.222249837493896
1789799652900034000,10.778033935546874,-0.2480991470336914,-7.152827097320556,12.393435256195067
1789799652910005000,10.7880048828125,-0.3199251968383789,-7.500734526062011,11.408221273040771
1789799652919977000,10.79797705078125,-0.3435679382324219,-7.231386839294434,10.79590419845581
1789799652929948200,10.8079482421875,-0.1414075355529785,-7.039850706481933,10.997466050720215
1789799652939920000,10.817919921875,0.40925884628295894,-7.436839269256591,10.920552322387694
1789799652949891000,10.82789111328125,0.6441898841857909,-7.529464945983887,10.249427669525145
1789799652959863000,10.837863037109376,-0.1039981346130371,-7.339125914001464,9.738115977478026
1789799652969834000,10.847833984375,-0.4402338302612304,-7.266551676177978,9.554959550476074
1789799652979805000,10.857804931640626,-0.5725134719848632,-7.095665532684325,10.121337880706786
1789799652989777200,10.867777099609375,-0.44846389846801754,-6.493374177551269,11.31918689880371
1789799652999748000,10.877748046875,0.027383681488037107,-5.906944408416748,12.274772636413573
1789799653009720000,10.887719970703126,0.12554594955444334,-6.015581308746338,11.916240937805176
1789799653019691000,10.89769091796875,-0.14200608596801756,-6.14157617111206,11.170596758270262
1789799653029663000,10.9076630859375,0.16909049224853515,-5.725284357452392,10.428244606018065
1789799653039634000,10.917634033203125,0.45878889312744137,-5.091269830322266,9.613318215942382
1789799653049605000,10.927605224609374,0.7234978141784667,-4.776881224822998,8.847921872711181
1789799653059577000,10.9375771484375,1.045069024658203,-4.557811772918701,8.154800492095946
1789799653069548000,10.947548095703125,1.2623428253173827,-4.451120161437988,7.939471980285644
1789799653079520000,10.95752001953125,0.816572403717041,-4.634276588439941,8.407239129638672
1789799653089491200,10.9674912109375,-0.06000467910766601,-4.576067560577393,8.014141144561767
1789799653099463000,10.977462890625,0.25303718795776364,-4.781669628143311,6.616675563049316
1789799653109434000,10.98743408203125,0.526125814819336,-4.540603448486328,5.5267152572631835
1789799653119405000,10.997405029296875,0.26381109542846676,-4.038868563079833,4.44992306060791
1789799653129377000,11.007376953125,-0.36691140441894526,-3.1509190223693846,3.6209307357788085
1789799653139348000,11.017347900390625,-1.1555015762329102,-1.6136919189453125,4.184465951538086
1789799653149320200,11.0273203125,-1.7770961822509765,0.10998363876342773,5.732018049621582
1789799653159291100,11.037291015625,-1.5560814414978026,0.6597521949768066,6.286275733947754
1789799653169263000,11.04726318359375,-0.7544727981567383,-0.6066308456420898,4.731690668487548
1789799653179234000,11.057234130859374,-0.31214404144287106,-1.993172882080078,3.928136736297607
1789799653189205000,11.067205078125,-0.7493851196289062,-2.786850732421875,3.813514331817627
1789799653199177000,11.077177001953125,-0.9530418983459472,-3.1603461914062496,4.120720332336425
1789799653209148000,11.08714794921875,-1.009455274963379,-2.280626718902588,6.126013860321045
1789799653219120000,11.0971201171875,-0.7327753456115722,-0.8678981018066406,8.986037380981445
1789799653229090800,11.1070908203125,-0.3265092514038086,-1.7185878791809082,8.763226988983154
1789799653239063000,11.11706298828125,-0.6759130561828612,-3.385550785064697,5.075857157135009
1789799653249034200,11.1270341796875,-1.8830396057128904,-3.423708374023437,2.622099730682373
1789799653259005200,11.137005126953126,-2.113930428314209,-2.459892568206787,1.527650296783447
1789799653268977200,11.14697705078125,-2.019359462738037,-1.2286743644714355,1.8145055831909178
1789799653278948000,11.156947998046874,-1.9358616798400878,0.09292495193481445,3.239504483795166
1789799653288920000,11.166920166015625,-1.6201263359069824,0.35658640975952144,4.891802904510498
1789799653298891000,11.17689111328125,-0.8783727340698242,-0.7486369316101074,6.2769982025146485
1789799653308863200,11.18686328125,-0.9636661682128905,-0.7055413017272949,8.035539321899414
1789799653318834200,11.196834228515625,-1.2548609451293944,-0.5859808563232421,8.341099308776855
1789799653328804900,11.206804931640624,-1.7905635665893553,-1.6929998489379883,8.227973280334473
1789799653338777000,11.216777099609375,-2.1746832954406736,-3.0071172851562498,8.066963218688965
1789799653348748000,11.226748046875,-1.8623896163940428,-4.044854067230224,7.607575775146484
1789799653358720000,11.236719970703126,-1.3781623306274413,-4.478204567718506,8.284386656951904
1789799653368691000,11.24669091796875,-0.7275380294799805,-4.572925170898437,9.876979673767089
1789799653378663200,11.2566630859375,-0.4607341819763183,-5.180154566955566,10.498723917388915
1789799653388633900,11.2666337890625,-0.5026327110290527,-5.5668181350708,10.408791717529295
1789799653398605000,11.27660498046875,-0.24615385818481444,-5.607669200897217,9.11667100906372
1789799653408577000,11.286576904296876,-0.16789339141845702,-5.865943704986572,7.062146709442138
1789799653418548200,11.29654833984375,-0.019901801300048826,-6.140229432678222,5.730072760772705
1789799653428520000,11.30652001953125,-0.16998831787109375,-6.515071630096435,6.504746635437011
1789799653438491100,11.3164912109375,0.18405425262451172,-6.477362953948974,9.306112215423584
1789799653448462800,11.326462890625,0.8491934013366699,-6.32084202041626,11.48603282699585
1789799653458434000,11.33643408203125,0.6521206771850585,-6.918793885040283,11.653477305603026
1789799653468405000,11.346405029296875,0.22056582794189453,-7.817517333221435,10.765378127288818
1789799653478377200,11.356377197265624,0.03277063522338867,-7.792677490997314,10.40086092453003
1789799653488348000,11.366347900390625,0.052073886108398436,-7.164648468017577,9.89463691101074
1789799653498320100,11.376320068359375,0.13871405868530273,-6.566098052978515,8.864232371520995
1789799653508291000,11.386291015625,0.1005564697265625,-5.9579708312988275,7.022492744445801
1789799653518263000,11.396262939453125,0.2916436897277832,-5.146336468505859,5.362113893127441
1789799653528234000,11.40623388671875,0.005237316131591796,-4.320037620544434,4.7183729217529295
1789799653538205200,11.416205078125,-0.20096330184936523,-3.5859155364990234,5.293879145812988
1789799653548177000,11.426177001953125,-0.10250175857543944,-3.460968137359619,7.2438067604064935
1789799653558148000,11.436148193359376,0.8230068206787109,-5.033210440063476,9.59551134109497
1789799653568120000,11.4461201171875,1.7631798851013183,-7.510161695098876,10.920552322387694
1789799653578091300,11.45609130859375,1.5619173080444335,-8.460659754180908,11.150994232177734
1789799653588062000,11.46606201171875,0.7987655288696288,-8.087164295196533,10.573692356872558
1789799653598034200,11.4760341796875,0.4707599014282226,-7.946205672454833,9.948805723571777
1789799653608005000,11.486005126953126,-0.02663549346923828,-8.448090195465088,9.865008665466307
1789799653617977000,11.49597705078125,-0.682497110748291,-9.641898998260498,10.773009645080565
1789799653627948000,11.505947998046874,-0.010474632263183592,-10.242544339752197,12.23197628173828
1789799653637920300,11.515920166015626,0.647332273864746,-9.527575868988036,12.697199591827392
1789799653647891000,11.525890869140625,0.3290530906677246,-8.476521340179444,11.752238124084473
1789799653657862100,11.535862060546876,-0.4875193130493164,-7.842207537841796,11.060762757110595
1789799653667834000,11.545834228515625,-0.9285013313293456,-7.7513775123596185,10.766874503326415
1789799653677805300,11.555805419921874,-0.70868369140625,-8.066813581085205,11.251401064300536
1789799653687777000,11.565777099609376,-0.08349778289794921,-8.043470114898682,11.347318768310545
1789799653697748200,11.575748291015625,0.7839514060974121,-7.430704127502441,10.168024813079834
1789799653707720000,11.585719970703124,0.8029553817749023,-6.716184569549561,8.385990589904784
1789799653717691100,11.595691162109375,-0.035763387298583985,-6.303932971191406,7.2441060356140135
1789799653727662000,11.605662109375,-0.3752911102294922,-6.46733723449707,6.191704768371582
1789799653737634300,11.61563427734375,-1.11719434967041,-6.638821928405761,6.388777492523193
1789799653747605000,11.62560498046875,-1.2095207511901855,-6.918943522644042,7.108235091400146
1789799653757577200,11.6355771484375,-0.6762123313903808,-7.393893276977539,7.583334483337402
1789799653767548200,11.645548095703125,-0.3896563201904297,-6.985382618713379,8.15240629043579
1789799653777519000,11.65551904296875,-0.2328361114501953,-6.372018080902099,8.046612504577636
1789799653787491000,11.665490966796876,0.26007015533447264,-5.6018333343505855,7.557297540283202
1789799653797462000,11.6754619140625,0.34880525436401366,-4.882824648284912,6.931213806152344
1789799653807434000,11.68543408203125,-0.2950853546142578,-4.60300232925415,6.581211450958252
1789799653817405000,11.695405029296875,-1.138293251800537,-4.591629871368408,6.719027684020996
1789799653827377200,11.705377197265625,-1.530942324066162,-5.208286436462402,6.863278334045409
1789799653837348000,11.71534814453125,-1.0971429107666015,-6.3076739112854,7.337629537963867
1789799653847319000,11.725319091796875,-0.6332663391113281,-7.496544673156738,9.12265651321411
1789799653857291000,11.735291015625,0.4656722229003906,-8.722226285552978,10.925490363311766
1789799653867262200,11.74526220703125,0.23253683624267577,-9.76894132385254,12.466757682037352
1789799653877234000,11.75523388671875,-0.049230771636962885,-9.469965391540526,13.09388887939453
1789799653887205000,11.765205078125,0.7173626724243164,-8.149413538360594,11.157877561950682
1789799653897177000,11.775177001953125,0.5705681831359863,-6.927772141265868,8.31251852645874
1789799653907148000,11.78514794921875,-1.5025111793518064,-5.991489654541016,8.275857313537598
1789799653917119000,11.795118896484375,-2.486827336883545,-6.0428153526306145,9.342923065948487
1789799653927091200,11.80509130859375,-1.7533038032531738,-6.7751417854309075,10.948384916687012
1789799653937062100,11.815062255859376,0.027682956695556638,-7.7513775123596185,12.676100689697265
1789799653947034000,11.8250341796875,1.4041992736816404,-8.173355554962157,13.041216442871093
1789799653957005000,11.835005126953124,1.3506290115356445,-8.349179739379883,10.888080962371825
1789799653966977000,11.84497705078125,0.5828384666442871,-7.723245642852783,7.82110863571167
1789799653976948000,11.854947998046875,-0.20126257705688474,-6.324582960510254,7.040598894500732
1789799653986919200,11.864919189453126,-0.370951619720459,-5.103839389038086,7.473201206970215
1789799653996891100,11.87489111328125,-0.1632546257019043,-4.797980126953124,7.94171654434204
1789799654006862000,11.884862060546874,-0.09068038787841796,-4.8686090759277345,8.676886091613769
1789799654016834000,11.894833984375,-0.028431144714355466,-4.7572786987304685,9.809792389678954
1789799654026805200,11.90480517578125,0.08693944778442382,-4.683507360076904,10.524611222839354
1789799654036776200,11.914776123046876,0.16983868026733398,-5.215020128631592,10.291326198577881
1789799654046748200,11.924748046875,0.3049614364624023,-5.869086094665527,9.158719175720215
1789799654056719000,11.934718994140624,0.08903437423706054,-5.985803425598144,8.052149095916748
1789799654066691000,11.944691162109375,-0.06434416961669921,-5.325003767395019,8.556278182983398
1789799654076662000,11.954662109375,0.23253683624267577,-3.688118019866943,10.572944168853759
1789799654086634200,11.96463427734375,0.3526958320617676,-2.433705987548828,12.114211487579345
1789799654096605200,11.974605224609375,0.5563526107788086,-3.54985287399292,10.082132828521727
1789799654106576100,11.984576171875,0.32456396255493164,-4.3257238494873045,8.349927927398682
1789799654116548000,11.994548095703125,-0.5291185668945312,-3.536385489654541,8.51632494277954
1789799654126519300,12.004519287109375,-0.8628104232788085,-2.901772412109375,8.448838383483887
1789799654136491000,12.014490966796876,-0.859368758392334,-2.555211721801758,7.3419690284729
1789799654146462200,12.024462158203125,-0.4955997436523437,-1.6876128952026366,6.123619658660888
1789799654156433200,12.03443310546875,-0.462230558013916,-0.7817068420410156,6.008398703765868
1789799654166405000,12.044405029296875,-0.5517138450622558,-0.9982324546813964,5.589563050842285
1789799654176376000,12.0543759765625,-0.18076222534179687,-2.0573674140930174,4.3260231246948235
1789799654186348300,12.064348388671876,0.6790554458618163,-2.6925790420532225,3.6547488342285153
1789799654196319000,12.074319091796875,0.7116764434814453,-2.055272487640381,3.5329438247680662
1789799654206291200,12.084291259765624,-0.2599205177307129,-0.5150526321411133,4.910357967376709
1789799654216262100,12.09426220703125,-0.6316203254699707,-0.6711246528625487,5.14573791809082
1789799654226233000,12.104233154296875,-0.6594529197692871,-1.9728221679687499,5.309890369415283
1789799654236205000,12.114205078125,-0.7670423568725585,-2.926612254333496,6.188712016296386
1789799654246176000,12.124176025390625,-2.1818659004211423,-2.1472996139526366,7.384765383148193
1789799654256148200,12.134148193359374,-2.073528275299072,-1.7477672119140624,7.31608172302246
1789799654266119000,12.144118896484375,-1.0322001907348632,-2.2156839988708494,6.675782416534424
1789799654276090000,12.154090087890625,-0.6171054779052734,-2.8567314933776853,5.823296987915039
1789799654286062000,12.16406201171875,-1.3823521835327148,-1.9461866744995115,5.962310321807861
1789799654296033000,12.174032958984375,-1.448492004394531,-0.6892308029174804,5.941510694885253
1789799654306005000,12.1840048828125,-1.6068085891723631,-0.735468822479248,5.395782353973388
1789799654315976200,12.19397607421875,-1.7184382415771484,-1.682824491882324,4.482992971038818
1789799654325948000,12.203947998046875,-1.2491747161865234,-2.6044424934387207,3.602674948120117
1789799654335919000,12.213919189453126,-1.1480196960449218,-2.308010400390625,4.312106827545166
1789799654345890000,12.22389013671875,-0.9285013313293456,-2.353949144744873,4.610783484649658
1789799654355862000,12.233862060546874,-0.9886556480407714,-2.7035025871276854,4.592078784179687
1789799654365833000,12.2438330078125,-0.7996633544921875,-2.3452701637268065,5.3293432579040525
1789799654375805200,12.25380517578125,-0.6087257720947266,-1.993172882080078,6.613533173370361
1789799654385776000,12.263776123046876,-0.7975684280395507,-2.455852352905273,7.14384884109497
1789799654395747000,12.2737470703125,-1.1863269226074218,-3.5519478004455562,5.901557454681396
1789799654405719000,12.283718994140624,-1.3516764747619627,-4.274697426605225,4.6070425445556635
1789799654415690200,12.293690185546875,-0.9683049339294433,-4.365976364898682,4.556016121673584
1789799654425662000,12.303661865234375,-0.6804021842956542,-3.8284780921936035,6.546196251678467
1789799654435633200,12.313633056640626,-0.0752677146911621,-3.1712697364807125,9.404424121093749
1789799654445605000,12.323605224609375,-0.020350714111328123,-3.8208465744018554,10.204237113189697
1789799654455576000,12.333576171875,-0.46103345718383787,-5.569361974334717,8.993070348358154
1789799654465547000,12.343547119140625,-0.8376713058471679,-6.88856708908081,8.258648989105223
1789799654475519200,12.353519287109375,-0.6046855567932129,-7.55924282913208,8.733149830627442
1789799654485490200,12.363490234375,-0.18525135345458985,-7.633762355804443,9.849895267486572
1789799654495462100,12.373462158203125,-0.055365913391113276,-7.992144416809081,10.407594616699217
1789799654505433000,12.38343310546875,0.2763806541442871,-8.75379981994629,10.372130504608153
1789799654515404000,12.393404052734375,0.4191349281311035,-9.310601343536376,10.379911660003662
1789799654525376000,12.4033759765625,0.2813186950683594,-9.426271211242675,10.673650276184082
1789799654535347000,12.413346923828126,-0.049530046844482416,-8.902240322875976,10.979808813476561
1789799654545319200,12.423319091796875,0.4713584518432617,-7.896675625610351,10.440065976715088
1789799654555289900,12.433289794921874,1.1206360145568848,-7.095515895080566,9.440786058807372
1789799654565262000,12.443261962890626,0.680551821899414,-6.944980465698242,9.095272831726074
1789799654575233000,12.45323291015625,0.414346524810791,-7.259219433593749,9.262717310333251
1789799654585204200,12.463204345703126,0.378583137512207,-7.161655715942382,9.907655382537842
1789799654595176000,12.473176025390625,0.22819734573364256,-6.60754766921997,10.43168627090454
1789799654605147100,12.483147216796874,-0.11985972061157225,-5.657947435760498,10.440514889526366
1789799654615119000,12.493119140625,-0.30526071166992186,-4.978143801879883,9.641898998260498
1789799654625090000,12.503090087890625,-0.14963760375976562,-4.6438533950805665,9.305962577819823
1789799654635061000,12.51306103515625,0.06239888076782226,-4.934150346374511,9.69083049468994
1789799654645033200,12.523033203125,-0.13676876983642577,-5.518036276245117,9.7683427734375
1789799654655004200,12.533004150390624,-0.11148001480102539,-6.523750611114502,9.948805723571777
1789799654664976400,12.542976318359376,-0.20231004028320312,-7.701697827911376,9.910498497009277
1789799654674947300,12.552947265625,0.26396073303222656,-8.034342221069336,9.947608622741699
1789799654684918500,12.56291845703125,0.41838674011230464,-7.5519105865478515,9.566481645965576
1789799654694890200,12.57289013671875,-0.06075286712646484,-6.848314573669433,8.954912759399413
1789799654704861400,12.582861328125,-0.6923731925964355,-6.572083557128906,8.757241484832763
1789799654714833200,12.592833251953126,-1.1330559356689451,-6.9348051086425775,9.443629173278808
1789799654724804400,12.602804443359375,-0.7142202827453613,-7.742848168945312,10.820744040679932
1789799654734775300,12.612775390625,0.11073182678222655,-8.63798031463623,11.958887654876708
1789799654744747500,12.62274755859375,0.423923331451416,-9.019556204223631,11.917288401031493
1789799654754718200,12.63271826171875,0.239420166015625,-8.413673546600341,11.263222434997559
1789799654764690400,12.6426904296875,0.5524620330810547,-7.757961566925048,9.665092826843262
1789799654774661400,12.652661376953125,0.20126257705688474,-7.61041888961792,8.734795844268799
1789799654784633300,12.66263330078125,-0.4285620971679687,-7.571213837432861,9.081206896972656
1789799654794604300,12.672604248046875,-0.2650081962585449,-7.744943095397948,9.301024536895751
1789799654804575200,12.6825751953125,0.2745850028991699,-7.607575775146484,9.294590119934082
1789799654814547200,12.692547119140626,0.7276876670837402,-7.090428216552734,8.740781348419189
1789799654824518100,12.70251806640625,0.8303390632629394,-6.158634857940673,7.466168239593506
1789799654834490400,12.712490478515624,-0.06120177993774414,-5.194519776916503,6.0707975845336914
1789799654844461300,12.72246142578125,-1.0760440086364746,-4.478204567718506,5.2271407745361325
1789799654854432300,12.732432373046874,-1.2425906616210938,-4.179527910614014,4.41146619644165
1789799654864404200,12.742404296875,-0.795473501586914,-4.218732962799072,3.805583538818359
