time,seconds_elapsed,z,y,x
1789799642178244000,0.056244140625,-0.3693479299545288,-0.10284537822008133,-0.45111486315727234
1789799642188215300,0.06621533203125,-0.2982290983200073,-0.004950077272951603,-0.3888522684574127
1789799642198186200,0.076186279296875,-0.21210221946239471,0.07792163640260696,-0.31548669934272766
1789799642208158200,0.086158203125,-0.12650364637374878,0.1337774395942688,-0.22402223944664001
1789799642218129200,0.096129150390625,-0.046308938413858414,0.15761379897594452,-0.11059315502643585
1789799642228101400,0.106101318359375,0.036809880286455154,0.22726741433143616,0.002046754816547036
1789799642238072000,0.116072021484375,0.1367897391319275,0.36240872740745544,0.09892776608467102
1789799642248043000,0.12604296875,0.27414047718048096,0.5725083947181702,0.15099777281284332
1789799642258015200,0.13601513671875,0.4443596303462982,0.8257811665534973,0.1462184637784958
1789799642267986200,0.145986083984375,0.6321294903755188,1.061787486076355,0.09916242212057114
1789799642277958100,0.155958251953125,0.7934592366218567,1.248881459236145,0.0301029272377491
1789799642287929000,0.16592919921875,0.9041053652763367,1.3511375188827515,-0.05206276848912239
1789799642297900300,0.175900390625,0.9211799502372742,1.4373762607574463,-0.11878267675638199
1789799642307872000,0.1858720703125,0.8127048015594482,1.5174168348312378,-0.17913316190242767
1789799642317843200,0.19584326171875,0.6066331267356873,1.5359880924224854,-0.2290131151676178
1789799642327815200,0.205815185546875,0.3504285514354706,1.3724600076675415,-0.26828262209892273
1789799642337786000,0.2157861328125,0.10822735726833344,1.124077320098877,-0.2743184268474579
1789799642347757000,0.225757080078125,-0.07370435446500778,0.8100044131278992,-0.24575549364089966
1789799642357729300,0.235729248046875,-0.17924675345420837,0.4438040256500244,-0.2347334623336792
1789799642367700200,0.2457001953125,-0.2208959460258484,0.04667337238788605,-0.26654502749443054
1789799642377672200,0.255672119140625,-0.22305257618427277,-0.2584335207939148,-0.35427674651145935
1789799642387643100,0.26564306640625,-0.22228498756885529,-0.34766092896461487,-0.4956894814968109
1789799642397614300,0.2756142578125,-0.23791562020778656,-0.2559855878353119,-0.6725050210952759
1789799642407586000,0.2855859375,-0.28181010484695435,-0.17085780203342438,-0.8481701612472534
1789799642417557200,0.29555712890625,-0.34949061274528503,-0.05480869486927986,-0.9867458939552307
1789799642427529200,0.305529296875,-0.4185994565486908,0.04329628124833107,-1.0896055698394775
1789799642437500200,0.315500244140625,-0.3743300139904022,0.2542010545730591,-1.1061995029449463
1789799642447471000,0.32547119140625,0.01627352647483349,0.5798868536949158,-1.0180504322052002
1789799642457443300,0.335443359375,0.4318752586841583,1.2837568521499634,-0.9014471769332886
1789799642467414000,0.3454140625,0.8935064077377319,1.7920721769332886,-0.71290123462677
1789799642477386200,0.35538623046875,1.325334072113037,1.9752196073532104,-0.48486214876174927
1789799642487357200,0.365357177734375,1.4694041013717651,1.9387547969818115,-0.2891557812690735
1789799642497328400,0.375328369140625,1.089310646057129,1.696510672569275,-0.2096841186285019
1789799642507300000,0.385300048828125,0.0885055735707283,1.537575364112854,-0.12997573614120483
1789799642517271300,0.395271240234375,-1.0420480966567993,1.3958163261413574,0.09462328255176544
1789799642527243300,0.4052431640625,-1.8539780378341675,0.6896709203720093,0.23076002299785614
1789799642537214200,0.415214111328125,-2.439659595489502,-0.4104442000389099,0.1625111997127533
1789799642547185200,0.42518505859375,-2.8277859687805176,-1.8793271780014038,0.017888538539409637
1789799642557157400,0.435157470703125,-2.963740110397339,-3.6197245121002197,-0.12065735459327698
1789799642567128000,0.445128173828125,-3.0216615200042725,-5.135823726654053,-0.0703272670507431
1789799642577100300,0.455100341796875,-3.140528678894043,-6.434596061706543,0.031888317316770554
1789799642587071200,0.4650712890625,-3.3264148235321045,-7.583816051483154,-0.03018387034535408
1789799642597042200,0.475042236328125,-3.486288547515869,-8.129385948181152,-0.5316240787506104
1789799642607014100,0.48501416015625,-3.557007312774658,-7.690307140350342,-1.0317646265029907
1789799642616985000,0.494985107421875,-3.409712076187134,-6.502758026123047,-1.55093514919281
1789799642626957000,0.50495703125,-3.043914794921875,-4.9519124031066895,-1.9723461866378784
1789799642636928300,0.51492822265625,-2.3897578716278076,-2.821139335632324,-2.3305647373199463
1789799642646899500,0.5248994140625,-1.044588327407837,-1.4152289628982544,-2.223695755004883
1789799642656871400,0.534871337890625,0.704635500907898,-0.7314876914024353,-1.7453287839889526
1789799642666842400,0.54484228515625,1.8217337131500244,-0.04686133936047554,-1.2039088010787964
1789799642676814300,0.554814453125,2.126168727874756,0.41467779874801636,-0.6212021708488464
1789799642686785500,0.56478564453125,2.0024044513702393,0.6800186038017273,-0.025492476299405098
1789799642696756500,0.574756591796875,1.7481646537780762,1.166812777519226,0.5412098169326782
1789799642706728400,0.584728515625,1.5162360668182373,1.2824435234069824,1.1023988723754883
1789799642716699400,0.594699462890625,1.236058235168457,0.5895061492919922,1.5078660249710083
1789799642726671400,0.60467138671875,1.0164282321929932,-0.47612568736076355,1.6466388702392578
1789799642736642300,0.614642333984375,0.9289591312408447,-1.422957420349121,1.5989919900894165
1789799642746613500,0.624613525390625,0.8857824802398682,-2.27854323387146,1.5452945232391357
1789799642756585500,0.63458544921875,0.9635140299797058,-2.955625534057617,1.5038785934448242
1789799642766556400,0.644556396484375,1.227251410484314,-3.619080066680908,1.505937933921814
1789799642776528400,0.6545283203125,1.5590152740478516,-4.53571891784668,1.6069484949111938
1789799642786499600,0.66449951171875,1.914923071861267,-5.2381272315979,1.6990556716918945
1789799642796471300,0.67447119140625,2.0754776000976562,-5.093851089477539,1.7391210794448853
1789799642806442500,0.6844423828125,2.0597763061523438,-4.565650463104248,1.6651850938796997
1789799642816413400,0.694413330078125,1.7865694761276245,-4.155884742736816,1.2761529684066772
1789799642826385400,0.704385498046875,1.47597336769104,-4.048691749572754,0.5432631373405457
1789799642836356400,0.7143564453125,1.4774192571640015,-4.1251068115234375,0.03120332956314087
1789799642846328600,0.72432861328125,1.8508899211883545,-4.206301212310791,-0.005503502674400806
1789799642856299500,0.734299560546875,2.376490354537964,-4.161217212677002,0.22504182159900665
1789799642866270500,0.7442705078125,2.7595129013061523,-4.168913841247559,0.5352903604507446
1789799642876242400,0.754242431640625,2.808708667755127,-4.278537273406982,0.7697587609291077
1789799642886213600,0.764213623046875,2.6740641593933105,-4.295921325683594,0.7292038798332214
1789799642896185300,0.774185302734375,2.7011654376983643,-4.3599700927734375,0.42952021956443787
1789799642906156500,0.784156494140625,2.9445559978485107,-4.530682563781738,0.11520696431398392
1789799642916127500,0.79412744140625,3.231982707977295,-4.798076152801514,0.008310074917972088
1789799642926099500,0.804099365234375,3.4826228618621826,-5.189541339874268,0.14388635754585266
1789799642936070400,0.8140703125,3.60856294631958,-5.7467827796936035,0.4648902118206024
1789799642946042600,0.824042724609375,3.598924160003662,-6.227914810180664,0.8657619953155518
1789799642956013600,0.834013671875,3.6231765747070312,-6.4273247718811035,1.1263307332992554
1789799642965984300,0.843984375,3.663935899734497,-6.571052074432373,1.3217991590499878
1789799642975956500,0.85395654296875,3.8281195163726807,-6.666071891784668,1.454033374786377
1789799642985927400,0.863927490234375,4.077602386474609,-6.523109436035156,1.4546926021575928
1789799642995899400,0.8738994140625,4.299167156219482,-6.118862152099609,1.419108271598816
1789799643005870300,0.883870361328125,4.556121826171875,-5.64567756652832,1.4860987663269043
1789799643015841500,0.893841552734375,4.778487682342529,-5.088207721710205,1.647187352180481
1789799643025813200,0.903813232421875,4.767797946929932,-4.339736461639404,1.7777279615402222
1789799643035784400,0.913784423828125,4.8579277992248535,-3.339000701904297,1.7323758602142334
1789799643045756400,0.92375634765625,5.115276336669922,-2.1780779361724854,1.5572024583816528
1789799643055727400,0.933727294921875,5.575196266174316,-0.6636382937431335,1.318039894104004
1789799643065698300,0.9436982421875,5.952144145965576,0.7271289229393005,0.9890299439430237
1789799643075670500,0.95367041015625,5.801848888397217,1.595912218093872,0.7048664093017578
1789799643085641500,0.963641357421875,5.271946430206299,1.7053191661834717,0.38580483198165894
1789799643095613400,0.973613525390625,4.78793478012085,0.49094197154045105,0.17233195900917053
1789799643105584400,0.98358447265625,4.222975730895996,0.3274509012699127,0.49733856320381165
1789799643115555600,0.9935556640625,3.5699825286865234,1.9370756149291992,0.46361231803894043
1789799643125527300,1.00352734375,2.9033379554748535,2.6392016410827637,0.017595045268535614
1789799643135498500,1.01349853515625,2.223566770553589,2.20908784866333,-0.0742480605840683
1789799643145470500,1.023470458984375,1.9516963958740234,2.0558972358703613,-0.045884497463703156
1789799643155441400,1.03344140625,1.478888988494873,1.297670841217041,0.02377820573747158
1789799643165412400,1.043412353515625,0.9705333709716797,0.4995321035385132,0.3766021132469177
1789799643175384600,1.053384521484375,0.6091573238372803,0.2346157729625702,0.7424999475479126
1789799643185355500,1.06335546875,0.38664668798446655,0.15534739196300507,0.9590077996253967
1789799643195327500,1.073327392578125,0.19951167702674866,-0.018122926354408264,1.0192440748214722
1789799643205298400,1.08329833984375,-0.20080508291721344,-0.0805463045835495,0.7439070343971252
1789799643215269400,1.093269287109375,-0.24847939610481262,-0.4313024580478668,0.48926517367362976
1789799643225241300,1.103241455078125,-0.44520172476768494,-0.8896676301956177,0.32363390922546387
1789799643235212300,1.11321240234375,-1.63587486743927,-1.0596202611923218,0.26253432035446167
1789799643245184500,1.1231845703125,-3.1005353927612305,-1.9887150526046753,1.1605703830718994
1789799643255155200,1.1331552734375,-3.5104575157165527,-2.8009049892425537,2.0534605979919434
1789799643265127400,1.14312744140625,-3.280897855758667,-2.958862543106079,2.135532855987549
1789799643275098400,1.153098388671875,-3.0002970695495605,-2.3152377605438232,2.06933331489563
1789799643285069600,1.163069580078125,-2.895084857940674,-1.7850422859191895,2.1657159328460693
1789799643295041300,1.173041259765625,-2.907599687576294,-1.8318313360214233,2.2997028827667236
1789799643305012500,1.183012451171875,-2.7725276947021484,-2.109405755996704,2.354750156402588
1789799643314984400,1.192984375,-2.3961374759674072,-2.286895751953125,2.4681551456451416
1789799643324955400,1.202955322265625,-2.0212972164154053,-2.0996556282043457,2.4215924739837646
1789799643334926300,1.21292626953125,-1.6276620626449585,-1.7492245435714722,2.0865721702575684
1789799643344898600,1.222898681640625,-1.381216049194336,-1.5260610580444336,1.9104889631271362
1789799643354869200,1.232869140625,-1.1620419025421143,-1.5573925971984863,1.9628008604049683
1789799643364841500,1.242841552734375,-0.8773218989372253,-1.2831430435180664,1.9865742921829224
1789799643374812400,1.2528125,-0.3379364311695099,-0.9948291778564453,1.8186941146850586
1789799643384783600,1.26278369140625,0.13195717334747314,-0.5681434273719788,1.6095787286758423
1789799643394755300,1.27275537109375,0.3705814480781555,-0.11006055027246475,1.35116708278656
1789799643404726500,1.2827265625,0.4322088658809662,0.2114970088005066,1.152761697769165
1789799643414698200,1.2926982421875,0.47474485635757446,0.22606131434440613,1.1350284814834595
1789799643424669400,1.30266943359375,0.5352251529693604,0.06523506343364716,1.178403615951538
1789799643434640400,1.312640380859375,0.45650264620780945,0.09784626960754395,1.0925136804580688
1789799643444612600,1.322612548828125,0.22693230211734772,0.32757675647735596,0.8790783286094666
1789799643454583300,1.332583251953125,-0.07219526916742325,0.3491150736808777,0.711084246635437
1789799643464555500,1.342555419921875,-0.2613941431045532,0.12112364172935486,0.5333659648895264
1789799643474526500,1.3525263671875,-0.2274567037820816,0.2624450922012329,0.337117075920105
1789799643484497400,1.362497314453125,-0.14663484692573547,0.4686168432235718,0.2172563523054123
1789799643494469400,1.372469482421875,-0.0837022140622139,0.47551682591438293,0.17193467915058136
1789799643504440300,1.3824404296875,-0.10441496223211288,0.4163806736469269,0.19154393672943115
1789799643514412300,1.392412353515625,-0.17344488203525543,0.3414992392063141,0.21555259823799133
1789799643524383200,1.40238330078125,-0.1428467184305191,0.46424299478530884,0.2109595090150833
1789799643534355500,1.41235546875,0.01912488229572773,0.9319987297058105,0.1748363971710205
1789799643544326400,1.422326416015625,0.14011704921722412,1.0442136526107788,0.14676739275455475
1789799643554297300,1.43229736328125,0.14594724774360657,0.7681703567504883,0.23132994771003723
1789799643564269300,1.442269287109375,-0.035276979207992554,0.30954867601394653,0.4244631826877594
1789799643574240500,1.452240478515625,-0.24892906844615936,-0.23490001261234283,0.6131385564804077
1789799643584212500,1.46221240234375,-0.4426689147949219,-0.5175105333328247,0.6666369438171387
1789799643594183400,1.472183349609375,-0.529404878616333,-0.8530278205871582,0.7116619348526001
1789799643604154400,1.482154296875,-0.3331791162490845,-1.1711113452911377,0.6722274422645569
1789799643614126300,1.492126220703125,-0.13142390549182892,-1.4729307889938354,0.5963289141654968
1789799643624097300,1.50209716796875,-0.40738165378570557,-1.6882586479187012,0.47145605087280273
1789799643634069500,1.512069580078125,-1.3500412702560425,-1.5451534986495972,0.020869696512818336
1789799643644040400,1.52204052734375,-2.1214370727539062,-1.0579739809036255,-0.549400269985199
1789799643654011400,1.532011474609375,-2.3632023334503174,-0.7681392431259155,-0.9201892614364624
1789799643663983400,1.5419833984375,-2.270333766937256,-0.8050872683525085,-1.1143014430999756
1789799643673954600,1.55195458984375,-1.9393683671951294,-0.5990475416183472,-1.2934455871582031
1789799643683926300,1.56192626953125,-1.237853765487671,-0.3123398423194885,-1.4666193723678589
1789799643693897500,1.5718974609375,-0.32893136143684387,-0.20346929132938385,-1.7577580213546753
1789799643703868400,1.581868408203125,0.5720949172973633,-0.08949558436870575,-2.1848268508911133
1789799643713840400,1.59184033203125,1.2826257944107056,-0.02095140516757965,-2.4320316314697266
1789799643723811300,1.601811279296875,1.4877985715866089,-0.1531878113746643,-2.2370193004608154
1789799643733783600,1.611783447265625,1.5072206258773804,-0.14160838723182678,-1.827670931816101
1789799643743754500,1.62175439453125,1.2545305490493774,0.07896676659584045,-1.324029564857483
1789799643753725400,1.631725341796875,0.9398632049560547,0.13855791091918945,-0.6889678835868835
1789799643763697400,1.641697509765625,0.8713943362236023,-0.09436367452144623,-0.18328002095222473
1789799643773668600,1.651668701171875,0.988411009311676,-0.45091113448143005,0.10957396030426025
1789799643783640300,1.661640380859375,1.2434417009353638,-0.6736614108085632,0.26617303490638733
1789799643793611500,1.671611572265625,1.9109784364700317,-0.4844408631324768,0.26819756627082825
1789799643803583500,1.68158349609375,1.9754616022109985,-0.10337727516889572,0.3046760857105255
1789799643813554400,1.691554443359375,1.8147896528244019,0.43382251262664795,0.34048229455947876
1789799643823525400,1.701525390625,1.443064570426941,1.0873501300811768,0.27435290813446045
1789799643833497600,1.71149755859375,0.8517126441001892,1.552011251449585,0.13099922239780426
1789799643843468500,1.721468505859375,0.13669408857822418,1.4473114013671875,0.06004979833960533
1789799643853440500,1.7314404296875,-0.558708667755127,0.9483997821807861,0.19656343758106232
1789799643863411500,1.741411376953125,-0.9636029005050659,0.3435633182525635,0.41348305344581604
1789799643873382400,1.75138232421875,-1.2645939588546753,-0.024095941334962845,0.5313295125961304
1789799643883354400,1.761354248046875,-1.5434108972549438,0.22210989892482758,0.5765734910964966
1789799643893325300,1.7713251953125,-1.8397190570831299,0.2822757661342621,0.6112744212150574
1789799643903297500,1.781297607421875,-2.306090831756592,-0.36102619767189026,0.8003567457199097
1789799643913268200,1.791268310546875,-2.877293348312378,-1.396423101425171,1.1665992736816406
1789799643923239400,1.801239501953125,-3.124539375305176,-2.2256526947021484,1.4943492412567139
1789799643933211400,1.81121142578125,-2.9155123233795166,-2.4437448978424072,1.6869351863861084
1789799643943182600,1.8211826171875,-2.79545521736145,-1.3171004056930542,2.287722110748291
1789799643953154300,1.831154296875,-2.436305284500122,-1.1765614748001099,1.4215567111968994
1789799643963125500,1.84112548828125,-1.6782703399658203,-0.8908947110176086,0.6113094091415405
1789799643973096400,1.851096435546875,-1.228806495666504,-0.8101590871810913,-0.18606418371200562
1789799643983068400,1.861068359375,-1.0533053874969482,-0.6794544458389282,-0.4681897461414337
1789799643993039400,1.871039306640625,-0.9500900506973267,-0.6482027769088745,-0.4765925705432892
1789799644003011600,1.881011474609375,-1.2302320003509521,-0.667521595954895,-0.39758196473121643
1789799644012982300,1.890982177734375,-1.5171414613723755,-0.7478976249694824,-0.3005925714969635
1789799644022954500,1.90095458984375,-1.702352523803711,-1.033159613609314,-0.18603743612766266
1789799644032925400,1.910925537109375,-1.782766580581665,-1.279200792312622,-0.0535409189760685
1789799644042896400,1.920896484375,-1.6543561220169067,-1.145164132118225,-0.11110694706439972
1789799644052868400,1.930868408203125,-1.3524253368377686,-0.886700451374054,-0.41152963042259216
1789799644062839600,1.940839599609375,-0.8625380992889404,-0.6790784597396851,-0.8505702614784241
1789799644072811300,1.950811279296875,-0.20518286526203156,-0.23783235251903534,-1.3576024770736694
1789799644082782500,1.960782470703125,0.425056517124176,0.38626694679260254,-2.055532693862915
1789799644092753400,1.97075341796875,1.0629682540893555,0.7514427900314331,-2.7228634357452393
1789799644102725600,1.9807255859375,1.4583923816680908,0.9162254929542542,-3.074350595474243
1789799644112696300,1.9906962890625,1.8193808794021606,0.6497836709022522,-3.052630662918091
1789799644122668500,2.00066845703125,1.9409760236740112,0.3428685963153839,-2.5137834548950195
1789799644132639500,2.010639404296875,3.2043497562408447,-0.25642281770706177,-2.2073934078216553
1789799644142611500,2.020611572265625,3.7791826725006104,-0.3197671175003052,-2.089341640472412
1789799644152582400,2.03058251953125,3.9442687034606934,-0.33879992365837097,-1.5859957933425903
1789799644162553300,2.04055322265625,3.649359703063965,-0.5225200057029724,-1.012135624885559
1789799644172525300,2.050525390625,3.1150784492492676,-0.6418325304985046,-0.5042795538902283
1789799644182496300,2.060496337890625,2.7244935035705566,-0.3247573673725128,-0.3896108865737915
1789799644192468500,2.070468505859375,2.633376359939575,-0.18378934264183044,-0.20183244347572327
1789799644202439400,2.080439453125,2.2090723514556885,-0.13257944583892822,-0.008085200563073158
1789799644212410400,2.090410400390625,2.3160414695739746,-0.19312216341495514,0.03389314189553261
1789799644222382300,2.10038232421875,1.9122700691223145,0.04591883718967438,-0.2284805327653885
1789799644232353500,2.110353515625,1.779853105545044,2.180114984512329,-0.36904510855674744
1789799644242325200,2.1203251953125,2.219088554382324,4.669814109802246,-0.9752281308174133
1789799644252296400,2.13029638671875,3.7380220890045166,6.4724225997924805,-1.5331497192382812
1789799644262268400,2.140268310546875,5.053928375244141,7.165647506713867,-2.173464298248291
1789799644272239400,2.1502392578125,5.508718967437744,6.098336696624756,-2.1229043006896973
1789799644282210300,2.160210205078125,4.74375581741333,3.921952486038208,-1.625064730644226
1789799644292182500,2.1701826171875,3.0061652660369873,1.4071760177612305,-0.7315159440040588
1789799644302153500,2.180153564453125,1.0432289838790894,-0.13892140984535217,-0.1321236789226532
1789799644312125400,2.19012548828125,0.02945811115205288,-0.6042935848236084,0.1608397513628006
1789799644322096400,2.200096435546875,0.17102877795696259,-0.3552359342575073,0.29944297671318054
1789799644332067600,2.210067626953125,0.1738000512123108,0.2535554766654968,0.4792577624320984
1789799644342039300,2.220039306640625,0.18402257561683655,0.7729000449180603,0.6984328627586365
1789799644352010500,2.230010498046875,0.2346402108669281,1.2045161724090576,0.921424150466919
1789799644361982500,2.239982421875,0.15250439941883087,1.3447102308273315,1.1110076904296875
1789799644371953400,2.249953369140625,0.04467380419373512,1.1827749013900757,1.2180659770965576
1789799644381925400,2.25992529296875,0.10292377322912216,0.945095419883728,1.1258817911148071
1789799644391896600,2.269896484375,0.27558207511901855,0.8227481842041016,0.8658170104026794
1789799644401867300,2.2798671875,0.2941758930683136,0.7664742469787598,0.5777774453163147
1789799644411839500,2.289839599609375,0.20396104454994202,0.6898923516273499,0.24518805742263794
1789799644421810400,2.299810546875,-0.028309112414717674,0.5619663596153259,-0.12189598381519318
1789799644431782400,2.309782470703125,-0.13251060247421265,0.41718971729278564,-0.5096117854118347
1789799644441753300,2.31975341796875,-0.031088944524526596,0.2211254984140396,-0.7694361209869385
1789799644451725600,2.3297255859375,-0.7803410887718201,-0.2486044317483902,-0.6570879817008972
1789799644461696500,2.339696533203125,-1.7673684358596802,-1.4849599599838257,-0.47160762548446655
1789799644471667500,2.34966748046875,-2.59072208404541,-2.5510284900665283,-0.8247894048690796
1789799644481639400,2.359639404296875,-2.535839319229126,-2.378741502761841,-1.1436482667922974
1789799644491610600,2.369610595703125,-1.1591250896453857,-1.7661511898040771,-1.2613393068313599
1789799644501582300,2.379582275390625,0.3682698905467987,-0.4990827143192291,-1.058769941329956
1789799644511553500,2.389553466796875,1.467315435409546,0.29239174723625183,-0.6236748695373535
1789799644521524500,2.3995244140625,2.08758544921875,0.692937970161438,-0.30275940895080566
1789799644531496400,2.409496337890625,3.411440849304199,1.6589889526367188,-0.9111204743385315
1789799644541467400,2.41946728515625,3.6347854137420654,0.8434911370277405,-1.0055252313613892
1789799644551439600,2.429439697265625,2.8556249141693115,-0.016846006736159325,-0.5051464438438416
1789799644561410300,2.439410400390625,2.119046211242676,-0.07637517899274826,0.12721160054206848
1789799644571382500,2.449382568359375,1.6360796689987183,0.1301548182964325,0.5068566799163818
1789799644581353500,2.459353515625,1.3779115676879883,0.24526230990886688,0.6619001626968384
1789799644591324400,2.469324462890625,1.3202242851257324,0.39800018072128296,0.6535780429840088
1789799644601296400,2.47929638671875,1.3199154138565063,0.2738218307495117,0.5056824088096619
1789799644611267300,2.489267333984375,1.3826930522918701,-0.031017454341053963,0.23442427814006805
1789799644621239300,2.4992392578125,1.2640718221664429,0.8861040472984314,-1.483539342880249
1789799644631210200,2.509210205078125,0.8551554083824158,1.5022761821746826,-2.343416929244995
1789799644641182700,2.5191826171875,0.8993998765945435,1.201576590538025,-1.8600906133651733
1789799644651153700,2.529153564453125,0.9897623062133789,0.9609504342079163,-1.6954833269119263
1789799644661124600,2.53912451171875,1.0605554580688477,0.884250283241272,-1.5942003726959229
1789799644671096600,2.5490966796875,0.9055740833282471,1.2141293287277222,-0.9387718439102173
1789799644681067800,2.55906787109375,0.7017306089401245,1.6584436893463135,0.03250131011009216
1789799644691039500,2.56903955078125,0.7155976891517639,1.5123863220214844,1.1599470376968384
1789799644701010700,2.5790107421875,0.9407491087913513,1.1635662317276,2.177971839904785
1789799644710981600,2.588981689453125,0.6245458722114563,0.6944682598114014,2.782953977584839
1789799644720953600,2.59895361328125,0.30370020866394043,-0.0958942249417305,2.727443218231201
1789799644730924500,2.608924560546875,0.5221481323242188,-0.9355899691581726,1.6251217126846313
1789799644740896800,2.618896728515625,0.8598343133926392,-0.5817829966545105,0.47428005933761597
1789799644750867700,2.62886767578125,0.795508861541748,-0.04806581512093544,-0.1975925862789154
1789799644760839700,2.638839599609375,1.0618482828140259,0.045249488204717636,-0.18131178617477417
1789799644770810600,2.648810546875,1.9087142944335938,-0.12187771499156952,-0.012892145663499832
1789799644780781800,2.65878173828125,2.51350998878479,-0.11073480546474457,0.03281416371464729
1789799644790753500,2.66875341796875,2.570901870727539,-0.42020609974861145,-0.1526201367378235
1789799644800724700,2.678724853515625,2.1337077617645264,-1.7986875772476196,-0.3855549395084381
1789799644810696700,2.68869677734375,0.8971563577651978,-2.708256959915161,-0.5544728636741638
1789799644820667600,2.698667724609375,-0.6761523485183716,-2.3306970596313477,-0.25703755021095276
1789799644830639600,2.7086396484375,-0.8630194664001465,-0.33846810460090637,0.04572179168462753
1789799644840610800,2.71861083984375,-0.16608726978302002,0.3586532473564148,0.02436717599630356
1789799644850581800,2.728581787109375,0.5408387184143066,-0.08619797229766846,-0.08341628313064575
1789799644860553700,2.7385537109375,0.7909390330314636,-0.47594931721687317,-0.11839284747838974
1789799644870524700,2.748524658203125,0.6235103607177734,-0.5751219987869263,-0.17303718626499176
1789799644880496600,2.75849658203125,0.3854046165943146,-0.33806177973747253,-0.28904953598976135
1789799644890467600,2.768467529296875,0.22793351113796234,-0.30908629298210144,-0.37724411487579346
1789799644900438800,2.778438720703125,0.09663516283035278,-0.3151403069496155,-0.4421912133693695
1789799644910410800,2.78841064453125,-0.032972630113363266,-0.1000269278883934,-0.42346811294555664
1789799644920381700,2.798381591796875,-0.14874638617038727,0.1521931290626526,-0.2823197543621063
1789799644930353700,2.808353759765625,-0.3245405852794647,0.22988153994083405,-0.08308441191911697
1789799644940324900,2.818324951171875,-0.5487161874771118,0.18409913778305054,0.09890227764844894
1789799644950296600,2.828296630859375,-0.6890504360198975,0.2496403306722641,0.15011486411094666
1789799644960267800,2.838267822265625,-0.644332230091095,0.40522801876068115,0.055005110800266266
1789799644970238700,2.84823876953125,-0.6610915064811707,0.4630553722381592,-0.10983949154615402
1789799644980210700,2.858210693359375,-0.7614805698394775,0.4529530107975006,-0.21857209503650665
1789799644990181600,2.868181640625,-0.7353944182395935,0.40477854013442993,-0.2847127616405487
1789799645000153900,2.87815380859375,-0.675899863243103,0.07798411697149277,-0.3241291046142578
1789799645010124800,2.888124755859375,-0.6991857290267944,-0.17091625928878784,-0.30872511863708496
1789799645020096800,2.8980966796875,-0.719875693321228,0.04173886030912399,-0.12573491036891937
1789799645030067700,2.908067626953125,-0.7003728151321411,0.17031361162662506,0.17052578926086426
1789799645040038700,2.91803857421875,-0.6311183571815491,-0.05715145170688629,0.4245815873146057
1789799645050010600,2.9280107421875,-0.6005822420120239,-0.13736267387866974,0.5310806632041931
1789799645059981600,2.937981689453125,-0.6056678891181946,-0.11754760146141052,0.4543531835079193
1789799645069953800,2.947953857421875,-0.553046703338623,-0.15310773253440857,0.29421916604042053
1789799645079924500,2.957924560546875,-0.47203871607780457,-0.37730294466018677,0.16103842854499817
1789799645089896700,2.967896728515625,-0.4935722351074219,-0.7372046709060669,0.13669632375240326
1789799645099867600,2.97786767578125,-0.6606720089912415,-0.7326986193656921,0.21705271303653717
1789799645109838800,2.9878388671875,-0.8291395902633667,-0.32127612829208374,0.28942063450813293
1789799645119810600,2.997810546875,-0.950603187084198,0.23572507500648499,0.2706635594367981
1789799645129781800,3.00778173828125,-0.9040651917457581,0.5924736261367798,0.18590286374092102
1789799645139753500,3.01775341796875,-0.8430825471878052,0.3256043493747711,0.09584540873765945
1789799645149724700,3.027724609375,-0.8617547750473022,-0.46781522035598755,0.006164523772895336
1789799645159696600,3.037696533203125,-0.890070915222168,-1.0038079023361206,-0.07383497804403305
1789799645169667800,3.047667724609375,-0.8883779644966125,-0.8968958258628845,-0.09645773470401764
1789799645179638500,3.057638427734375,-0.8822715282440186,-0.2528612017631531,0.003076224122196436
1789799645189610800,3.06761083984375,-0.9451737999916077,0.3136022090911865,0.061309438198804855
1789799645199581700,3.077581787109375,-1.0494834184646606,0.3110264837741852,-0.10925545543432236
1789799645209553700,3.0875537109375,-1.2144310474395752,0.11048270761966705,-0.3257550001144409
1789799645219524600,3.097524658203125,-1.4252756834030151,0.001969259465113282,-0.3511953055858612
1789799645229496800,3.107496826171875,-1.5490373373031616,-0.029642995446920395,-0.24796240031719208
1789799645239467500,3.117467529296875,-1.5443216562271118,-0.1367930769920349,-0.2548684775829315
1789799645249438700,3.127438720703125,-1.4562349319458008,-0.3271521031856537,-0.44728559255599976
1789799645259410700,3.13741064453125,-1.3654824495315552,-0.3946171700954437,-0.6937141418457031
1789799645269382000,3.1473818359375,-1.4015309810638428,-0.27463752031326294,-0.8200007081031799
1789799645279353600,3.157353515625,-1.53148353099823,-0.11395136266946793,-0.7793393135070801
1789799645289324800,3.16732470703125,-1.5795906782150269,-0.048131611198186874,-0.6743820309638977
1789799645299296500,3.177296630859375,-1.5614666938781738,-0.047552838921546936,-0.6466929316520691
1789799645309267700,3.187267822265625,-1.5489277839660645,0.01698700338602066,-0.688239574432373
1789799645319238700,3.19723876953125,-1.5239332914352417,0.14921879768371582,-0.6695219278335571
1789799645329211000,3.2072109375,-1.4460376501083374,0.18974065780639648,-0.5521692037582397
1789799645339181600,3.217181640625,-1.3773829936981201,0.03462916985154152,-0.45650631189346313
1789799645349153800,3.22715380859375,-1.3165254592895508,-0.10612662136554718,-0.44167035818099976
1789799645359124700,3.237124755859375,-1.2814441919326782,-0.0924743041396141,-0.42451465129852295
1789799645369096700,3.2470966796875,-1.2531036138534546,0.04570140689611435,-0.420058935880661
1789799645379067600,3.257067626953125,-1.2537074089050293,0.22084841132164001,-0.41757404804229736
1789799645389038600,3.26703857421875,-1.2919515371322632,0.3194170594215393,-0.3763680160045624
1789799645399010600,3.277010498046875,-1.3919503688812256,0.20962071418762207,-0.32685160636901855
1789799645408981500,3.2869814453125,-1.5323785543441772,-0.11934465169906616,-0.29138097167015076
1789799645418953700,3.29695361328125,-1.6031080484390259,-0.46270838379859924,-0.2681587040424347
1789799645428924700,3.306924560546875,-1.4941413402557373,-0.5274996161460876,-0.27722784876823425
1789799645438896600,3.316896728515625,-1.263587474822998,-0.29799583554267883,-0.32100310921669006
1789799645448867600,3.32686767578125,-1.1153658628463745,-0.273891806602478,-0.3140626549720764
1789799645458839600,3.336839599609375,-1.098468542098999,-0.8124746680259705,-0.227191761136055
1789799645468810500,3.346810546875,-1.1129209995269775,-1.1685997247695923,-0.15667152404785156
1789799645478781700,3.35678173828125,-1.1185753345489502,-1.1594951152801514,-0.16956521570682526
1789799645488753700,3.366753662109375,-1.127461552619934,-0.9928637742996216,-0.1808367818593979
1789799645498724600,3.376724609375,-1.135140299797058,-0.8500008583068848,-0.12999844551086426
1789799645508696600,3.386696533203125,-1.123952031135559,-0.757627010345459,-0.07834403216838837
1789799645518667800,3.396667724609375,-1.0667673349380493,-0.5004420280456543,-0.042505402117967606
1789799645528639500,3.406639404296875,-0.995153546333313,-0.2554258704185486,0.03556729480624199
1789799645538610700,3.416610595703125,-0.9508130550384521,-0.21987982094287872,0.12636247277259827
1789799645548581600,3.42658154296875,-0.86826092004776,0.0049735382199287415,0.16468802094459534
1789799645558553600,3.4365537109375,-0.7320650219917297,0.5231125950813293,0.19555576145648956
1789799645568524500,3.446524658203125,-0.6488372683525085,0.9882333874702454,0.21003375947475433
1789799645578496800,3.456496826171875,-0.6636553406715393,1.103485345840454,0.28430983424186707
1789799645588467700,3.4664677734375,-0.6044370532035828,0.7332050800323486,0.3612871766090393
1789799645598439700,3.476439697265625,-0.3361019194126129,0.15034686028957367,0.3316957652568817
1789799645608410600,3.48641064453125,-0.19324170053005219,0.005199790000915527,0.29273319244384766
1789799645618381800,3.4963818359375,-0.0883968248963356,-0.08478430658578873,0.3328331708908081
1789799645628353500,3.506353515625,-0.010980597697198391,-0.16670633852481842,0.4283658266067505
1789799645638324000,3.516323974609375,0.007799183018505573,-0.1790062040090561,0.4729730486869812
1789799645648296000,3.5262958984375,0.03322145342826843,-0.12279166281223297,0.4536171853542328
1789799645658267100,3.53626708984375,0.11062439531087875,0.06791149824857712,0.3857983946800232
1789799645668238800,3.54623876953125,0.2203032225370407,0.11247417330741882,0.3711177110671997
1789799645678210000,3.5562099609375,0.4086102545261383,0.00043825479224324226,0.41356533765792847
1789799645688181800,3.566181640625,0.6239390969276428,-0.029107119888067245,0.4188799262046814
1789799645698153000,3.576153076171875,0.806462824344635,0.249324232339859,0.4177286624908447
1789799645708124000,3.5861240234375,0.8858543038368225,0.4554116427898407,0.5266447067260742
1789799645718096100,3.59609619140625,0.8335999250411987,0.6334623694419861,0.6423107385635376
1789799645728066800,3.60606689453125,0.8002819418907166,0.711844265460968,0.6151406168937683
1789799645738039000,3.6160390625,0.9018226265907288,0.6853782534599304,0.5341870784759521
1789799645748010000,3.626010009765625,1.1036384105682373,0.8665120601654053,0.4441402852535248
1789799645757982000,3.63598193359375,1.3798710107803345,0.966051459312439,0.4594295024871826
1789799645767953000,3.645952880859375,1.6609708070755005,0.7864763736724854,0.5024629831314087
1789799645777923800,3.655923828125,1.8555248975753784,0.5453587174415588,0.5403439998626709
1789799645787895800,3.665895751953125,1.91592538356781,0.5013023018836975,0.5412744879722595
1789799645797866800,3.67586669921875,1.8236936330795288,0.5407463312149048,0.49449363350868225
1789799645807839000,3.6858388671875,1.6561030149459839,0.6698718667030334,0.3660973012447357
1789799645817810000,3.695809814453125,1.6055270433425903,0.8943421244621277,0.21028678119182587
1789799645827782000,3.705781982421875,1.6388626098632812,0.9019664525985718,0.15020933747291565
1789799645837752800,3.7157529296875,1.6721097230911255,0.7024012804031372,0.1442231982946396
1789799645847724800,3.725724853515625,1.748555064201355,0.5178269147872925,0.16559825837612152
1789799645857695700,3.73569580078125,1.850804090499878,0.37982720136642456,0.19461233913898468
1789799645867667000,3.7456669921875,1.960695743560791,0.19269566237926483,0.19592048227787018
1789799645877639000,3.755638916015625,2.0091137886047363,0.012997562065720558,0.18985584378242493
1789799645887609900,3.76560986328125,1.983961582183838,0.07685643434524536,0.16921395063400269
1789799645897581800,3.775581787109375,1.958723783493042,0.4031004011631012,0.10357176512479782
1789799645907553000,3.785552978515625,1.960076093673706,0.6520044803619385,0.03556820750236511
1789799645917524700,3.795524658203125,1.990717887878418,0.7181517481803894,0.0026840800419449806
1789799645927496000,3.805495849609375,1.9518152475357056,0.5489773750305176,0.009140647947788239
1789799645937468000,3.815468017578125,1.8860976696014404,0.48016080260276794,0.032157398760318756
1789799645947438800,3.82543896484375,1.8287243843078613,0.6816917657852173,0.037927668541669846
1789799645957409800,3.835409912109375,1.7599990367889404,0.7738369703292847,-0.06741826236248016
1789799645967382000,3.845382080078125,1.6901164054870605,0.6878280639648438,-0.19215112924575806
1789799645977353000,3.85535302734375,1.5718023777008057,0.6430482864379883,-0.1776658594608307
1789799645987325000,3.865324951171875,1.390224575996399,0.5392071008682251,-0.053693581372499466
1789799645997295900,3.8752958984375,1.251558542251587,0.3762701749801636,-0.017402127385139465
1789799646007267800,3.885267822265625,1.208897590637207,0.24937376379966736,-0.07903832197189331
1789799646017238800,3.89523876953125,1.2097455263137817,0.07056539505720139,-0.13641461730003357
1789799646027211000,3.9052109375,1.1721057891845703,-0.0707552433013916,-0.09237845242023468
1789799646037182000,3.915181884765625,1.1037049293518066,-0.2082335203886032,-0.04701986536383629
1789799646047153000,3.92515283203125,1.0539333820343018,-0.24928483366966248,-0.08739285916090012
1789799646057124900,3.935124755859375,1.0146660804748535,-0.0909990444779396,-0.09063951671123505
1789799646067096000,3.945095947265625,1.0007809400558472,0.18901769816875458,-0.035989850759506226
1789799646077067800,3.95506787109375,1.0552334785461426,0.39868539571762085,-0.013690782710909843
1789799646087039000,3.9650390625,1.0433698892593384,0.4168582558631897,-0.028924331068992615
1789799646097011000,3.975010986328125,0.9321166276931763,0.369047611951828,-0.0643758773803711
1789799646106982000,3.98498193359375,0.8174251914024353,0.27669480443000793,-0.15253371000289917
1789799646116953900,3.994953857421875,0.6947048902511597,0.10591737180948257,-0.2613404393196106
1789799646126925000,4.004925048828125,0.5412471294403076,-0.07613365352153778,-0.305838406085968
1789799646136896000,4.01489599609375,0.3905249834060669,-0.20253898203372955,-0.29766809940338135
1789799646146868000,4.024867919921875,0.22238416969776154,-0.19596683979034424,-0.23631498217582703
1789799646156839000,4.0348388671875,0.04019972309470177,-0.0419478714466095,-0.13283587992191315
1789799646166811000,4.044810791015625,-0.1462058424949646,-0.05441093072295189,-0.08728091418743134
1789799646176781800,4.05478173828125,-0.29981645941734314,-0.305796355009079,-0.09043145179748535
1789799646186754000,4.064754150390625,-0.43114733695983887,-0.42299994826316833,-0.11821647733449936
1789799646196725000,4.07472509765625,-0.5236104130744934,-0.3945029079914093,-0.1660073846578598
1789799646206697000,4.084697021484375,-0.5981448292732239,-0.29433661699295044,-0.1896677017211914
1789799646216668000,4.09466796875,-0.6847587823867798,-0.1995018869638443,-0.1556599885225296
1789799646226639000,4.10463916015625,-0.7786986231803894,0.07795608788728714,-0.04290495067834854
1789799646236610800,4.11461083984375,-0.853454053401947,0.23068904876708984,0.10806499421596527
1789799646246582000,4.12458203125,-0.8849624395370483,0.6191542744636536,0.2621980905532837
1789799646256554000,4.134553955078125,-0.8727193474769592,0.7607774138450623,0.34947946667671204
1789799646266525000,4.14452490234375,-0.892462968826294,0.593429446220398,0.384373277425766
1789799646276497000,4.154496826171875,-0.9202264547348022,0.267764687538147,0.4043023884296417
1789799646286468000,4.164468017578125,-0.9789147973060608,-0.03783811628818512,0.4100132882595062
1789799646296439800,4.174439697265625,-1.0415970087051392,-0.31790485978126526,0.3977908194065094
1789799646306411000,4.184410888671875,-1.0311745405197144,-0.5540116429328918,0.3668496906757355
1789799646316382000,4.1943818359375,-0.9207292199134827,-0.7628884315490723,0.27640295028686523
1789799646326354000,4.20435400390625,-0.7679940462112427,-0.7583634257316589,0.16408678889274597
1789799646336324900,4.214324951171875,-0.6152993440628052,-0.5462396144866943,0.060283660888671875
1789799646346297000,4.224297119140625,-0.4694225490093231,-0.297458291053772,-0.03060842677950859
1789799646356268000,4.23426806640625,-0.35117924213409424,-0.2005920112133026,-0.1080315113067627
1789799646366240000,4.244239990234375,-0.2887856662273407,-0.1967962086200714,-0.14045843482017517
1789799646376211000,4.2542109375,-0.2803921401500702,-0.24040266871452332,-0.1468569040298462
1789799646386183000,4.264182861328125,-0.3070636987686157,0.16331550478935242,-0.142889603972435
1789799646396153900,4.27415380859375,-0.2607438862323761,0.46698591113090515,-0.17545801401138306
1789799646406124800,4.284124755859375,-0.28723034262657166,0.36164990067481995,-0.2505500912666321
1789799646416097000,4.294096923828125,-0.48429304361343384,0.5953574180603027,-0.3177265524864197
1789799646426067700,4.304067626953125,-0.7396307587623596,0.938581109046936,-0.35140037536621094
1789799646436040000,4.3140400390625,-1.0309295654296875,1.0760152339935303,-0.3515373766422272
1789799646446011000,4.324010986328125,-1.3321034908294678,0.8676316738128662,-0.3954768776893616
1789799646455982800,4.33398291015625,-1.567696213722229,0.5697411298751831,-0.4591262638568878
1789799646465953800,4.343953857421875,-1.6363320350646973,0.2859509289264679,-0.48800423741340637
1789799646475926000,4.353926025390625,-1.6332465410232544,-0.032000582665205,-0.535735547542572
1789799646485896700,4.363896728515625,-1.6186782121658325,-0.3338741660118103,-0.5941983461380005
1789799646495869000,4.373868896484375,-1.6293282508850098,-0.5229437351226807,-0.6080639958381653
1789799646505839900,4.38383984375,-1.6877435445785522,-0.5402697324752808,-0.589699387550354
1789799646515811000,4.39381103515625,-1.75873601436615,-0.3983374834060669,-0.5767384171485901
1789799646525782800,4.40378271484375,-1.7794826030731201,-0.36227163672447205,-0.5684983134269714
1789799646535754000,4.41375390625,-1.7985494136810303,-0.47687751054763794,-0.5269182920455933
1789799646545725700,4.4237255859375,-1.8222148418426514,-0.5706202387809753,-0.4770926833152771
1789799646555697000,4.43369677734375,-1.8598780632019043,-0.4335421621799469,-0.4648095369338989
1789799646565668900,4.4436689453125,-1.8579143285751343,-0.23526155948638916,-0.5283392071723938
1789799646575640000,4.45364013671875,-1.8385488986968994,-0.10563890635967255,-0.6067742705345154
1789799646585611800,4.46361181640625,-1.8456430435180664,-0.01178724505007267,-0.6052999496459961
1789799646595583000,4.4735830078125,-1.9042681455612183,0.07666271179914474,-0.5469525456428528
1789799646605554000,4.483553955078125,-1.9761722087860107,-0.0015269009163603187,-0.4725959897041321
1789799646615526000,4.49352587890625,-2.0349385738372803,-0.26031970977783203,-0.4219220280647278
1789799646625496800,4.503496826171875,-2.0234415531158447,-0.5139977931976318,-0.4205811321735382
1789799646635468800,4.51346875,-1.9624683856964111,-0.5673795342445374,-0.4563838541507721
1789799646645439700,4.523439697265625,-1.8315359354019165,-0.542157769203186,-0.5434473752975464
1789799646655411700,4.53341162109375,-1.7204123735427856,-0.5246004462242126,-0.610357403755188
1789799646665382700,4.543382568359375,-1.5904111862182617,-0.5715173482894897,-0.6057509183883667
1789799646675354600,4.553354736328125,-1.4585024118423462,-0.6825883984565735,-0.559314489364624
1789799646685325600,4.56332568359375,-1.3997735977172852,-0.7416969537734985,-0.5002290606498718
1789799646695297800,4.5732978515625,-1.2188278436660767,-0.7497130632400513,-0.5000900030136108
1789799646705268700,4.583268798828125,-1.0127297639846802,-0.6660266518592834,-0.49021628499031067
1789799646715239700,4.59323974609375,-0.7914063930511475,-0.4599890410900116,-0.4012399911880493
1789799646725211600,4.603211669921875,-0.5841152667999268,-0.40338408946990967,-0.28053247928619385
1789799646735182800,4.613182861328125,-0.42440661787986755,-0.47577109932899475,-0.23131170868873596
1789799646745154600,4.623154541015625,-0.2982316315174103,-0.49676451086997986,-0.21743744611740112
1789799646755125800,4.633125732421875,-0.19311532378196716,-0.41306257247924805,-0.15091732144355774
1789799646765097700,4.64309765625,-0.08418138325214386,-0.22331927716732025,-0.1349271684885025
1789799646775068700,4.653068603515625,0.09086314588785172,0.005292907822877169,-0.16312675178050995
1789799646785040600,4.66304052734375,0.2258172333240509,0.22888526320457458,-0.16949011385440826
1789799646795011800,4.67301171875,0.26768583059310913,0.39461973309516907,-0.08705964684486389
1789799646804983600,4.682983642578125,0.2011909782886505,0.5223595499992371,0.06450271606445312
1789799646814954800,4.692954833984375,0.21195465326309204,0.5986908674240112,0.13958141207695007
1789799646824925700,4.70292578125,0.36926332116127014,0.32931479811668396,0.08894752711057663
1789799646834897700,4.712897705078125,0.4061017632484436,0.21442227065563202,0.09199585765600204
1789799646844868600,4.72286865234375,0.49552884697914124,0.37648892402648926,0.06142650172114372
1789799646854840800,4.7328408203125,0.5936597585678101,0.46843546628952026,0.048712775111198425
1789799646864811800,4.742811767578125,0.603007972240448,0.48536330461502075,0.17212286591529846
1789799646874783700,4.75278369140625,0.6523358225822449,0.4768209159374237,0.29040414094924927
1789799646884754700,4.762754638671875,0.6809501051902771,0.38980212807655334,0.33235982060432434
1789799646894726700,4.7727265625,0.7235016226768494,0.38916993141174316,0.2916155159473419
1789799646904697600,4.782697509765625,0.8227514624595642,0.2696493864059448,0.20255409181118011
1789799646914669800,4.792669921875,0.9394562244415283,0.2758100926876068,0.13542413711547852
1789799646924640800,4.802640869140625,1.1477564573287964,0.6431276202201843,0.04022439196705818
1789799646934611700,4.81261181640625,1.3560295104980469,0.8749232292175293,0.0373573824763298
1789799646944583700,4.822583740234375,1.4631738662719727,0.8480591177940369,0.09566409885883331
1789799646954555000,4.832554931640625,1.4945852756500244,0.7126823663711548,0.04228784888982773
1789799646964526600,4.842526611328125,1.5125133991241455,0.7147809267044067,-0.05806485563516617
1789799646974497800,4.852497802734375,1.5631097555160522,0.8058804869651794,-0.1326369047164917
1789799646984469800,4.8624697265625,1.6284724473953247,0.6589317917823792,-0.17265889048576355
1789799646994440700,4.872440673828125,1.740624189376831,0.49216410517692566,-0.17624013125896454
1789799647004412700,4.88241259765625,1.8411816358566284,0.5595018863677979,-0.1780308485031128
1789799647014383900,4.8923837890625,1.8750971555709839,0.6245890855789185,-0.1533946990966797
1789799647024355600,4.90235546875,1.8509635925292969,0.5040847659111023,-0.14713867008686066
1789799647034326800,4.912326904296875,1.8666343688964844,0.39752960205078125,-0.1773167848587036
1789799647044297700,4.922297607421875,1.9426846504211426,0.49065688252449036,-0.24760134518146515
1789799647054269700,4.932269775390625,2.0286600589752197,0.6054051518440247,-0.3141832649707794
1789799647064240600,4.94224072265625,1.9681693315505981,0.5391238331794739,-0.3486562967300415
1789799647074212900,4.952212890625,1.867967128753662,0.5076159238815308,-0.31018009781837463
1789799647084183800,4.962183837890625,1.8764985799789429,0.5753238797187805,-0.22339728474617004
1789799647094155800,4.97215576171875,1.9846646785736084,0.6479031443595886,-0.24149486422538757
1789799647104126700,4.982126708984375,2.013993740081787,0.5754600763320923,-0.3903202712535858
1789799647114098700,4.9920986328125,1.969358205795288,0.4317096769809723,-0.4764168858528137
1789799647124069600,5.002069580078125,1.8586574792861938,0.30615919828414917,-0.37925437092781067
1789799647134041900,5.012041748046875,1.7265042066574097,0.11699539422988892,-0.28729426860809326
1789799647144012800,5.0220126953125,1.5757977962493896,-0.12796321511268616,-0.3068080544471741
1789799647153983700,5.031983642578125,1.406327486038208,-0.2914365530014038,-0.27621597051620483
1789799647163955700,5.041955810546875,1.3158618211746216,-0.34505584836006165,-0.21057355403900146
1789799647173927000,5.051927001953125,1.2852460145950317,-0.2979525327682495,-0.16947753727436066
1789799647183898600,5.061898681640625,1.2381319999694824,-0.1936541199684143,-0.12498970329761505
1789799647193869800,5.071869873046875,1.2416445016860962,-0.15318484604358673,-0.09720569103956223
1789799647203841800,5.081841796875,1.2682119607925415,-0.3208201825618744,-0.13332508504390717
1789799647213812700,5.091812744140625,1.2218667268753052,-0.5290091037750244,-0.1662278175354004
1789799647223784700,5.10178466796875,1.1598951816558838,-0.5723984241485596,-0.1083621233701706
1789799647233756000,5.111755859375,1.0963777303695679,-0.4779681861400604,0.02920687012374401
1789799647243727600,5.1217275390625,1.0283787250518799,-0.35896456241607666,0.18706999719142914
1789799647253698800,5.13169873046875,0.9693289399147034,-0.3456822335720062,0.2758088707923889
1789799647263670800,5.1416708984375,0.8996737003326416,-0.4425427317619324,0.2998236417770386
1789799647273641700,5.151641845703125,0.8019095659255981,-0.49070867896080017,0.29074734449386597
1789799647283612700,5.16161279296875,0.7054384350776672,-0.4678904414176941,0.28450727462768555
1789799647293585000,5.1715849609375,0.5887637138366699,-0.40735888481140137,0.3068244755268097
1789799647303555800,5.181555908203125,0.42964860796928406,-0.3339240849018097,0.33970972895622253
1789799647313527800,5.19152783203125,0.29353129863739014,-0.3389047086238861,0.3374076187610626
1789799647323498800,5.201498779296875,0.16461032629013062,-0.3928353190422058,0.2860376536846161
1789799647333470700,5.211470703125,0.029429327696561813,-0.5239548683166504,0.22476153075695038
1789799647343441700,5.221441650390625,-0.08422213792800903,-0.624100387096405,0.22846518456935883
1789799647353414000,5.231413818359375,-0.21678787469863892,-0.3382440209388733,0.3107054829597473
1789799647363384800,5.241384765625,-0.3041731119155884,0.0063714152202010155,0.3705347776412964
1789799647373356800,5.251356689453125,-0.37054577469825745,0.05920897424221039,0.3474584221839905
1789799647383327700,5.26132763671875,-0.4657106399536133,0.04778055101633072,0.2701761722564697
1789799647393299700,5.2712998046875,-0.5761974453926086,-0.02443966083228588,0.1518470048904419
1789799647403270700,5.281270751953125,-0.6683976650238037,-0.15791036188602448,0.07104456424713135
1789799647413241600,5.29124169921875,-0.7413512468338013,-0.31808409094810486,0.10152798891067505
1789799647423213800,5.3012138671875,-0.8122153282165527,-0.323638379573822,0.22201445698738098
1789799647433184500,5.3111845703125,-0.8899466395378113,-0.03768230602145195,0.312928706407547
1789799647443156700,5.32115673828125,-0.9156532883644104,0.2479180097579956,0.2874651849269867
1789799647453127700,5.331127685546875,-0.8755183815956116,0.3818072974681854,0.18990547955036163
1789799647463099600,5.341099609375,-0.8463477492332458,0.2828468978404999,0.07482682168483734
1789799647473070600,5.351070556640625,-0.8583330512046814,0.0632689967751503,-0.015461700037121773
1789799647483042800,5.361042724609375,-0.895435631275177,0.017840534448623657,-0.03800136223435402
1789799647493013500,5.371013427734375,-0.9604143500328064,0.02894280105829239,-0.04295383766293526
1789799647502985700,5.38098583984375,-0.9805944561958313,0.01047644205391407,-0.06683680415153503
1789799647512956700,5.390956787109375,-0.9684725999832153,-0.012601527385413647,-0.07405657321214676
1789799647522927900,5.400927978515625,-0.9965505599975586,0.08057794719934464,-0.04643559455871582
1789799647532899600,5.410899658203125,-1.0298017263412476,0.15970514714717865,-0.07422208040952682
1789799647542870800,5.420870849609375,-1.0757108926773071,0.014721324667334557,-0.1915186196565628
1789799647552842500,5.430842529296875,-1.1128369569778442,-0.19086189568042755,-0.2683742344379425
1789799647562813700,5.440813720703125,-1.135274052619934,-0.4752632677555084,-0.25174680352211
1789799647572785700,5.45078564453125,-1.2443749904632568,-0.714676022529602,-0.2012975960969925
1789799647582756900,5.4607568359375,-1.391250491142273,-0.7066659927368164,-0.19811537861824036
1789799647592728600,5.470728515625,-1.4878329038619995,-0.36754319071769714,-0.32199394702911377
1789799647602699800,5.48069970703125,-1.4813072681427002,0.07343687862157822,-0.5052847266197205
1789799647612671500,5.49067138671875,-1.4491246938705444,0.24283450841903687,-0.6023679971694946
1789799647622642700,5.500642578125,-1.4360454082489014,0.17426928877830505,-0.5863434672355652
1789799647632614700,5.51061474609375,-1.4174197912216187,-0.14395269751548767,-0.512750506401062
1789799647642586600,5.520586669921875,-1.377590298652649,-0.45932289958000183,-0.4397846758365631
1789799647652557600,5.5305576171875,-1.348821997642517,-0.4676705598831177,-0.42471954226493835
1789799647662529800,5.54052978515625,-1.3992165327072144,-0.153315007686615,-0.502112865447998
1789799647672500700,5.550500732421875,-1.4506484270095825,0.07158149778842926,-0.587787389755249
1789799647682472700,5.56047265625,-1.5401031970977783,0.10514185577630997,-0.6004893183708191
1789799647692443600,5.570443603515625,-1.6168196201324463,0.04714877903461456,-0.5762805342674255
1789799647702415600,5.58041552734375,-1.6922705173492432,0.05068705230951309,-0.5236184000968933
1789799647712386600,5.590386474609375,-1.7622077465057373,0.0794229730963707,-0.45347151160240173
1789799647722358800,5.60035888671875,-1.835378885269165,0.13548465073108673,-0.380827397108078
1789799647732329700,5.610329833984375,-1.8606680631637573,0.07603353261947632,-0.3125145733356476
1789799647742301700,5.6203017578125,-1.821165680885315,-0.13188691437244415,-0.2701737880706787
1789799647752272600,5.630272705078125,-1.728536605834961,-0.3335217535495758,-0.23320920765399933
1789799647762243600,5.64024365234375,-1.5737714767456055,-0.46288639307022095,-0.1480570286512375
1789799647772215600,5.650215576171875,-1.3957879543304443,-0.6129080653190613,-0.07241151481866837
1789799647782186500,5.6601865234375,-1.2940911054611206,-0.735910952091217,-0.08360078185796738
1789799647792158700,5.67015869140625,-1.2745574712753296,-0.8911523222923279,-0.14691942930221558
1789799647802129400,5.68012939453125,-1.2788864374160767,-1.0665781497955322,-0.1510595828294754
1789799647812101600,5.6901015625,-1.277674674987793,-1.0839372873306274,-0.10299289226531982
1789799647822072600,5.700072509765625,-1.2095797061920166,-0.9405012130737305,-0.053779806941747665
1789799647832044500,5.71004443359375,-1.0880001783370972,-0.7992660403251648,0.0015957478899508715
1789799647842015500,5.720015380859375,-0.9760351181030273,-0.6178264617919922,0.07419884204864502
1789799647851987700,5.72998779296875,-0.8559355735778809,-0.43439099192619324,0.14804230630397797
1789799647861958400,5.73995849609375,-0.8007248044013977,-0.34583771228790283,0.21908532083034515
1789799647871930600,5.7499306640625,-0.7874417901039124,-0.4398839771747589,0.2844431400299072
1789799647881901600,5.759901611328125,-0.7056680917739868,-0.3429158926010132,0.32412371039390564
1789799647891872800,5.769872802734375,-0.525740385055542,0.039585135877132416,0.2848188281059265
1789799647901844500,5.779844482421875,-0.3821973502635956,0.3905189335346222,0.2378893941640854
1789799647911815700,5.789815673828125,-0.4151734411716461,0.5468351244926453,0.25302115082740784
1789799647921787400,5.799787353515625,-0.44435903429985046,0.718934178352356,0.33901408314704895
1789799647931758600,5.809758544921875,-0.3629102110862732,0.7279515266418457,0.4340130090713501
1789799647941730600,5.81973046875,-0.2257334589958191,0.782857358455658,0.44207146763801575
1789799647951701800,5.82970166015625,-0.03163856640458107,0.9484714269638062,0.3933587074279785
1789799647961673500,5.839673583984375,0.10427425801753998,1.031110405921936,0.37378019094467163
1789799647971644700,5.849644775390625,0.19767986238002777,0.9703162312507629,0.3607816696166992
1789799647981616400,5.859616455078125,0.2799433171749115,0.9706643223762512,0.3420274257659912
1789799647991587600,5.869587646484375,0.41522204875946045,1.0366921424865723,0.3118264973163605
1789799648001559600,5.8795595703125,0.5351093411445618,0.9752975106239319,0.3118123710155487
1789799648011530800,5.88953076171875,0.6226276755332947,0.8458326458930969,0.35626325011253357
1789799648021501400,5.89950146484375,0.7156782746315002,0.8462355732917786,0.3402957320213318
1789799648031473700,5.9094736328125,0.8504403829574585,1.0067129135131836,0.25218018889427185
1789799648041444600,5.919444580078125,1.0638163089752197,1.1650774478912354,0.15130123496055603
1789799648051416600,5.92941650390625,1.2572139501571655,1.159277081489563,0.07882446050643921
1789799648061387500,5.939387451171875,1.3856754302978516,1.079405426979065,0.017126476392149925
1789799648071359700,5.94935986328125,1.5076857805252075,0.8586496114730835,-0.07915481179952621
1789799648081330400,5.959330322265625,1.6630024909973145,0.6551124453544617,-0.19838665425777435
1789799648091302700,5.969302734375,1.8031643629074097,0.6294801831245422,-0.2995726764202118
1789799648101273600,5.979273681640625,1.8272004127502441,0.69525146484375,-0.34775272011756897
1789799648111245600,5.98924560546875,1.786979079246521,0.8316235542297363,-0.3591751158237457
1789799648121216500,5.999216552734375,1.7503293752670288,0.8642088770866394,-0.3705790340900421
1789799648131188700,6.009188720703125,1.722652554512024,0.7228261828422546,-0.38222557306289673
1789799648141159400,6.019159423828125,1.75625741481781,0.5436290502548218,-0.4646237790584564
1789799648151130600,6.029130615234375,1.8149384260177612,0.437566876411438,-0.582368791103363
1789799648161102600,6.0391025390625,1.8764008283615112,0.47693610191345215,-0.6534768342971802
1789799648171073800,6.04907373046875,1.9356811046600342,0.5491610169410706,-0.6874630451202393
1789799648181045500,6.05904541015625,2.0053915977478027,0.6667755246162415,-0.6965398788452148
1789799648191016700,6.0690166015625,2.0769765377044678,0.8006804585456848,-0.6758056879043579
1789799648200988400,6.078988525390625,2.111311197280884,0.8635159134864807,-0.6372319459915161
1789799648210959600,6.088959716796875,2.0673086643218994,0.8112736940383911,-0.5839069485664368
1789799648220931600,6.098931640625,1.985481858253479,0.7106884717941284,-0.5316200852394104
1789799648230902800,6.10890283203125,1.9318344593048096,0.6958829164505005,-0.5562629103660583
1789799648240874500,6.11887451171875,1.8845889568328857,0.8027641177177429,-0.6722180247306824
1789799648250845700,6.128845703125,1.8373939990997314,0.9868945479393005,-0.7709490060806274
1789799648260817400,6.1388173828125,1.7343714237213135,0.8995436429977417,-0.765227735042572
1789799648270788600,6.14878857421875,1.6219440698623657,0.5482519268989563,-0.6387504935264587
1789799648280759600,6.158759521484375,1.5595810413360596,0.3248060345649719,-0.5250228643417358
1789799648290731800,6.168731689453125,1.4969415664672852,0.4177638292312622,-0.563858687877655
1789799648300702500,6.178702392578125,1.3689194917678833,0.33833158016204834,-0.5912554264068604
1789799648310674700,6.1886748046875,1.204411268234253,0.0454072542488575,-0.5234380960464478
1789799648320645600,6.198645751953125,1.058208703994751,-0.18360330164432526,-0.4538448750972748
1789799648330617600,6.20861767578125,0.926390528678894,-0.2616763114929199,-0.38211753964424133
1789799648340588500,6.218588623046875,0.8374294638633728,-0.33878177404403687,-0.29888230562210083
1789799648350560800,6.228560791015625,0.7742592692375183,-0.3742799162864685,-0.24166370928287506
1789799648360531500,6.238531494140625,0.7082022428512573,-0.36728164553642273,-0.24520251154899597
1789799648370503700,6.248503662109375,0.5916785597801208,-0.3092402219772339,-0.26965761184692383
1789799648380474600,6.258474609375,0.4800305664539337,-0.25585290789604187,-0.24882769584655762
1789799648390446600,6.268446533203125,0.3853112757205963,-0.2645011246204376,-0.1884206086397171
1789799648400417500,6.27841748046875,0.26049795746803284,-0.21070608496665955,-0.15037761628627777
1789799648410388700,6.288388671875,0.1547859013080597,0.11536777019500732,-0.14973175525665283
1789799648420360400,6.2983603515625,0.14275240898132324,0.22163376212120056,-0.13083608448505402
1789799648430331600,6.30833154296875,0.08455729484558105,0.1190640926361084,-0.07329294830560684
1789799648440303600,6.3183037109375,-0.013347959145903587,0.02707984298467636,0.028441932052373886
1789799648450274800,6.32827490234375,-0.05165700986981392,0.08069802075624466,0.10929673165082932
1789799648460246500,6.33824658203125,-0.05101199075579643,-0.11480383574962616,0.1396903246641159
1789799648470217700,6.3482177734375,-0.0286552794277668,-0.38719919323921204,0.18070058524608612
1789799648480189400,6.358189453125,-0.0105375275015831,-0.5304858088493347,0.22213804721832275
1789799648490160600,6.36816064453125,-0.0439055971801281,-0.4902981221675873,0.26828354597091675
1789799648500132600,6.378132568359375,-0.1605166345834732,-0.12966430187225342,0.28498607873916626
1789799648510103800,6.388103759765625,-0.299517959356308,-0.12524056434631348,0.23097963631153107
1789799648520075500,6.398075439453125,-0.44614332914352417,-0.27915501594543457,0.17621412873268127
1789799648530046700,6.408046630859375,-0.5370870232582092,-0.21755558252334595,0.17773844301700592
1789799648540017700,6.418017578125,-0.6241796016693115,-0.09069030731916428,0.22360526025295258
1789799648549989600,6.42798974609375,-0.6256662607192993,-0.4458116292953491,0.20731312036514282
1789799648559960600,6.437960693359375,-0.6137307286262512,-0.5465741753578186,0.15911203622817993
1789799648569932800,6.447932861328125,-0.680837094783783,-0.1569136530160904,0.08513176441192627
1789799648579903500,6.457903564453125,-0.8260810971260071,0.38980773091316223,-0.03468411788344383
1789799648589875700,6.467875732421875,-1.0046476125717163,0.40553566813468933,-0.2099800854921341
1789799648599846700,6.4778466796875,-1.2959964275360107,0.3245396316051483,-0.3254545032978058
1789799648609818600,6.487818603515625,-1.4887123107910156,0.09245796501636505,-0.27641794085502625
1789799648619789600,6.49778955078125,-1.5100735425949097,-0.14685048162937164,-0.11976256966590881
1789799648629761800,6.50776171875,-1.3690167665481567,-0.06472944468259811,-0.10430395603179932
1789799648639732500,6.517732421875,-1.1989758014678955,0.03061331994831562,-0.26264408230781555
1789799648649704400,6.527704345703125,-1.1267008781433105,-0.11399486660957336,-0.38752683997154236
1789799648659675600,6.537675537109375,-1.0725891590118408,-0.2148551642894745,-0.4255730211734772
1789799648669646600,6.547646484375,-1.039328932762146,-0.3944563567638397,-0.4548446238040924
1789799648679618600,6.55761865234375,-1.0427236557006836,-0.4380440413951874,-0.4837351441383362
1789799648689589500,6.567589599609375,-1.0636955499649048,-0.15829306840896606,-0.4415896236896515
1789799648699561500,6.5775615234375,-1.0249994993209839,0.19678141176700592,-0.33008626103401184
1789799648709532400,6.587532470703125,-0.9260050058364868,0.22724789381027222,-0.2877247929573059
1789799648719504600,6.597504638671875,-0.958202600479126,0.04644748568534851,-0.30844953656196594
1789799648729475600,6.6074755859375,-1.0736050605773926,-0.06725369393825531,-0.31159621477127075
1789799648739447600,6.617447509765625,-1.1451091766357422,-0.21952925622463226,-0.31782081723213196
1789799648749418500,6.62741845703125,-1.144317626953125,-0.5724828839302063,-0.32191967964172363
1789799648759390700,6.637390625,-1.250195860862732,-0.8808097839355469,-0.2744256556034088
1789799648769361400,6.647361328125,-1.5767664909362793,-0.9473093152046204,-0.14816640317440033
1789799648779333600,6.657333740234375,-1.848353624343872,-0.6794149875640869,-0.0382862314581871
1789799648789304600,6.6673046875,-1.816036581993103,-0.33899104595184326,-0.05407397076487541
1789799648799276500,6.677276611328125,-1.7347021102905273,-0.3530125916004181,-0.14858423173427582
1789799648809247500,6.68724755859375,-1.7780003547668457,-0.5762064456939697,-0.2009790688753128
1789799648819218700,6.69721875,-1.8807799816131592,-0.8324243426322937,-0.1742507815361023
1789799648829190400,6.7071904296875,-1.9459774494171143,-1.0366582870483398,-0.08680415898561478
1789799648839161600,6.71716162109375,-2.053748846054077,-1.0752630233764648,0.03219067305326462
1789799648849133600,6.727133544921875,-2.1009023189544678,-1.1261382102966309,0.10688454657793045
1789799648859104500,6.7371044921875,-1.9834381341934204,-1.014573335647583,0.04657033458352089
1789799648869076500,6.747076416015625,-1.7991608381271362,-0.7322171330451965,-0.04344021901488304
1789799648879047700,6.757047607421875,-1.5792388916015625,-0.6991150975227356,-0.07760778069496155
1789799648889019400,6.767019287109375,-1.5400114059448242,-0.9810487627983093,0.09146202355623245
1789799648898990600,6.776990478515625,-1.6367299556732178,-1.1127820014953613,0.31149613857269287
1789799648908962600,6.786962646484375,-1.7661864757537842,-0.7935712933540344,0.3419022262096405
1789799648918933500,6.79693359375,-1.6214245557785034,-0.41405966877937317,0.2360551655292511
1789799648928905500,6.806905517578125,-1.2486858367919922,-0.2815815210342407,0.1606806069612503
1789799648938876700,6.816876708984375,-1.0291584730148315,-0.2836254835128784,0.15987499058246613
1789799648948847600,6.82684765625,-0.8537952303886414,-0.31356173753738403,0.1965731978416443
1789799648958819600,6.836819580078125,-0.7219863533973694,-0.2317534238100052,0.24585525691509247
1789799648968790500,6.84679052734375,-0.6585546731948853,0.016011470928788185,0.2896793782711029
1789799648978762800,6.8567626953125,-0.6362757682800293,0.07648839056491852,0.35802650451660156
1789799648988733400,6.8667333984375,-0.46938207745552063,0.27261069416999817,0.32778751850128174
1789799648998705700,6.87670556640625,-0.18894082307815552,0.2460821568965912,0.20009586215019226
1789799649008676600,6.886676513671875,-0.057586561888456345,0.1612352430820465,0.16171877086162567
1789799649018648600,6.896648681640625,0.01892019994556904,-0.020464515313506126,0.1641417145729065
1789799649028619500,6.90661962890625,0.0424087792634964,-0.1371636986732483,0.1517031490802765
1789799649038591700,6.916591796875,0.14423847198486328,-0.01114104688167572,0.1514645218849182
1789799649048562400,6.9265625,0.2687191367149353,0.0942651554942131,0.1731926053762436
1789799649058534700,6.93653466796875,0.3257661759853363,0.06796164810657501,0.22574928402900696
1789799649068505600,6.946505615234375,0.38122546672821045,0.05136537179350853,0.27964386343955994
1789799649078476500,6.9564765625,0.5148919224739075,0.09293784946203232,0.1448753923177719
1789799649088448500,6.966448486328125,0.6946904063224792,0.05998221039772034,-0.04779040440917015
1789799649098419700,6.976419677734375,0.8275483250617981,0.04013713449239731,-0.10708888620138168
1789799649108391400,6.986391357421875,0.936028778553009,0.07911386340856552,-0.06617694348096848
1789799649118362600,6.996362548828125,1.0381280183792114,0.18757189810276031,-0.03715488314628601
1789799649128334600,7.00633447265625,1.1477512121200562,0.2808317542076111,-0.04011109098792076
1789799649138305800,7.016305908203125,1.2756742238998413,0.36578500270843506,-0.06606253236532211
1789799649148277500,7.026277587890625,1.402101993560791,0.4511147737503052,-0.08490273356437683
1789799649158248700,7.036248779296875,1.4776062965393066,0.6112003326416016,-0.10387402772903442
1789799649168220400,7.046220458984375,1.5682247877120972,0.724016010761261,-0.16916179656982422
1789799649178191600,7.056191650390625,1.6876572370529175,0.6944261789321899,-0.184757262468338
1789799649188163600,7.06616357421875,1.7499756813049316,0.7165538668632507,-0.17283862829208374
1789799649198134800,7.076134765625,1.824509620666504,0.778264045715332,-0.16086453199386597
1789799649208105500,7.08610546875,1.8909016847610474,0.8973900675773621,-0.1597249060869217
1789799649218077700,7.09607763671875,1.9648123979568481,0.9277277588844299,-0.15571710467338562
1789799649228048600,7.106048583984375,2.0014328956604004,0.8197143077850342,-0.1529931128025055
1789799649238020600,7.1160205078125,2.0609779357910156,0.6142911314964294,-0.1500639021396637
1789799649247991600,7.125991455078125,2.165992259979248,0.4787819981575012,-0.15468432009220123
1789799649257963800,7.1359638671875,2.2147133350372314,0.38677778840065,-0.17433178424835205
1789799649267934500,7.1459345703125,2.207209348678589,0.3925875723361969,-0.19403472542762756
1789799649277906700,7.15590673828125,2.237140417098999,0.4580855965614319,-0.2259652018547058
1789799649287877600,7.165877685546875,2.280273675918579,0.26906484365463257,-0.23657995462417603
1789799649297849600,7.175849609375,2.1853344440460205,-0.03303271532058716,-0.1988472193479538
1789799649307820500,7.185820556640625,2.0173773765563965,-0.07044221460819244,-0.11841712146997452
1789799649317792800,7.195792724609375,1.884040355682373,-0.03548875451087952,-0.009250152856111526
1789799649327763500,7.205763427734375,1.7734365463256836,-0.09243258088827133,0.05554913356900215
1789799649337734400,7.215734375,1.6841458082199097,-0.19574326276779175,0.01570584625005722
1789799649347706600,7.22570654296875,1.6260231733322144,-0.32338929176330566,-0.02769370935857296
1789799649357677600,7.235677490234375,1.5971518754959106,-0.4632020592689514,-0.02263450250029564
1789799649367649500,7.2456494140625,1.5646061897277832,-0.5262161493301392,-0.009248467162251472
1789799649377620500,7.255620361328125,1.555831789970398,-0.5613831877708435,-0.01317343395203352
1789799649387592400,7.265592529296875,1.5525777339935303,-0.5845101475715637,0.0014021981041878462
1789799649397563400,7.2755634765625,1.5120420455932617,-0.49588334560394287,0.06466718763113022
1789799649407535600,7.28553564453125,1.4205904006958008,-0.3366720378398895,0.11537184566259384
1789799649417506600,7.295506591796875,1.349202036857605,-0.25333747267723083,0.05820443108677864
1789799649427478500,7.305478515625,1.1655738353729248,-0.20101399719715118,-0.014209998771548271
1789799649437449500,7.315449462890625,0.903893768787384,-0.02385120280086994,-0.07057181000709534
1789799649447420700,7.325420654296875,0.6768952012062073,0.2761485278606415,-0.087645523250103
1789799649457392400,7.335392333984375,0.4900648593902588,0.3456663489341736,-0.032220881432294846
1789799649467363600,7.345363525390625,0.33243104815483093,0.19404666125774384,0.05666005611419678
1789799649477335600,7.35533544921875,0.18884244561195374,0.0564054399728775,0.12950469553470612
1789799649487306500,7.365306396484375,0.04073631018400192,-0.2705706059932709,0.17434708774089813
1789799649497278500,7.375278564453125,-0.13898418843746185,-0.8946762681007385,0.17994904518127441
1789799649507249700,7.385249755859375,-0.3804740607738495,-1.2830243110656738,0.23494577407836914
1789799649517221400,7.395221435546875,-0.6156908273696899,-1.0070440769195557,0.3240087926387787
1789799649527192600,7.405192626953125,-0.7917636036872864,-0.6198382377624512,0.30669182538986206
1789799649537164500,7.41516455078125,-0.8885340690612793,-0.3387930393218994,0.26232409477233887
1789799649547135500,7.425135498046875,-0.9058709740638733,-0.192508265376091,0.2771309018135071
1789799649557107500,7.435107421875,-0.8472998142242432,-0.24007870256900787,0.32987692952156067
1789799649567078700,7.44507861328125,-0.7714667916297913,-0.2129005640745163,0.373060017824173
1789799649577049600,7.455049560546875,-0.7083916664123535,-0.26218584179878235,0.36468037962913513
1789799649587021600,7.465021484375,-0.650820255279541,-0.38547250628471375,0.3640739321708679
1789799649596992500,7.474992431640625,-0.5877792239189148,-0.29683879017829895,0.39523452520370483
1789799649606964500,7.484964599609375,-0.5105521082878113,-0.21904778480529785,0.43120449781417847
1789799649616935400,7.494935302734375,-0.45558154582977295,-0.2016562819480896,0.43544238805770874
1789799649626907600,7.50490771484375,-0.47526127099990845,-0.116944819688797,0.47586190700531006
1789799649636878600,7.514878662109375,-0.5844402313232422,0.10330339521169662,0.5209007859230042
1789799649646850000,7.52485009765625,-0.6336660385131836,0.2168930470943451,0.47259482741355896
1789799649656821200,7.5348212890625,-0.6572635173797607,0.08366281539201736,0.38806477189064026
1789799649666793200,7.544793212890625,-0.7233999371528625,-0.23801931738853455,0.3695574104785919
1789799649676764200,7.55476416015625,-0.8680723905563354,-0.5478663444519043,0.4301163852214813
1789799649686735000,7.564735107421875,-1.0936623811721802,-0.5029443502426147,0.46979910135269165
1789799649696707300,7.574707275390625,-1.3170644044876099,-0.14028434455394745,0.45559459924697876
1789799649706678300,7.58467822265625,-1.3742607831954956,0.28647205233573914,0.4133007526397705
1789799649716650200,7.594650146484375,-1.3926615715026855,0.1791359931230545,0.3204195499420166
1789799649726621200,7.60462109375,-1.5193899869918823,-0.35100966691970825,0.15868107974529266
1789799649736593200,7.61459326171875,-1.6325304508209229,-0.7477726936340332,0.028401095420122147
1789799649746564000,7.624564208984375,-1.6025587320327759,-0.7881051301956177,0.021362323313951492
1789799649756536300,7.634536376953125,-1.5118865966796875,-0.6336106061935425,0.1425827592611313
1789799649766507300,7.64450732421875,-1.4709497690200806,-0.6318680047988892,0.2725708782672882
1789799649776479200,7.654479248046875,-1.3941242694854736,-0.48400211334228516,0.28061148524284363
1789799649786450200,7.6644501953125,-1.3286025524139404,-0.27341803908348083,0.2191944569349289
1789799649796422100,7.674422119140625,-1.402754783630371,-0.1066647544503212,0.13906578719615936
1789799649806393000,7.68439306640625,-1.4965754747390747,-0.025714699178934097,0.07625790685415268
1789799649816364300,7.6943642578125,-1.6096240282058716,-0.14761796593666077,0.00484764389693737
1789799649826336300,7.704336181640625,-1.7402065992355347,-0.5711062550544739,-0.07017116993665695
1789799649836307200,7.71430712890625,-1.8748278617858887,-0.9653376936912537,-0.1147703304886818
1789799649846279200,7.724279052734375,-2.0066311359405518,-0.9432111382484436,-0.10160453617572784
1789799649856250400,7.73425048828125,-2.106437921524048,-0.5783937573432922,-0.10713032633066177
1789799649866222000,7.74422216796875,-2.0888044834136963,-0.21726703643798828,-0.13505548238754272
1789799649876193300,7.754193359375,-1.9996743202209473,-0.06312274187803268,-0.15816213190555573
1789799649886165200,7.764165283203125,-1.9599689245224,0.055122993886470795,-0.17540696263313293
1789799649896136200,7.77413623046875,-1.965556263923645,-0.0023373716976493597,-0.12184759974479675
1789799649906108200,7.784108154296875,-1.9697718620300293,-0.28512850403785706,-0.0069816987961530685
1789799649916079400,7.794079345703125,-1.826196312904358,-0.5957545638084412,0.0005989887285977602
1789799649926050300,7.80405029296875,-1.6642405986785889,-0.6441742777824402,-0.07858274132013321
1789799649936022300,7.814022216796875,-1.5733485221862793,-0.7684994339942932,-0.13954675197601318
1789799649945993200,7.8239931640625,-1.47256600856781,-0.9514463543891907,-0.06997469067573547
1789799649955965200,7.833965087890625,-1.4288809299468994,-1.014268398284912,0.09133829921483994
1789799649965936000,7.84393603515625,-1.4165232181549072,-0.897100567817688,0.15414878726005554
1789799649975908400,7.853908447265625,-1.2661705017089844,-0.6427039504051208,0.1022658720612526
1789799649985879300,7.86387939453125,-0.9156002402305603,-0.3693394660949707,0.05926400050520897
1789799649995851300,7.873851318359375,-0.6426867246627808,-0.18558508157730103,0.1134801059961319
1789799650005822200,7.883822265625,-0.5207405686378479,-0.1837834268808365,0.19553956389427185
1789799650015794200,7.893794189453125,-0.42774301767349243,-0.28546133637428284,0.27755001187324524
1789799650025765000,7.90376513671875,-0.37946006655693054,-0.3910677134990692,0.34211066365242004
1789799650035736000,7.913736083984375,-0.3377179503440857,-0.19072343409061432,0.31619971990585327
1789799650045708300,7.923708251953125,-0.2660936713218689,0.17267295718193054,0.24125662446022034
1789799650055679000,7.933678955078125,-0.15095962584018707,0.42714065313339233,0.21988768875598907
1789799650065651200,7.943651123046875,-0.09231730550527573,0.3177606463432312,0.2781182527542114
1789799650075622100,7.9536220703125,-0.04269835725426674,0.3115807771682739,0.3500574231147766
1789799650085594000,7.963593994140625,0.0796472430229187,0.5413497090339661,0.35107770562171936
1789799650095565000,7.97356494140625,0.14257080852985382,0.5450200438499451,0.377663254737854
1789799650105537300,7.983537353515625,0.12443998456001282,0.5953101515769958,0.3792479336261749
1789799650115508000,7.993508056640625,0.24045661091804504,0.7379772663116455,0.3035323917865753
1789799650125480200,8.003480224609374,0.529275119304657,0.8505849242210388,0.2277413010597229
1789799650135451100,8.013451171875,0.7632444500923157,0.9223030805587769,0.19735488295555115
1789799650145422300,8.02342236328125,0.8777459859848022,0.6987726092338562,0.1903347373008728
1789799650155394000,8.03339404296875,0.9787636995315552,0.6168287396430969,0.08984728157520294
1789799650165365200,8.043365234375,1.1723170280456543,0.9792729020118713,-0.052787840366363525
1789799650175337000,8.0533369140625,1.2696624994277954,1.415807843208313,-0.09007076174020767
1789799650185308200,8.06330810546875,1.2847702503204346,1.5765161514282227,0.06323547661304474
1789799650195280100,8.073280029296875,1.1933865547180176,1.4502437114715576,0.24615176022052765
1789799650205251300,8.083251220703126,1.307751178741455,1.1235575675964355,0.23589150607585907
1789799650215223000,8.09322314453125,1.5127325057983398,0.8687388300895691,-0.02701123245060444
1789799650225194200,8.1031943359375,1.6870393753051758,0.6464102268218994,-0.22670601308345795
1789799650235166000,8.113166015625,1.7515653371810913,0.5639060139656067,-0.22489213943481445
1789799650245137200,8.12313720703125,1.783395528793335,0.6024553179740906,-0.1597796380519867
1789799650255108000,8.133108154296876,1.8292239904403687,0.7228341698646545,-0.09045727550983429
1789799650265080300,8.143080322265625,1.8869138956069946,0.6005377769470215,0.0017661009915173054
1789799650275051000,8.153051025390624,1.9394445419311523,0.3696070611476898,-0.034284044057130814
1789799650285023200,8.163023193359376,2.004220724105835,0.3393063545227051,-0.16602754592895508
1789799650294994200,8.172994140625,2.0677950382232666,0.46231964230537415,-0.29026666283607483
1789799650304966100,8.182966064453124,2.1343510150909424,0.6294813752174377,-0.3708656430244446
1789799650314937000,8.19293701171875,2.2387571334838867,0.826787531375885,-0.37849748134613037
1789799650324909300,8.202909423828125,2.358384370803833,0.9585322737693787,-0.3292715847492218
1789799650334880000,8.2128798828125,2.360302209854126,0.9167385101318359,-0.2506076693534851
1789799650344852200,8.222852294921875,2.287393093109131,0.714093804359436,-0.20254328846931458
1789799650354823200,8.2328232421875,2.2782340049743652,0.6389428377151489,-0.19473330676555634
1789799650364794400,8.24279443359375,2.3326573371887207,0.7047460675239563,-0.2621758282184601
1789799650374766000,8.25276611328125,2.252232074737549,0.6524314880371094,-0.30701708793640137
1789799650384737300,8.2627373046875,2.0172019004821777,0.5506229996681213,-0.2651509642601013
1789799650394709000,8.272708984375,1.767856240272522,0.48601147532463074,-0.2215062975883484
1789799650404680200,8.28268017578125,1.6600778102874756,0.425500750541687,-0.24176841974258423
1789799650414652200,8.292652099609375,1.5961651802062988,0.3196190595626831,-0.32471656799316406
1789799650424623400,8.302623291015625,1.4345695972442627,-0.050401706248521805,-0.3557257354259491
1789799650434595000,8.312594970703126,1.2831225395202637,-0.37877771258354187,-0.25383320450782776
1789799650444566300,8.322566162109375,1.1956052780151367,-0.3057297170162201,-0.28986793756484985
1789799650454538000,8.3325380859375,1.0713860988616943,-0.15547071397304535,-0.4484359920024872
1789799650464509200,8.34250927734375,0.8712742924690247,-0.20308566093444824,-0.4609682261943817
1789799650474480000,8.352480224609375,0.6651376485824585,-0.35566961765289307,-0.2624407410621643
1789799650484452400,8.362452392578126,0.5082561373710632,-0.44240280985832214,-0.04205464571714401
1789799650494423000,8.372423095703125,0.3761974275112152,-0.31512075662612915,0.07014885544776917
1789799650504395300,8.382395263671874,0.28961700201034546,-0.18154750764369965,0.0624830424785614
1789799650514366200,8.3923662109375,0.250651478767395,-0.3266389071941376,0.007730580400675535
1789799650524338200,8.402338134765625,0.17552584409713745,-0.3918896019458771,-0.059863388538360596
1789799650534309000,8.41230908203125,0.15179255604743958,-0.28609713912010193,-0.12039943784475327
1789799650544281300,8.42228125,0.22611849009990692,-0.4279237389564514,-0.16444207727909088
1789799650554252000,8.432251953125,0.2423592507839203,-0.504467248916626,-0.17350907623767853
1789799650564224300,8.442224365234376,0.19702182710170746,-0.40214619040489197,-0.13567335903644562
1789799650574195200,8.4521953125,0.09782680869102478,0.007133202161639929,-0.11476621776819229
1789799650584166400,8.46216650390625,0.015751361846923828,0.3901093602180481,-0.08850114792585373
1789799650594138000,8.47213818359375,-0.013670708052814007,0.3748537003993988,-0.007516016718000174
1789799650604109300,8.482109375,-0.009463450871407986,0.07818131148815155,0.18137508630752563
1789799650614081000,8.4920810546875,-0.04982978105545044,0.04711606726050377,0.3928905129432678
1789799650624052200,8.50205224609375,-0.12088476121425629,0.2856302261352539,0.4970046281814575
1789799650634024200,8.512024169921874,-0.1983734369277954,0.40533798933029175,0.4821189045906067
1789799650643995000,8.521994873046875,-0.37673571705818176,0.6221590638160706,0.4633861482143402
1789799650653966800,8.531966796875,-0.5465364456176758,0.7441225051879883,0.4571026861667633
1789799650663937800,8.541937744140625,-0.6420004367828369,0.374826043844223,0.40310218930244446
1789799650673910000,8.551909912109375,-0.8070607781410217,0.039004646241664886,0.3106313645839691
1789799650683880700,8.561880615234376,-0.9591048359870911,0.20195479691028595,0.1977185159921646
1789799650693851600,8.5718515625,-1.065592885017395,0.21498191356658936,0.0871105045080185
1789799650703824000,8.581823974609375,-1.1598893404006958,-0.19930343329906464,0.006589910015463829
1789799650713794800,8.591794921875,-1.2986820936203003,-0.6871106624603271,-0.09891387820243835
1789799650723766800,8.601766845703125,-1.452460765838623,-0.7547315955162048,-0.2430654913187027
1789799650733737700,8.61173779296875,-1.4786444902420044,-0.406127005815506,-0.3494987189769745
1789799650743709700,8.621709716796875,-1.345598816871643,0.07840336859226227,-0.42050254344940186
1789799650753680600,8.6316806640625,-1.3049837350845337,0.06907325237989426,-0.5801992416381836
1789799650763652900,8.64165283203125,-1.3474866151809692,-0.18520201742649078,-0.7527868747711182
1789799650773623800,8.651623779296875,-1.3652079105377197,-0.46207889914512634,-0.8065299987792969
1789799650783594800,8.6615947265625,-1.385597586631775,-0.6272477507591248,-0.7460549473762512
1789799650793566700,8.671566650390625,-1.4205881357192993,-0.4604496955871582,-0.6673822402954102
1789799650803538000,8.681537841796874,-1.4723098278045654,-0.14995522797107697,-0.7203460931777954
1789799650813509600,8.691509521484376,-1.5208699703216553,0.18806542456150055,-0.809127926826477
1789799650823480800,8.701480712890625,-1.535551905632019,0.4171939194202423,-0.7755152583122253
1789799650833452800,8.711452880859374,-1.5269607305526733,0.3526591360569,-0.6400437355041504
1789799650843423700,8.721423828125,-1.5135257244110107,0.13977690041065216,-0.45774519443511963
1789799650853395700,8.731395751953125,-1.5339164733886719,-0.13173210620880127,-0.3074299693107605
1789799650863367000,8.741366943359376,-1.5927717685699463,-0.32830584049224854,-0.21921515464782715
1789799650873338600,8.751338623046875,-1.7086964845657349,-0.47593045234680176,-0.15683592855930328
1789799650883309800,8.761309814453124,-1.8159905672073364,-0.49773308634757996,-0.13282081484794617
1789799650893280800,8.77128076171875,-1.8838753700256348,-0.53841233253479,-0.14410942792892456
1789799650903252700,8.781252685546875,-1.8754804134368896,-0.6375513672828674,-0.13652518391609192
1789799650913223700,8.7912236328125,-1.8487560749053955,-0.8076463937759399,-0.06668724119663239
1789799650923196000,8.80119580078125,-1.8595012426376343,-0.9544179439544678,0.03414502739906311
1789799650933166800,8.811166748046874,-1.899428367614746,-0.8676249980926514,0.07420163601636887
1789799650943138800,8.821138916015625,-1.9221131801605225,-0.6061924695968628,0.06791403889656067
1789799650953109800,8.83110986328125,-1.8570399284362793,-0.33541426062583923,0.06326869130134583
1789799650963081700,8.841081787109376,-1.7608710527420044,-0.32756733894348145,0.05553482845425606
1789799650973052700,8.851052734375,-1.6627156734466553,-0.5823785662651062,0.09341110289096832
1789799650983023900,8.86102392578125,-1.6074484586715698,-0.889775812625885,0.16555090248584747
1789799650992995800,8.870995849609375,-1.6239351034164429,-1.1243494749069214,0.2067026048898697
1789799651002966800,8.880966796875,-1.6111721992492676,-1.2080942392349243,0.214004248380661
1789799651012938800,8.890938720703126,-1.5153207778930664,-1.078040599822998,0.169289231300354
1789799651022910000,8.900909912109375,-1.3678081035614014,-0.9100998640060425,0.15017402172088623
1789799651032881700,8.910881591796874,-1.277869701385498,-0.8560390472412109,0.15768466889858246
1789799651042852900,8.920852783203125,-1.1743698120117188,-0.6767557859420776,0.1599411964416504
1789799651052824800,8.930824951171875,-1.0961964130401611,-0.41275715827941895,0.15245504677295685
1789799651062795800,8.940795654296876,-0.9378506541252136,-0.10399874299764633,0.10244391113519669
1789799651072767700,8.950767822265625,-0.6803781390190125,0.29563361406326294,0.09226584434509277
1789799651082739000,8.960739013671875,-0.4066859185695648,0.470034122467041,0.10221487283706665
1789799651092710000,8.9707099609375,-0.22629296779632568,0.4524482190608978,0.13417679071426392
1789799651102681900,8.980681884765625,-0.12327840924263,0.35747870802879333,0.2622947692871094
1789799651112652800,8.99065283203125,-0.07639133185148239,0.45552563667297363,0.3306618630886078
1789799651122624800,9.000624755859375,-0.052994366735219955,0.5224674344062805,0.3141784071922302
1789799651132595700,9.010595703125,-0.03677092120051384,0.698004424571991,0.33214810490608215
1789799651142568000,9.02056787109375,0.18823020160198212,0.5710179805755615,0.3000694513320923
1789799651152539000,9.030538818359375,0.30258792638778687,0.4769498407840729,0.2420455664396286
1789799651162510800,9.0405107421875,0.3747945725917816,0.3979856073856354,0.21143849194049835
1789799651172481800,9.050481689453125,0.4577014446258545,0.4984336495399475,0.2343912124633789
1789799651182453000,9.060452880859375,0.6359904408454895,0.6924039721488953,0.2100473791360855
1789799651192424700,9.0704248046875,0.7606021165847778,0.7716724276542664,0.17508593201637268
1789799651202396000,9.08039599609375,0.8350558876991272,0.6556442975997925,0.16945552825927734
1789799651212368000,9.090367919921874,1.0072237253189087,0.5091992020606995,0.057319410145282745
1789799651222338800,9.1003388671875,1.190436601638794,0.4040587842464447,-0.08720682561397552
1789799651232310800,9.110310791015625,1.3086543083190918,0.4955524802207947,-0.14792902767658234
1789799651242282000,9.120281982421876,1.4054245948791504,0.6031941771507263,-0.15569919347763062
1789799651252253700,9.130253662109375,1.4527878761291504,0.5867251753807068,-0.11640079319477081
1789799651262225000,9.140224853515624,1.44340980052948,0.429147332906723,-0.07187972962856293
1789799651272195800,9.15019580078125,1.4692144393920898,0.4428359866142273,-0.0827997550368309
1789799651282167800,9.160167724609375,1.6256599426269531,0.8405909538269043,-0.15286099910736084
1789799651292138800,9.170138671875,1.8414961099624634,0.9478822946548462,-0.1796630471944809
1789799651302111000,9.180111083984375,1.8453859090805054,0.7215414047241211,-0.13590531051158905
1789799651312082000,9.19008203125,1.8241366147994995,0.5190924406051636,-0.17160259187221527
1789799651322054000,9.200053955078126,1.96653413772583,0.7936073541641235,-0.32196012139320374
1789799651332024800,9.21002490234375,2.130303144454956,1.2023216485977173,-0.4266340732574463
1789799651341996800,9.219996826171876,2.1387135982513428,1.3111857175827026,-0.46775102615356445
1789799651351967700,9.2299677734375,2.059114456176758,1.0238028764724731,-0.4655560553073883
1789799651361938700,9.239938720703124,2.064976215362549,0.6511663198471069,-0.45239925384521484
1789799651371911000,9.249910888671875,2.143376111984253,0.7092341780662537,-0.4620487093925476
1789799651381881600,9.259881591796875,2.1281027793884277,0.923126220703125,-0.5094837546348572
1789799651391853800,9.269853759765626,1.9709755182266235,0.8825119137763977,-0.5115618705749512
1789799651401824800,9.27982470703125,1.8874071836471558,0.562571108341217,-0.4147960841655731
1789799651411796700,9.289796630859374,1.9904149770736694,0.2676800489425659,-0.3558898866176605
1789799651421767700,9.299767578125,2.086658239364624,0.12850680947303772,-0.3800950050354004
1789799651431740000,9.309739990234375,2.0657122135162354,0.044175684452056885,-0.3413928747177124
1789799651441710600,9.319710693359376,2.00398588180542,-0.02342384308576584,-0.3181464970111847
1789799651451681800,9.329681884765625,1.9866011142730713,-0.1810922920703888,-0.3811587393283844
1789799651461653800,9.33965380859375,1.9921776056289673,-0.2875598669052124,-0.4306849539279938
1789799651471625000,9.349625,1.9446611404418945,-0.23154906928539276,-0.37819403409957886
1789799651481596700,9.3595966796875,1.8886500597000122,-0.2797306478023529,-0.2929919958114624
1789799651491567900,9.36956787109375,1.7882059812545776,-0.4149819314479828,-0.20967023074626923
1789799651501539600,9.37953955078125,1.5872293710708618,-0.4621330499649048,-0.09148503839969635
1789799651511510800,9.3895107421875,1.3908393383026123,-0.45536649227142334,-0.008481238037347794
1789799651521482800,9.399482666015626,1.223986268043518,-0.4429343044757843,0.01349207479506731
1789799651531454000,9.409453857421875,1.0378917455673218,-0.46605828404426575,0.006643489934504032
1789799651541424600,9.419424560546876,0.8417524099349976,-0.41601842641830444,-0.024680130183696747
1789799651551396900,9.42939697265625,0.6675609350204468,-0.4426566958427429,-0.08403453230857849
1789799651561367800,9.439367919921875,0.4208480715751648,-0.4198644757270813,-0.09333106875419617
1789799651571339800,9.44933984375,0.13367752730846405,-0.21763068437576294,0.003161647357046604
1789799651581310700,9.459310791015625,-0.04904143139719963,0.05921734496951103,0.14491493999958038
1789799651591283000,9.469282958984374,-0.16651825606822968,-0.004046046175062656,0.24798379838466644
1789799651601253600,9.479253662109375,-0.2775630056858063,-0.43075796961784363,0.29652097821235657
1789799651611225900,9.489225830078125,-0.2966805100440979,-0.8466992974281311,0.33037692308425903
1789799651621196800,9.49919677734375,-0.13608312606811523,-1.5300296545028687,0.37784138321876526
1789799651631168000,9.50916796875,0.07849442958831787,-2.146501064300537,0.4501241147518158
1789799651641140200,9.51914013671875,0.1692161113023758,-1.9853018522262573,0.5587673187255859
1789799651651111200,9.529111083984375,0.18543583154678345,-1.1699750423431396,0.5470491647720337
1789799651661083100,9.539083251953125,0.09333653748035431,-0.42955660820007324,0.33978205919265747
1789799651671054000,9.54905419921875,-0.04064576327800751,-0.20974993705749512,0.07661647349596024
1789799651681026300,9.5590263671875,-0.16052109003067017,0.22517023980617523,0.02211778797209263
1789799651690997200,9.568997314453124,-0.23772959411144257,0.94309401512146,0.21253541111946106
1789799651700969200,9.57896923828125,-0.27227315306663513,1.4289252758026123,0.31883594393730164
1789799651710940200,9.588940185546875,-0.201169952750206,1.3338252305984497,0.2987423837184906
1789799651720911400,9.598911376953126,-0.14356574416160583,0.7239818572998047,0.22947591543197632
1789799651730883000,9.608883056640625,-0.1840314269065857,-0.016064787283539772,0.18542057275772095
1789799651740854300,9.618854248046874,-0.430423378944397,-0.2863985598087311,0.19516544044017792
1789799651750826200,9.628826171875,-0.8393411040306091,-0.06503741443157196,0.18303047120571136
1789799651760797200,9.638797119140625,-1.3216131925582886,0.1970052272081375,0.21115508675575256
1789799651770769200,9.64876904296875,-1.5695306062698364,0.32828813791275024,0.2796686291694641
1789799651780740400,9.658740234375,-1.456071138381958,-0.12234766781330109,0.33189988136291504
1789799651790712000,9.668712158203125,-1.3473610877990723,-0.5259542465209961,0.2694389224052429
1789799651800683300,9.678683349609376,-1.3390339612960815,-0.5423364043235779,0.05060167610645294
1789799651810654200,9.688654296875,-1.2859704494476318,-0.4484250247478485,-0.15438449382781982
1789799651820626200,9.698626220703124,-1.15883469581604,-0.39960262179374695,-0.21417778730392456
1789799651830597000,9.70859716796875,-1.0339292287826538,-0.3043496012687683,-0.12213148176670074
1789799651840569300,9.7185693359375,-0.9428259134292603,-0.07247178256511688,0.039664555341005325
1789799651850540300,9.728540283203126,-0.8674416542053223,0.1414990872144699,0.1451537013053894
1789799651860512300,9.73851220703125,-0.7628545761108398,0.1192043200135231,0.17448854446411133
1789799651870483200,9.748483154296874,-0.6877638101577759,0.0798577144742012,0.10936415195465088
1789799651880455200,9.758455078125,-0.9299339056015015,0.12434927374124527,-0.01537537295371294
1789799651890426000,9.768426025390625,-1.1924169063568115,-0.43220609426498413,-0.08410942554473877
1789799651900397000,9.77839697265625,-1.4612514972686768,-1.054874062538147,-0.15493802726268768
1789799651910369300,9.788369384765625,-1.913409948348999,-0.8867889642715454,-0.17190289497375488
1789799651920340000,9.798340087890624,-2.561371088027954,-0.04751423001289368,-0.0587838813662529
1789799651930312200,9.808312255859375,-2.9022977352142334,0.6314128637313843,0.07371450215578079
1789799651940283100,9.818283203125,-2.7413887977600098,0.5909224152565002,0.022168844938278198
1789799651950255000,9.828255126953126,-2.323197364807129,-0.07427529245615005,-0.17570535838603973
1789799651960226000,9.83822607421875,-2.102465867996216,-0.21849536895751953,-0.14050552248954773
1789799651970197200,9.848197265625,-2.0789573192596436,0.25946348905563354,-0.08380201458930969
1789799651980169000,9.8581689453125,-2.2333734035491943,-0.10270483046770096,-0.14856021106243134
1789799651990140200,9.86814013671875,-2.3680520057678223,-1.023613691329956,-0.13558529317378998
1789799652000112000,9.878112060546876,-2.4103291034698486,-1.4988012313842773,-0.03842458873987198
1789799652010083000,9.8880830078125,-2.2401933670043945,-1.3707032203674316,-0.005940682720392942
1789799652020055000,9.898054931640624,-1.9667969942092896,-1.1170034408569336,-0.044028639793395996
1789799652030026200,9.908026123046875,-1.800671935081482,-1.0214823484420776,-0.09119322150945663
1789799652039998000,9.917998046875,-1.7281162738800049,-1.1847273111343384,-0.025987563654780388
1789799652049969200,9.92796923828125,-1.6795998811721802,-1.344565510749817,0.16011439263820648
1789799652059940000,9.937940185546875,-1.651976227760315,-1.190841555595398,0.23975926637649536
1789799652069912300,9.947912353515624,-1.5649579763412476,-0.8227517604827881,0.16089828312397003
1789799652079883000,9.957883056640625,-1.3375434875488281,-0.48166778683662415,0.0627371296286583
1789799652089855200,9.967855224609375,-1.0873600244522095,-0.40342092514038086,0.04873982071876526
1789799652099826200,9.977826171875,-0.8139627575874329,-0.5725609064102173,0.125961571931839
1789799652109798100,9.987798095703125,-0.605401873588562,-0.8422957062721252,0.22603756189346313
1789799652119769000,9.99776904296875,-0.4130382239818573,-0.7528937458992004,0.2609593868255615
1789799652129741300,10.0077412109375,-0.236745223402977,-0.4737185537815094,0.2261955589056015
1789799652139712000,10.0177119140625,-0.13658103346824646,-0.1645621657371521,0.14362604916095734
1789799652149683200,10.02768310546875,-0.0019694315269589424,0.06744310259819031,0.10418011248111725
1789799652159655200,10.0376552734375,0.10924144834280014,0.039664510637521744,0.1462422013282776
1789799652169626000,10.047626220703124,0.16286739706993103,0.10290978848934174,0.20407700538635254
1789799652179598000,10.05759814453125,0.16065777838230133,0.4229908883571625,0.25790145993232727
1789799652189569300,10.0675693359375,0.09026804566383362,0.6319707632064819,0.3115103542804718
1789799652199541000,10.077541015625,0.0437990240752697,0.7661163210868835,0.40051835775375366
1789799652209512200,10.08751220703125,0.3382096290588379,0.4650994837284088,0.3092358410358429
1789799652219483100,10.097483154296874,0.4341636300086975,0.3046337366104126,0.1312922239303589
1789799652229455400,10.107455322265626,0.550529956817627,-0.05557289347052574,0.036284495145082474
1789799652239426000,10.117426025390625,0.602702260017395,-0.09673750400543213,0.08327895402908325
1789799652249398300,10.127398193359374,0.6526341438293457,0.1826818734407425,0.1875598132610321
1789799652259369200,10.137369140625,0.772682249546051,0.5165382027626038,0.27816447615623474
1789799652269341200,10.147341064453125,0.8876146674156189,0.6996299624443054,0.3474716544151306
1789799652279312100,10.15731201171875,0.948926568031311,0.7606445550918579,0.36017242074012756
1789799652289284400,10.167284423828125,1.0405901670455933,0.8215670585632324,0.2375226765871048
1789799652299255000,10.177255126953124,1.2462552785873413,0.7249075770378113,0.050115276128053665
1789799652309226200,10.187226318359375,1.4580590724945068,0.6842016577720642,-0.09391086548566818
1789799652319198200,10.1971982421875,1.6682534217834473,1.014183521270752,-0.15668582916259766
1789799652329169200,10.207169189453126,1.810450792312622,1.3131645917892456,-0.1351560354232788
1789799652339141000,10.21714111328125,1.7792717218399048,1.2821154594421387,-0.0445009209215641
1789799652349112300,10.2271123046875,1.7226274013519287,1.062666416168213,0.018294816836714745
1789799652359084000,10.237083984375,1.7632719278335571,0.9069458842277527,-0.019518164917826653
1789799652369055200,10.24705517578125,1.8499658107757568,0.5192767381668091,-0.08928126841783524
1789799652379026200,10.257026123046876,1.926934003829956,0.18025857210159302,-0.15054593980312347
1789799652388998100,10.266998046875,2.0134823322296143,0.3441835939884186,-0.13880032300949097
1789799652398969000,10.276968994140624,2.0740153789520264,0.8052486777305603,-0.19116348028182983
1789799652408941300,10.28694140625,2.13975191116333,1.1024008989334106,-0.2691799998283386
1789799652418912300,10.296912353515625,2.250636577606201,0.8262467980384827,-0.2526262700557709
1789799652428884200,10.30688427734375,2.357706069946289,0.23780617117881775,-0.2538081705570221
1789799652438855200,10.316855224609375,2.3658041954040527,0.16569076478481293,-0.2806515693664551
1789799652448826000,10.326826171875,2.2541186809539795,0.3684425354003906,-0.29915574193000793
1789799652458798000,10.336798095703125,2.110316276550293,0.53978031873703,-0.31095051765441895
1789799652468769000,10.34676904296875,2.0535171031951904,0.471346914768219,-0.27392512559890747
1789799652478741200,10.3567412109375,2.035839080810547,0.18278947472572327,-0.16565550863742828
1789799652488712200,10.366712158203125,1.9862173795700073,-0.1374114453792572,-0.06833400577306747
1789799652498684200,10.37668408203125,1.8670700788497925,-0.39342811703681946,-0.04979134723544121
1789799652508655000,10.386655029296875,1.7397695779800415,-0.4002322256565094,-0.08363399654626846
1789799652518627000,10.396626953125,1.6322925090789795,-0.16882698237895966,-0.14931581914424896
1789799652528598000,10.406597900390626,1.5618726015090942,-0.005965100601315498,-0.20299768447875977
1789799652538569200,10.4165693359375,1.5325437784194946,-0.055072326213121414,-0.19874361157417297
1789799652548541200,10.426541259765624,1.4963279962539673,-0.05794853717088699,-0.14658772945404053
1789799652558512000,10.43651220703125,1.5358340740203857,-0.2209939956665039,-0.09584705531597137
1789799652568484000,10.446484130859375,1.5317127704620361,-0.430379182100296,-0.013933287933468819
1789799652578455300,10.456455322265626,1.4115378856658936,-0.5864468812942505,0.05838944390416145
1789799652588427000,10.466427001953125,1.2184104919433594,-0.6544808149337769,0.08876199275255203
1789799652598398200,10.476398193359374,1.0134252309799194,-0.6132544279098511,0.13162793219089508
1789799652608369200,10.486369140625,0.8951660990715027,-0.556404173374176,0.19161324203014374
1789799652618341000,10.496341064453125,0.7851614356040955,-0.5786935091018677,0.23068784177303314
1789799652628312000,10.50631201171875,0.6379554271697998,-0.5894140601158142,0.22869046032428741
1789799652638284300,10.5162841796875,0.4286567270755768,-0.32198366522789,0.24909402430057526
1789799652648255200,10.526255126953124,0.1924407184123993,-0.04501995071768761,0.2617000937461853
1789799652658227000,10.53622705078125,-0.0048754578456282616,-0.044419314712285995,0.2560364603996277
1789799652668198100,10.5461982421875,-0.19076836109161377,-0.2071152925491333,0.2770756781101227
1789799652678169900,10.556169921875,-0.36141255497932434,-0.2307889312505722,0.32024091482162476
1789799652688141000,10.56614111328125,-0.48368945717811584,-0.14908050000667572,0.325381875038147
1789799652698112000,10.576112060546874,-0.526462197303772,-0.17419293522834778,0.30838844180107117
1789799652708084200,10.586084228515626,-0.556948184967041,-0.2603012025356293,0.3113011419773102
1789799652718055000,10.596054931640625,-0.5686850547790527,-0.1787382960319519,0.30327099561691284
1789799652728027100,10.606027099609374,-0.563503623008728,-0.09576031565666199,0.2929925322532654
1789799652737998000,10.615998046875,-0.5134488940238953,-0.11740688979625702,0.2589740455150604
1789799652747970000,10.625969970703125,-0.484016478061676,-0.11000356823205948,0.23441196978092194
1789799652757941000,10.63594091796875,-0.5518679618835449,0.05279814824461937,0.2565913796424866
1789799652767912200,10.645912109375,-0.6635585427284241,0.28815340995788574,0.30297353863716125
1789799652777884000,10.6558837890625,-0.7716088891029358,0.4702081084251404,0.3605481684207916
1789799652787855000,10.665855224609375,-0.8757036328315735,0.5396798849105835,0.4077441692352295
1789799652797827000,10.6758271484375,-0.9569481015205383,0.31257936358451843,0.41287919878959656
1789799652807798300,10.68579833984375,-1.0339674949645996,0.035486508160829544,0.3820666968822479
1789799652817770000,10.69577001953125,-1.1256718635559082,-0.2027071714401245,0.3414875566959381
1789799652827741200,10.7057412109375,-1.2568058967590332,-0.2393599897623062,0.30320727825164795
1789799652837712100,10.715712158203125,-1.3878158330917358,-0.0966687873005867,0.2515574097633362
1789799652847684000,10.72568408203125,-1.473729133605957,-0.062471937388181686,0.1208135262131691
1789799652857655000,10.735655029296876,-1.5583868026733398,-0.18686707317829132,-0.03159002587199211
1789799652867627300,10.745627197265625,-1.6545511484146118,-0.420132040977478,-0.0945466160774231
1789799652877598000,10.755597900390624,-1.7773138284683228,-0.4931967258453369,-0.08694740384817123
1789799652887570200,10.765570068359375,-1.8382937908172607,-0.3602817952632904,-0.10443158447742462
1789799652897541000,10.775541015625,-1.8580232858657837,-0.10398197919130325,-0.19394908845424652
1789799652907512000,10.785511962890626,-1.8071473836898804,0.09553912281990051,-0.2989785671234131
1789799652917484000,10.795484130859375,-1.7781907320022583,0.006427702959626913,-0.31376779079437256
1789799652927455000,10.805455078125,-1.8187813758850098,-0.11724603176116943,-0.29254958033561707
1789799652937427000,10.815427001953125,-1.888486385345459,0.05162326246500015,-0.30118411779403687
1789799652947398000,10.82539794921875,-1.9220713376998901,0.2642010450363159,-0.31884461641311646
1789799652957370000,10.8353701171875,-1.907090425491333,0.21913418173789978,-0.32292068004608154
1789799652967341000,10.845341064453125,-1.8721123933792114,0.032722506672143936,-0.29780176281929016
1789799652977312000,10.85531201171875,-1.861884593963623,-0.19818565249443054,-0.2755485773086548
1789799652987284000,10.865283935546875,-1.90462064743042,-0.3759801387786865,-0.23048628866672516
1789799652997255200,10.875255126953125,-1.9529277086257935,-0.44732755422592163,-0.18207135796546936
1789799653007227000,10.885226806640626,-1.8639432191848755,-0.45357638597488403,-0.1752755045890808
1789799653017198000,10.895197998046875,-1.7344545125961304,-0.4812304973602295,-0.18267999589443207
1789799653027170000,10.905170166015624,-1.6920011043548584,-0.5436823964118958,-0.17320580780506134
1789799653037141000,10.91514111328125,-1.7284477949142456,-0.7128058075904846,-0.16799680888652802
1789799653047112000,10.92511181640625,-1.804556131362915,-0.9112136960029602,-0.17063094675540924
1789799653057084200,10.935084228515626,-1.8744235038757324,-0.9998646974563599,-0.140840545296669
1789799653067055000,10.94505517578125,-1.9820280075073242,-0.9317300319671631,-0.06360168755054474
1789799653077027000,10.955027099609374,-1.9943523406982422,-0.9750649333000183,0.013490852899849415
1789799653086998000,10.964998046875,-1.845962643623352,-1.0580350160598755,0.07177652418613434
1789799653096970000,10.974969970703125,-1.6606208086013794,-0.9634512066841125,0.11690268665552139
1789799653106941000,10.98494091796875,-1.5428723096847534,-0.8794711232185364,0.17354466021060944
1789799653116912000,10.994912109375,-1.388770580291748,-0.8696979284286499,0.24115492403507233
1789799653126884000,11.004884033203124,-1.2317657470703125,-0.8816400766372681,0.3098839223384857
1789799653136855000,11.01485498046875,-1.1242870092391968,-0.8225075602531433,0.34156399965286255
1789799653146827000,11.024826904296875,-1.0339176654815674,-0.5579422116279602,0.2758294343948364
1789799653156798200,11.034798095703126,-0.8714723587036133,-0.128991961479187,0.19521600008010864
1789799653166770000,11.04477001953125,-0.5451751947402954,0.1363355815410614,0.1227700263261795
1789799653176741000,11.0547412109375,-0.32347267866134644,0.24027082324028015,0.1083231195807457
1789799653186712000,11.064712158203125,-0.20042848587036133,0.1891479790210724,0.14830195903778076
1789799653196684000,11.07468408203125,-0.10583429038524628,0.29073670506477356,0.19500678777694702
1789799653206655000,11.084655029296876,-0.08450157195329666,0.44308575987815857,0.23556886613368988
1789799653216627200,11.094627197265625,-0.16459161043167114,0.4129815101623535,0.28455650806427
1789799653226598100,11.10459814453125,-0.21466489136219025,0.3337569832801819,0.30258476734161377
1789799653236570000,11.114570068359376,-0.12843789160251617,0.2677038908004761,0.2596995234489441
1789799653246541000,11.124541015625,0.030188774690032005,0.3143827021121979,0.19924069941043854
1789799653256512300,11.13451220703125,0.22889475524425507,0.38460853695869446,0.1956787407398224
1789799653266484000,11.14448388671875,0.4383699297904968,0.4577684998512268,0.225089892745018
1789799653276455200,11.154455078125,0.639591634273529,0.6889369487762451,0.1917569786310196
1789799653286427100,11.16442724609375,0.8268853425979614,1.1647348403930664,0.05875925347208977
1789799653296398000,11.174398193359375,1.0552560091018677,1.459143042564392,-0.022873608395457268
1789799653306370000,11.1843701171875,1.222678542137146,1.4727851152420044,-0.0460100881755352
1789799653316341200,11.19434130859375,1.388530969619751,1.3994861841201782,-0.09645482897758484
1789799653326312200,11.204312255859374,1.5464861392974854,1.157989740371704,-0.19754362106323242
1789799653336284200,11.2142841796875,1.6615362167358398,0.9382481575012207,-0.2863931357860565
1789799653346255000,11.224255126953125,1.7436246871948242,0.9181360006332397,-0.31452518701553345
1789799653356227000,11.23422705078125,1.782701015472412,0.9599793553352356,-0.2698758840560913
1789799653366198000,11.244197998046875,1.7851128578186035,0.9149999022483826,-0.16818468272686005
1789799653376170200,11.254170166015625,1.8259822130203247,0.7045873403549194,-0.08127596229314804
1789799653386141200,11.26414111328125,1.8655916452407837,0.4353174865245819,-0.057220958173274994
1789799653396112000,11.27411181640625,1.9226840734481812,0.34892040491104126,-0.11661598086357117
1789799653406084000,11.284083984375,2.0385079383850098,0.5192450284957886,-0.22697311639785767
1789799653416055000,11.294054931640625,2.2089576721191406,0.8110271096229553,-0.3395480215549469
1789799653426027000,11.304027099609375,2.3308746814727783,0.8887661099433899,-0.3763502538204193
1789799653435998000,11.313998046875,2.304117441177368,0.9116656184196472,-0.26636308431625366
1789799653445970200,11.32397021484375,2.2441344261169434,0.8395591974258423,-0.10653001815080643
1789799653455940900,11.33394091796875,2.304935932159424,0.7060885429382324,-0.051849644631147385
1789799653465912000,11.343912109375,2.372394323348999,0.6188694834709167,-0.11695993691682816
1789799653475884000,11.353884033203125,2.396601438522339,0.5460740327835083,-0.20539014041423798
1789799653485855000,11.36385498046875,2.385881185531616,0.4060133397579193,-0.23130004107952118
1789799653495827000,11.373826904296875,2.3648011684417725,0.2956850528717041,-0.22177386283874512
1789799653505798100,11.383798095703124,2.3574111461639404,0.29234012961387634,-0.19805040955543518
1789799653515769900,11.393769775390625,2.2835018634796143,0.3742118775844574,-0.20261088013648987
1789799653525741000,11.403740966796875,2.1580731868743896,0.24994930624961853,-0.21439217031002045
1789799653535712000,11.4137119140625,2.0067787170410156,0.03155595809221268,-0.22897619009017944
1789799653545684200,11.423684326171875,1.7873643636703491,-0.13022761046886444,-0.1973050832748413
1789799653555655000,11.433655029296874,1.583046317100525,-0.16179421544075012,-0.09171168506145477
1789799653565627100,11.443627197265625,1.4656165838241577,-0.10067572444677353,-0.03611260652542114
1789799653575598000,11.45359814453125,1.3806395530700684,-0.0248445775359869,-0.13109594583511353
1789799653585569000,11.463569091796876,1.2583290338516235,-0.034873511642217636,-0.26540419459342957
1789799653595541000,11.473541015625,1.1124628782272339,-0.13287150859832764,-0.2941510081291199
1789799653605512200,11.48351220703125,1.0171459913253784,-0.29872438311576843,-0.21958942711353302
1789799653615484000,11.49348388671875,0.9203635454177856,-0.391727477312088,-0.09887666255235672
1789799653625455000,11.503455078125,0.7268324494361877,-0.20670250058174133,0.01702224090695381
1789799653635427000,11.513427001953126,0.4906179904937744,0.049551092088222504,0.008225735276937485
1789799653645398000,11.52339794921875,0.2873215973377228,0.05168002471327782,-0.04584096372127533
1789799653655369000,11.533368896484374,0.1146119236946106,-0.20852139592170715,-0.07067422568798065
1789799653665341200,11.543341064453125,-0.03167497739195824,-0.44479385018348694,-0.05783006176352501
1789799653675312000,11.55331201171875,-0.1525048464536667,-0.5001914501190186,-0.027902361005544662
1789799653685284000,11.5632841796875,-0.2857547700405121,-0.2247639000415802,-0.03444361686706543
1789799653695255000,11.573255126953125,-0.43100520968437195,0.2564893662929535,-0.09040805697441101
1789799653705227300,11.583227294921874,-0.48595499992370605,0.4380466341972351,-0.16188755631446838
1789799653715198000,11.593197998046875,-0.49852800369262695,0.48970386385917664,-0.18219101428985596
1789799653725169200,11.603169189453125,-0.44428154826164246,0.35715460777282715,-0.17110002040863037
1789799653735141000,11.61314111328125,-0.3585740327835083,0.042467933148145676,-0.12292072921991348
1789799653745112000,11.623112060546875,-0.29001256823539734,-0.1362304389476776,-0.08693529665470123
1789799653755084000,11.633083984375,-0.24856719374656677,-0.1724262684583664,-0.0915624350309372
1789799653765055200,11.64305517578125,-0.2522716224193573,-0.10567066818475723,-0.09228096157312393
1789799653775026200,11.653026123046875,-0.2913697063922882,0.01353207416832447,-0.09022814780473709
1789799653784998100,11.662998046875,-0.43171244859695435,0.3151702284812927,-0.0846078097820282
1789799653794969000,11.672968994140625,-0.5683669447898865,0.4419901371002197,-0.08543583005666733
1789799653804941000,11.682941162109374,-0.6504149436950684,0.32190367579460144,-0.12127000093460083
1789799653814912000,11.692912109375,-0.7666356563568115,0.11814682930707932,-0.23286618292331696
1789799653824884200,11.70288427734375,-0.8992214202880859,0.14017942547798157,-0.41243457794189453
1789799653834855200,11.712855224609376,-0.9744468331336975,0.24797044694423676,-0.5472694635391235
1789799653844825900,11.722825927734375,-1.0640068054199219,0.26557472348213196,-0.558006763458252
1789799653854798000,11.732798095703124,-1.2014503479003906,0.3567458391189575,-0.49071434140205383
1789799653864769000,11.74276904296875,-1.3012416362762451,0.2803461253643036,-0.4528423249721527
1789799653874741000,11.752740966796875,-1.361878752708435,0.2015933394432068,-0.43782317638397217
1789799653884712000,11.7627119140625,-1.3375356197357178,0.28198590874671936,-0.4266168773174286
1789799653894684200,11.77268408203125,-1.291653037071228,0.22041353583335876,-0.46198639273643494
1789799653904655000,11.782655029296874,-1.298844575881958,-0.13558132946491241,-0.5593949556350708
1789799653914626000,11.7926259765625,-1.3151689767837524,-0.4079062044620514,-0.6252267956733704
1789799653924598000,11.802597900390625,-1.361746072769165,-0.32036519050598145,-0.6585003733634949
1789799653934569200,11.8125693359375,-1.439676284790039,-0.01295738760381937,-0.6567195653915405
1789799653944541000,11.822541015625,-1.4438965320587158,0.22587516903877258,-0.608042299747467
1789799653954512100,11.83251220703125,-1.3365432024002075,0.2998393476009369,-0.5366650819778442
1789799653964484000,11.842484130859376,-1.2622567415237427,0.15489839017391205,-0.48702239990234375
1789799653974455000,11.852455078125,-1.3252363204956055,-0.15113432705402374,-0.47117891907691956
1789799653984426000,11.862426025390626,-1.4362772703170776,-0.4502800405025482,-0.45419755578041077
1789799653994398200,11.872398193359375,-1.5397964715957642,-0.622856855392456,-0.43438994884490967
1789799654004369000,11.882368896484374,-1.6578168869018555,-0.6717436909675598,-0.4268129765987396
1789799654014341000,11.892341064453126,-1.8211528062820435,-0.6465742588043213,-0.4028458297252655
1789799654024312000,11.90231201171875,-1.986673355102539,-0.5761179327964783,-0.36289921402931213
1789799654034283300,11.912283203125,-2.1192848682403564,-0.5174413323402405,-0.32409223914146423
1789799654044255000,11.9222548828125,-2.218722343444824,-0.4170559048652649,-0.2727297246456146
1789799654054226200,11.93222607421875,-2.204390287399292,-0.39856863021850586,-0.2324870079755783
1789799654064198100,11.9421982421875,-2.150707960128784,-0.39010563492774963,-0.1204448863863945
1789799654074169000,11.952169189453125,-2.1936049461364746,-0.4910299479961395,0.053715236485004425
1789799654084141000,11.96214111328125,-2.259888172149658,-0.8209913372993469,0.1650654524564743
1789799654094112300,11.9721123046875,-2.1399433612823486,-1.109808325767517,0.218858003616333
1789799654104083000,11.9820830078125,-1.9688684940338135,-1.2391468286514282,0.23221801221370697
1789799654114055200,11.99205517578125,-1.8879560232162476,-1.2305519580841064,0.2208757996559143
1789799654124026000,12.002026123046875,-1.868215799331665,-1.1646193265914917,0.21469485759735107
1789799654133998000,12.011998046875,-1.8359445333480835,-1.2047417163848877,0.26307767629623413
1789799654143969000,12.021968994140625,-1.8011929988861084,-1.1614229679107666,0.3501198887825012
1789799654153940200,12.031940185546874,-1.7401758432388306,-0.8765358924865723,0.39155957102775574
1789799654163912000,12.041911865234376,-1.5207582712173462,-0.6248453259468079,0.34152597188949585
1789799654173883100,12.051883056640625,-1.2748937606811523,-0.451221764087677,0.2766566276550293
1789799654183855000,12.061855224609374,-1.0487219095230103,-0.2104184776544571,0.283996045589447
1789799654193826300,12.071826416015625,-0.8493770360946655,0.05933799594640732,0.3261321485042572
1789799654203798000,12.081798095703125,-0.7413687705993652,0.27191898226737976,0.3579268455505371
1789799654213769200,12.091769287109376,-0.44436272978782654,0.3204175531864166,0.3291572630405426
1789799654223740200,12.101740234375,-0.21087166666984558,0.38103270530700684,0.33604368567466736
1789799654233712000,12.111712158203124,-0.05870528891682625,0.3985826075077057,0.40038588643074036
1789799654243683000,12.12168310546875,0.05764076113700867,0.3218785226345062,0.4498461186885834
1789799654253655300,12.1316552734375,0.2080630511045456,0.2513698935508728,0.4601445198059082
1789799654263626000,12.1416259765625,0.36959150433540344,0.2645812928676605,0.44230079650878906
1789799654273597000,12.151596923828125,0.5491800904273987,0.314019113779068,0.41020500659942627
1789799654283569200,12.161569091796874,0.6565946936607361,0.2868913412094116,0.4163893759250641
1789799654293540000,12.1715400390625,0.7399117350578308,0.25809037685394287,0.41843825578689575
1789799654303512000,12.181511962890625,0.8533836603164673,0.20318347215652466,0.3579048812389374
1789799654313483000,12.19148291015625,0.9999323487281799,0.28092867136001587,0.2520855665206909
1789799654323455000,12.201455078125,1.160951852798462,0.40754973888397217,0.17943984270095825
1789799654333426000,12.211426025390624,1.23750901222229,0.5210030674934387,0.15992994606494904
1789799654343397000,12.221397216796875,1.2982051372528076,0.6724543571472168,0.1261938214302063
1789799654353369000,12.231369140625,1.397860050201416,0.8066698312759399,0.10569915920495987
1789799654363340000,12.241340087890626,1.4946712255477905,0.9462852478027344,0.09296684712171555
1789799654373312000,12.25131201171875,1.5462452173233032,0.9126937985420227,0.08116579055786133
1789799654383283200,12.261283203125,1.5817548036575317,0.6964555382728577,0.05578107386827469
1789799654393254100,12.271254150390625,1.6787517070770264,0.5812232494354248,-0.007855677977204323
1789799654403226000,12.28122607421875,1.81732976436615,0.7007842659950256,-0.06946524977684021
1789799654413197000,12.291197021484376,1.9640285968780518,0.9822627305984497,-0.12522335350513458
1789799654423169000,12.3011689453125,2.012979507446289,1.1860393285751343,-0.10782013833522797
1789799654433140000,12.311139892578124,1.9587711095809937,1.166957974433899,-0.034182678908109665
1789799654443112200,12.3211123046875,2.002419948577881,0.8715106248855591,0.01434570923447609
1789799654453083100,12.331083251953125,2.1481542587280273,0.7003539204597473,-0.026577334851026535
1789799654463054000,12.34105419921875,2.2805116176605225,0.7207809090614319,-0.13253039121627808
1789799654473026000,12.351026123046875,2.349043369293213,0.8246268630027771,-0.2094424068927765
1789799654482997200,12.360997314453124,2.3237271308898926,0.8576556444168091,-0.2214018702507019
1789799654492969000,12.370968994140625,2.2806220054626465,0.8356797695159912,-0.18592412769794464
1789799654502940200,12.380940185546875,2.242352247238159,0.7444148659706116,-0.14686806499958038
1789799654512911000,12.3909111328125,2.2323992252349854,0.5069311857223511,-0.11214380711317062
1789799654522883000,12.400883056640625,2.201451301574707,0.23712341487407684,-0.12544097006320953
1789799654532854000,12.41085400390625,2.103163242340088,0.06904260814189911,-0.17901773750782013
1789799654542826200,12.420826171875,1.977254033088684,0.20109571516513824,-0.23569698631763458
1789799654552797200,12.430797119140625,1.8804333209991455,0.40096721053123474,-0.29741787910461426
