time,seconds_elapsed,z,y,x
1789799642176998100,0.054998046875,-0.37464284896850586,-0.1185801774263382,-0.46172794699668884
1789799642186969300,0.06496923828125,-0.30631253123283386,-0.016998425126075745,-0.4022217392921448
1789799642196940300,0.074940185546875,-0.22128018736839294,0.06722910702228546,-0.32843539118766785
1789799642206912300,0.084912353515625,-0.13514983654022217,0.12777793407440186,-0.24038757383823395
1789799642216883200,0.09488330078125,-0.05518442392349243,0.15277037024497986,-0.13062885403633118
1789799642226855200,0.104855224609375,0.02564251236617565,0.2132776528596878,-0.015543805435299873
1789799642236826000,0.114826171875,0.12417228519916534,0.34223803877830505,0.08371726423501968
1789799642246797000,0.124797119140625,0.25578436255455017,0.5394940972328186,0.14452175796031952
1789799642256769300,0.134769287109375,0.4241611361503601,0.7931106686592102,0.1449044644832611
1789799642266740000,0.144739990234375,0.6114820241928101,1.032374382019043,0.10187443345785141
1789799642276712200,0.154712158203125,0.7774505019187927,1.2281303405761719,0.034571558237075806
1789799642286683100,0.16468310546875,0.8957710266113281,1.338706612586975,-0.04598373547196388
1789799642296654300,0.174654296875,0.926731288433075,1.4251186847686768,-0.11537186801433563
1789799642306626000,0.1846259765625,0.8337875008583069,1.5066043138504028,-0.17528580129146576
1789799642316597200,0.19459716796875,0.6373628973960876,1.5413182973861694,-0.22818470001220703
1789799642326569000,0.20456884765625,0.3842773735523224,1.3996477127075195,-0.2702498733997345
1789799642336540200,0.2145400390625,0.13701137900352478,1.1563777923583984,-0.27909260988235474
1789799642346511000,0.224510986328125,-0.05506724491715431,0.8517641425132751,-0.25297287106513977
1789799642356483300,0.2344833984375,-0.16911232471466064,0.4894344210624695,-0.23915399610996246
1789799642366454000,0.2444541015625,-0.21831156313419342,0.09297947585582733,-0.26418212056159973
1789799642376426200,0.25442626953125,-0.2227603793144226,-0.2329206019639969,-0.34559309482574463
1789799642386397200,0.264397216796875,-0.22006525099277496,-0.35115376114845276,-0.48015302419662476
1789799642396368400,0.274368408203125,-0.2337789386510849,-0.27047356963157654,-0.6546840667724609
1789799642406340000,0.284340087890625,-0.2731010317802429,-0.18267686665058136,-0.8322567343711853
1789799642416311300,0.294311279296875,-0.33988192677497864,-0.07160734385251999,-0.9749864339828491
1789799642426283000,0.304282958984375,-0.4123484194278717,0.02564331144094467,-1.0847771167755127
1789799642436254200,0.314254150390625,-0.3986051678657532,0.2242855727672577,-1.115823745727539
1789799642446225200,0.32422509765625,-0.03833593800663948,0.5152742862701416,-1.0357747077941895
1789799642456197400,0.334197265625,0.38393914699554443,1.1894758939743042,-0.9221400022506714
1789799642466168000,0.34416796875,0.8321313261985779,1.750705361366272,-0.7430797219276428
1789799642476140300,0.354140380859375,1.2861711978912354,1.9612106084823608,-0.5176335573196411
1789799642486111200,0.364111328125,1.4757212400436401,1.9540973901748657,-0.31289106607437134
1789799642496082200,0.374082275390625,1.1759363412857056,1.729469895362854,-0.21692565083503723
1789799642506054100,0.38405419921875,0.23584848642349243,1.5426772832870483,-0.1535767763853073
1789799642516025000,0.394025146484375,-0.9140019416809082,1.4398093223571777,0.06100662797689438
1789799642525997000,0.4039970703125,-1.7693029642105103,0.7970849275588989,0.22015473246574402
1789799642535968000,0.413968017578125,-2.36726713180542,-0.24217934906482697,0.1771950125694275
1789799642545939200,0.423939208984375,-2.7947068214416504,-1.6928865909576416,0.028929652646183968
1789799642555911200,0.4339111328125,-2.9552621841430664,-3.406442880630493,-0.11530475318431854
1789799642565882000,0.443882080078125,-3.0131325721740723,-4.963637828826904,-0.08858605474233627
1789799642575854000,0.45385400390625,-3.1209163665771484,-6.282677173614502,0.020082898437976837
1789799642585825300,0.4638251953125,-3.303133964538574,-7.446605205535889,-0.012958409264683723
1789799642595796200,0.473796142578125,-3.462644577026367,-8.144718170166016,-0.4485415816307068
1789799642605768200,0.483768310546875,-3.5595223903656006,-7.790881633758545,-0.9740663170814514
1789799642615739100,0.4937392578125,-3.438802719116211,-6.679696083068848,-1.4934983253479004
1789799642625711000,0.503711181640625,-3.1003568172454834,-5.166569709777832,-1.929416298866272
1789799642635682300,0.513682373046875,-2.495121717453003,-3.0944881439208984,-2.303704023361206
1789799642645653500,0.523653564453125,-1.2563356161117554,-1.5252901315689087,-2.2715775966644287
1789799642655625200,0.533625244140625,0.505989134311676,-0.8191846013069153,-1.814277172088623
1789799642665596400,0.543596435546875,1.7338427305221558,-0.12420956790447235,-1.2787543535232544
1789799642675568400,0.553568359375,2.120110034942627,0.36810559034347534,-0.6994417309761047
1789799642685539600,0.56353955078125,2.030608654022217,0.6486437916755676,-0.10325448215007782
1789799642695510300,0.57351025390625,1.7810052633285522,1.0884478092193604,0.46730220317840576
1789799642705482500,0.583482421875,1.5496777296066284,1.3176625967025757,1.0320239067077637
1789799642715453400,0.593453369140625,1.2706857919692993,0.7018617391586304,1.4681788682937622
1789799642725425400,0.60342529296875,1.0382757186889648,-0.34119513630867004,1.6389577388763428
1789799642735396400,0.613396240234375,0.9364097714424133,-1.31471848487854,1.6028711795806885
1789799642745367600,0.623367431640625,0.8881152272224426,-2.182244300842285,1.5471477508544922
1789799642755339300,0.63333935546875,0.9441153407096863,-2.8791513442993164,1.5037208795547485
1789799642765310500,0.643310546875,1.1912667751312256,-3.5282609462738037,1.496874213218689
1789799642775282400,0.653282470703125,1.5107886791229248,-4.409104347229004,1.587888479232788
1789799642785253600,0.663253662109375,1.881847620010376,-5.196880340576172,1.6854866743087769
1789799642795225300,0.673225341796875,2.0659165382385254,-5.149877071380615,1.7340682744979858
1789799642805196500,0.683196533203125,2.076239585876465,-4.632025241851807,1.6805936098098755
1789799642815167500,0.69316748046875,1.8327182531356812,-4.198750019073486,1.346480131149292
1789799642825139500,0.703139404296875,1.5049149990081787,-4.049088954925537,0.6305814385414124
1789799642835110400,0.7131103515625,1.4549884796142578,-4.1139445304870605,0.06385195255279541
1789799642845082600,0.72308251953125,1.7903366088867188,-4.203045845031738,-0.026220418512821198
1789799642855053300,0.73305322265625,2.311586618423462,-4.177042007446289,0.18471844494342804
1789799642865024300,0.743024169921875,2.7347023487091064,-4.154377460479736,0.49203523993492126
1789799642874996500,0.75299658203125,2.819451332092285,-4.271727561950684,0.7479711771011353
1789799642884967400,0.762967529296875,2.6898884773254395,-4.294737815856934,0.7461056113243103
1789799642894939400,0.772939453125,2.6831212043762207,-4.349013328552246,0.4702604413032532
1789799642904910300,0.782910400390625,2.9100911617279053,-4.503947734832764,0.1421092003583908
1789799642914881500,0.792881591796875,3.198667049407959,-4.7618560791015625,0.003665308468043804
1789799642924853200,0.802853271484375,3.4561688899993896,-5.134140968322754,0.11208499222993851
1789799642934824400,0.812824462890625,3.605182647705078,-5.673498153686523,0.4132182002067566
1789799642944796400,0.82279638671875,3.6016464233398438,-6.182032108306885,0.8159238696098328
1789799642954767400,0.832767333984375,3.6201703548431396,-6.412872791290283,1.0995627641677856
1789799642964738300,0.84273828125,3.655653476715088,-6.555953502655029,1.2927836179733276
1789799642974710500,0.85271044921875,3.802044153213501,-6.665120601654053,1.4399216175079346
1789799642984681500,0.862681396484375,4.046177864074707,-6.559142112731934,1.4548920392990112
1789799642994653400,0.8726533203125,4.275889873504639,-6.180018424987793,1.417173981666565
1789799643004624400,0.882624267578125,4.514528751373291,-5.702762603759766,1.4664983749389648
1789799643014595600,0.892595703125,4.770400047302246,-5.171899318695068,1.6237796545028687
1789799643024567300,0.9025673828125,4.769582271575928,-4.445792198181152,1.7643433809280396
1789799643034538500,0.91253857421875,4.8380303382873535,-3.479482412338257,1.7430610656738281
1789799643044510500,0.922510498046875,5.076085090637207,-2.331657886505127,1.5786771774291992
1789799643054481400,0.9324814453125,5.50477933883667,-0.8560717701911926,1.3492796421051025
1789799643064452400,0.942452392578125,5.934873580932617,0.5626047849655151,1.0261681079864502
1789799643074424600,0.952424560546875,5.850252151489258,1.5170800685882568,0.7339916825294495
1789799643084395500,0.9623955078125,5.336795330047607,1.7766426801681519,0.4250221252441406
1789799643094367500,0.972367431640625,4.851803302764893,0.6442232131958008,0.16524195671081543
1789799643104338400,0.98233837890625,4.298473358154297,0.2340756058692932,0.43844926357269287
1789799643114309400,0.992309326171875,3.6547164916992188,1.7106397151947021,0.5228895545005798
1789799643124281300,1.00228125,2.995936870574951,2.6876871585845947,0.05678604915738106
1789799643134252300,1.012252197265625,2.2836694717407227,2.2256860733032227,-0.08501236140727997
1789799643144224500,1.022224609375,1.9906716346740723,2.0980005264282227,-0.0471683107316494
1789799643154195200,1.0321953125,1.548592209815979,1.4178030490875244,-0.004294347018003464
1789799643164166400,1.04216650390625,1.0271966457366943,0.5708134174346924,0.321510374546051
1789799643174138400,1.052138427734375,0.6506981253623962,0.24043630063533783,0.6999221444129944
1789799643184109600,1.062109619140625,0.40013355016708374,0.182159423828125,0.9355711340904236
1789799643194081300,1.072081298828125,0.2542823553085327,-0.021991051733493805,1.0221179723739624
1789799643204052500,1.082052490234375,-0.17322131991386414,-0.04952467605471611,0.7850487232208252
1789799643214023400,1.0920234375,-0.23089499771595,-0.3996182382106781,0.5096315741539001
1789799643223995400,1.101995361328125,-0.4473620653152466,-0.8338013887405396,0.33417612314224243
1789799643233966300,1.11196630859375,-1.3418678045272827,-0.9476794600486755,0.20762962102890015
1789799643243938600,1.1219384765625,-2.984611988067627,-1.9020246267318726,1.022947072982788
1789799643253909200,1.1319091796875,-3.510085105895996,-2.7200734615325928,1.9815503358840942
1789799643263881500,1.141881591796875,-3.311649799346924,-2.9921417236328125,2.137336254119873
1789799643273852400,1.151852294921875,-3.0227341651916504,-2.413668394088745,2.068192958831787
1789799643283823600,1.16182373046875,-2.9028704166412354,-1.817862868309021,2.144420623779297
1789799643293795300,1.17179541015625,-2.9065606594085693,-1.804654836654663,2.28562068939209
1789799643303766500,1.1817666015625,-2.8102357387542725,-2.077075242996216,2.3383212089538574
1789799643313738200,1.19173828125,-2.4389190673828125,-2.292494297027588,2.451349973678589
1789799643323709400,1.20170947265625,-2.0672099590301514,-2.1271231174468994,2.44510555267334
1789799643333680400,1.211680419921875,-1.6725090742111206,-1.7981239557266235,2.121072292327881
1789799643343652600,1.221652587890625,-1.4045569896697998,-1.5305999517440796,1.9126396179199219
1789799643353623300,1.231623291015625,-1.187279224395752,-1.5645397901535034,1.9463340044021606
1789799643363595500,1.241595458984375,-0.925971508026123,-1.336612582206726,1.993814468383789
1789799643373566500,1.25156640625,-0.40742582082748413,-1.0358455181121826,1.8392916917800903
1789799643383537400,1.261537353515625,0.08745075017213821,-0.6269411444664001,1.635200023651123
1789799643393509400,1.27150927734375,0.3546387851238251,-0.16697700321674347,1.379818320274353
1789799643403480600,1.28148046875,0.4299335181713104,0.1861341893672943,1.1630111932754517
1789799643413452300,1.291452392578125,0.4678875803947449,0.2369030863046646,1.1254971027374268
1789799643423423500,1.301423583984375,0.5317488312721252,0.08010388910770416,1.1724824905395508
1789799643433394400,1.31139453125,0.4797322452068329,0.07599383592605591,1.1085442304611206
1789799643443366400,1.321366455078125,0.2615245580673218,0.29897019267082214,0.9019487500190735
1789799643453337300,1.33133740234375,-0.0358637236058712,0.3693349063396454,0.7248373627662659
1789799643463309600,1.3413095703125,-0.24430081248283386,0.134247288107872,0.5576139688491821
1789799643473280500,1.351280517578125,-0.23674063384532928,0.2286696583032608,0.3521455228328705
1789799643483251500,1.36125146484375,-0.1541629433631897,0.45354005694389343,0.2258504331111908
1789799643493223400,1.371223388671875,-0.08605366200208664,0.4788012206554413,0.16912031173706055
1789799643503194400,1.3811943359375,-0.09454594552516937,0.4248490333557129,0.18367156386375427
1789799643513166300,1.391166259765625,-0.16533516347408295,0.34383460879325867,0.2101668119430542
1789799643523137300,1.40113720703125,-0.1584189385175705,0.4233139753341675,0.21013139188289642
1789799643533109500,1.411109619140625,0.003352387109771371,0.8815355896949768,0.1758032590150833
1789799643543080400,1.42108056640625,0.1284937858581543,1.0508111715316772,0.13968199491500854
1789799643553051400,1.431051513671875,0.15488438308238983,0.8175936341285706,0.21037694811820984
1789799643563023400,1.4410234375,-0.002046106616035104,0.37020549178123474,0.3923962712287903
1789799643572994600,1.45099462890625,-0.22593753039836884,-0.17313475906848907,0.594672679901123
1789799643582966300,1.46096630859375,-0.4173533022403717,-0.49056971073150635,0.6578761339187622
1789799643592937500,1.4709375,-0.5380533337593079,-0.8049755692481995,0.7063587307929993
1789799643602908400,1.480908447265625,-0.36262932419776917,-1.1358715295791626,0.6738297939300537
1789799643612880400,1.49088037109375,-0.1447281539440155,-1.4406023025512695,0.602291464805603
1789799643622851300,1.500851318359375,-0.32788094878196716,-1.670828938484192,0.49518096446990967
1789799643632823600,1.510823486328125,-1.223125696182251,-1.5933386087417603,0.08807659894227982
1789799643642794500,1.52079443359375,-2.0514109134674072,-1.1228997707366943,-0.49067145586013794
1789799643652765400,1.530765380859375,-2.35992693901062,-0.7733944654464722,-0.8921363353729248
1789799643662737400,1.5407373046875,-2.287471294403076,-0.8141459226608276,-1.096482515335083
1789799643672708600,1.55070849609375,-2.0035881996154785,-0.6336970329284668,-1.2757755517959595
1789799643682680300,1.560680419921875,-1.3394250869750977,-0.3488141894340515,-1.4464024305343628
1789799643692651500,1.570651611328125,-0.4440924823284149,-0.21776694059371948,-1.714310884475708
1789799643702622500,1.58062255859375,0.4676436185836792,-0.10173781216144562,-2.1380560398101807
1789799643712594400,1.590594482421875,1.2226492166519165,-0.02045760490000248,-2.427657127380371
1789799643722565400,1.6005654296875,1.4761148691177368,-0.13031698763370514,-2.286729097366333
1789799643732537600,1.61053759765625,1.5245119333267212,-0.16733014583587646,-1.8862205743789673
1789799643742508300,1.62050830078125,1.2976268529891968,0.04178126901388168,-1.4009904861450195
1789799643752479200,1.630479248046875,0.9744693040847778,0.15345320105552673,-0.7720826268196106
1789799643762451500,1.640451416015625,0.8689771890640259,-0.05903029814362526,-0.2371041625738144
1789799643772422400,1.65042236328125,0.9661338329315186,-0.40741410851478577,0.07695496827363968
1789799643782394400,1.660394287109375,1.2041789293289185,-0.6638062000274658,0.24840767681598663
1789799643792365300,1.670365234375,1.8526642322540283,-0.5158098340034485,0.2748347520828247
1789799643802337500,1.680337646484375,1.9866020679473877,-0.159764364361763,0.2914217412471771
1789799643812308200,1.69030810546875,1.8450318574905396,0.3631419837474823,0.33623820543289185
1789799643822279400,1.700279541015625,1.5029360055923462,1.001312017440796,0.2839505076408386
1789799643832251400,1.71025146484375,0.9345977902412415,1.5224621295928955,0.1439150869846344
1789799643842222300,1.720222412109375,0.23400557041168213,1.490172266960144,0.055634234100580215
1789799643852194300,1.7301943359375,-0.4874359667301178,1.014061689376831,0.16247865557670593
1789799643862165500,1.74016552734375,-0.9171708226203918,0.41988009214401245,0.38847529888153076
1789799643872136400,1.750136474609375,-1.2304174900054932,-0.014829279854893684,0.5160271525382996
1789799643882108400,1.7601083984375,-1.506154179573059,0.18027229607105255,0.5712243318557739
1789799643892079400,1.770079345703125,-1.7946096658706665,0.31115227937698364,0.5975939035415649
1789799643902051300,1.78005126953125,-2.236189126968384,-0.24731525778770447,0.7610573768615723
1789799643912022300,1.790022216796875,-2.815595865249634,-1.2694356441497803,1.1123096942901611
1789799643921993500,1.799993408203125,-3.1149744987487793,-2.1498496532440186,1.452300786972046
1789799643931965400,1.80996533203125,-2.953862190246582,-2.4881229400634766,1.6461032629013062
1789799643941936400,1.819936279296875,-2.766172170639038,-1.5390546321868896,2.193049192428589
1789799643951908400,1.829908447265625,-2.5432376861572266,-1.1814056634902954,1.549201488494873
1789799643961879600,1.839879638671875,-1.7583696842193604,-0.940772294998169,0.6996188163757324
1789799643971850500,1.8498505859375,-1.2661617994308472,-0.8108920454978943,-0.10388725250959396
1789799643981822500,1.859822509765625,-1.0980380773544312,-0.7182551026344299,-0.4657394587993622
1789799643991793400,1.86979345703125,-0.9263105392456055,-0.6448794007301331,-0.48718032240867615
1789799644001765400,1.879765380859375,-1.1876585483551025,-0.6684009432792664,-0.4124051332473755
1789799644011736300,1.889736328125,-1.489927053451538,-0.7327607870101929,-0.31684932112693787
1789799644021708500,1.89970849609375,-1.681357979774475,-0.9883683323860168,-0.20675504207611084
1789799644031679500,1.909679443359375,-1.7836542129516602,-1.2706713676452637,-0.07023847848176956
1789799644041650400,1.919650390625,-1.6754423379898071,-1.1785407066345215,-0.09489535540342331
1789799644051622400,1.929622314453125,-1.3982926607131958,-0.9137374758720398,-0.3659801185131073
1789799644061593600,1.939593505859375,-0.9396087527275085,-0.7071529030799866,-0.7964302897453308
1789799644071565300,1.9495654296875,-0.28596678376197815,-0.31857743859291077,-1.2873523235321045
1789799644081536500,1.95953662109375,0.34924107789993286,0.31929755210876465,-1.9704492092132568
1789799644091507500,1.969507568359375,0.9829860925674438,0.7194817066192627,-2.6545913219451904
1789799644101479400,1.9794794921875,1.4331045150756836,0.9126749038696289,-3.0496482849121094
1789799644111450400,1.989450439453125,1.7723398208618164,0.7236807346343994,-3.1003689765930176
1789799644121422600,1.999422607421875,1.8573260307312012,0.3789196312427521,-2.5707051753997803
1789799644131393500,2.0093935546875,3.0450079441070557,-0.18619410693645477,-2.2346298694610596
1789799644141365500,2.019365478515625,3.755851984024048,-0.350085586309433,-2.1357390880584717
1789799644151336400,2.02933642578125,3.923192262649536,-0.31835827231407166,-1.657888650894165
1789799644161307400,2.039307373046875,3.7213175296783447,-0.4991653263568878,-1.0976593494415283
1789799644171279400,2.049279296875,3.1920745372772217,-0.6344533562660217,-0.5427641868591309
1789799644181250300,2.059250244140625,2.757751703262329,-0.38838210701942444,-0.3884049952030182
1789799644191222500,2.069222412109375,2.637662410736084,-0.19890537858009338,-0.2548283040523529
1789799644201193200,2.079193115234375,2.2520229816436768,-0.1188262552022934,-0.021736720576882362
1789799644211164400,2.089164306640625,2.3139023780822754,-0.19502408802509308,0.043348804116249084
1789799644221136400,2.099136474609375,1.984932780265808,-0.0737415999174118,-0.21173036098480225
1789799644231107600,2.109107666015625,1.7427587509155273,1.8579738140106201,-0.3460253179073334
1789799644241079300,2.119079345703125,2.122936248779297,4.321549415588379,-0.8895056247711182
1789799644251050500,2.129050537109375,3.5370981693267822,6.361185073852539,-1.4895107746124268
1789799644261022200,2.139022216796875,4.973883152008057,7.163970470428467,-2.084764003753662
1789799644270993400,2.148993408203125,5.501476287841797,6.305721282958984,-2.1425139904022217
1789799644280964400,2.15896435546875,4.8970537185668945,4.1989593505859375,-1.713505506515503
1789799644290936600,2.1689365234375,3.2562294006347656,1.716933250427246,-0.8440257906913757
1789799644300907300,2.1789072265625,1.2740507125854492,-0.010690727271139622,-0.1853107362985611
1789799644310879500,2.18887939453125,0.058940812945365906,-0.6008498668670654,0.126963272690773
1789799644320850400,2.198850341796875,0.1517312079668045,-0.42615050077438354,0.27990275621414185
1789799644330821600,2.208821533203125,0.18401217460632324,0.17951835691928864,0.44722676277160645
1789799644340793300,2.21879345703125,0.17590577900409698,0.7103760838508606,0.6664467453956604
1789799644350764500,2.2287646484375,0.236124649643898,1.1596593856811523,0.887111485004425
1789799644360736300,2.238736328125,0.1678643673658371,1.3451604843139648,1.0882190465927124
1789799644370707500,2.24870751953125,0.04430567845702171,1.2161322832107544,1.2084282636642456
1789799644380679400,2.258679443359375,0.09530548006296158,0.965416669845581,1.1440980434417725
1789799644390650600,2.268650634765625,0.2627496123313904,0.8444452285766602,0.9012848138809204
1789799644400621300,2.278621337890625,0.29702022671699524,0.7724652886390686,0.6100500226020813
1789799644410593500,2.288593505859375,0.23000390827655792,0.698688268661499,0.2846570312976837
1789799644420564500,2.298564453125,-0.0027798074297606945,0.5839124321937561,-0.07932544499635696
1789799644430536400,2.308536376953125,-0.12748365104198456,0.39002180099487305,-0.4587068557739258
1789799644440507400,2.31850732421875,-0.034266628324985504,0.30033984780311584,-0.7761231660842896
1789799644450479600,2.328479736328125,-0.6534113883972168,-0.12870338559150696,-0.6849762201309204
1789799644460450300,2.3384501953125,-1.643543004989624,-1.335342288017273,-0.4851219654083252
1789799644470421200,2.348421142578125,-2.5158517360687256,-2.493387222290039,-0.769734799861908
1789799644480393500,2.3583935546875,-2.6300761699676514,-2.4154834747314453,-1.120222806930542
1789799644490364400,2.368364501953125,-1.354386806488037,-1.9066723585128784,-1.2713099718093872
1789799644500336400,2.37833642578125,0.19177769124507904,-0.6478445529937744,-1.1022897958755493
1789799644510307300,2.388307373046875,1.3653934001922607,0.22771358489990234,-0.685167670249939
1789799644520278500,2.398278564453125,1.9688899517059326,0.609918475151062,-0.3089138865470886
1789799644530250200,2.408250244140625,3.315804958343506,1.744959831237793,-0.8913490772247314
1789799644540221400,2.418221435546875,3.6691622734069824,0.9429209232330322,-1.016162395477295
1789799644550193400,2.428193359375,2.972104072570801,0.06650445610284805,-0.5979400873184204
1789799644560164400,2.438164306640625,2.193638563156128,-0.11218965798616409,0.0566699355840683
1789799644570136300,2.44813623046875,1.6876555681228638,0.118697889149189,0.4690079689025879
1789799644580107500,2.458107421875,1.3977444171905518,0.22260138392448425,0.6477590799331665
1789799644590078500,2.468078369140625,1.323607087135315,0.38989850878715515,0.6562164425849915
1789799644600050400,2.478050537109375,1.3212075233459473,0.3097682297229767,0.5297906398773193
1789799644610021400,2.488021484375,1.364995002746582,-0.00401578051969409,0.2641451060771942
1789799644619993300,2.497993408203125,1.3387492895126343,0.6955335140228271,-1.1888316869735718
1789799644629964300,2.50796435546875,0.8697556257247925,1.5181424617767334,-2.376046895980835
1789799644639936800,2.517936767578125,0.8958069682121277,1.2331598997116089,-1.9212342500686646
1789799644649907700,2.52790771484375,0.9752439856529236,0.9828784465789795,-1.6918647289276123
1789799644659878700,2.537878662109375,1.0643764734268188,0.8734585046768188,-1.6451061964035034
1789799644669850600,2.5478505859375,0.9368984699249268,1.1499308347702026,-1.0468244552612305
1789799644679821800,2.55782177734375,0.72124844789505,1.6261109113693237,-0.10554267466068268
1789799644689793500,2.56779345703125,0.6900774836540222,1.5561766624450684,1.017950415611267
1789799644699764700,2.5777646484375,0.9398119449615479,1.201009750366211,2.0582785606384277
1789799644709735700,2.587735595703125,0.6758508682250977,0.7638140320777893,2.731462001800537
1789799644719707600,2.597707763671875,0.3113110065460205,0.020480241626501083,2.794597864151001
1789799644729678600,2.6076787109375,0.47505414485931396,-0.8799241185188293,1.7644691467285156
1789799644739650800,2.61765087890625,0.8455008864402771,-0.6758072376251221,0.5979981422424316
1789799644749621500,2.62762158203125,0.8092957735061646,-0.09148330986499786,-0.16217665374279022
1789799644759593700,2.63759375,0.9916863441467285,0.06063858047127724,-0.2084197849035263
1789799644769564700,2.647564697265625,1.800523281097412,-0.10794031620025635,-0.036665335297584534
1789799644779536000,2.657535888671875,2.482665538787842,-0.12154773622751236,0.03211745619773865
1789799644789507600,2.667507568359375,2.5866169929504395,-0.29118603467941284,-0.1150490939617157
1789799644799478800,2.677478759765625,2.2244412899017334,-1.6362674236297607,-0.35149118304252625
1789799644809450800,2.68745068359375,1.106467843055725,-2.6214547157287598,-0.5617770552635193
1789799644819421700,2.697421630859375,-0.5304880738258362,-2.5248072147369385,-0.3118966519832611
1789799644829393700,2.7073935546875,-0.9150261878967285,-0.5570001602172852,0.020849887281656265
1789799644839364900,2.71736474609375,-0.2675555348396301,0.3659026324748993,0.03374171629548073
1789799644849335600,2.72733544921875,0.47178882360458374,-0.0238784346729517,-0.07959043234586716
1789799644859307800,2.737307861328125,0.7927525043487549,-0.4417928457260132,-0.12164413928985596
1789799644869278700,2.74727880859375,0.6543195247650146,-0.587431013584137,-0.16673998534679413
1789799644879250700,2.757250732421875,0.41418546438217163,-0.3669479191303253,-0.2802404463291168
1789799644889221600,2.7672216796875,0.24080781638622284,-0.29952651262283325,-0.37568333745002747
1789799644899192600,2.777192626953125,0.11888457834720612,-0.3302684724330902,-0.4369592070579529
1789799644909164500,2.78716455078125,-0.01864851824939251,-0.13768409192562103,-0.43755364418029785
1789799644919135500,2.797135498046875,-0.12937742471694946,0.12764345109462738,-0.31003695726394653
1789799644929107700,2.807107666015625,-0.29499170184135437,0.22905687987804413,-0.11025965958833694
1789799644939078700,2.81707861328125,-0.521382212638855,0.1856130063533783,0.07684817910194397
1789799644949050600,2.827050537109375,-0.6801015734672546,0.2297612875699997,0.147248312830925
1789799644959021600,2.837021484375,-0.6580918431282043,0.39118799567222595,0.07206780463457108
1789799644968992800,2.84699267578125,-0.6464309692382812,0.4596661329269409,-0.09633638709783554
1789799644978964500,2.856964599609375,-0.7548130750656128,0.4499985873699188,-0.2128526121377945
1789799644988935700,2.866935791015625,-0.7432690858840942,0.4262557029724121,-0.28281038999557495
1789799644998907600,2.87690771484375,-0.6763094663619995,0.12489958852529526,-0.3241269290447235
1789799645008878600,2.886878662109375,-0.6939473152160645,-0.16842177510261536,-0.3247154951095581
1789799645018850600,2.8968505859375,-0.7222647070884705,0.0020362529903650284,-0.16164880990982056
1789799645028821800,2.90682177734375,-0.7016329765319824,0.17857852578163147,0.12937556207180023
1789799645038792700,2.916792724609375,-0.6391948461532593,-0.03177976608276367,0.3951324224472046
1789799645048764700,2.9267646484375,-0.598331868648529,-0.13834428787231445,0.5231993198394775
1789799645058735600,2.936735595703125,-0.6057500839233398,-0.12219168990850449,0.4674398899078369
1789799645068707600,2.94670751953125,-0.5627336502075195,-0.14185833930969238,0.31016212701797485
1789799645078678500,2.956678466796875,-0.4777391254901886,-0.3350032866001129,0.16837036609649658
1789799645088650800,2.966650634765625,-0.4802984297275543,-0.7047472596168518,0.12713931500911713
1789799645098621700,2.97662158203125,-0.6338943839073181,-0.7615005373954773,0.20191341638565063
1789799645108592600,2.986592529296875,-0.8085029721260071,-0.3879490792751312,0.28097549080848694
1789799645118564600,2.996564697265625,-0.9426660537719727,0.16668538749217987,0.27399665117263794
1789799645128535800,3.006535888671875,-0.9150099158287048,0.5710328817367554,0.19413858652114868
1789799645138507500,3.016507568359375,-0.844149649143219,0.39788079261779785,0.10224781185388565
1789799645148478700,3.026478759765625,-0.856193482875824,-0.3691127896308899,0.012997823767364025
1789799645158450700,3.03645068359375,-0.8864758014678955,-0.9726024270057678,-0.06950477510690689
1789799645168421600,3.046421630859375,-0.8888958096504211,-0.9466893076896667,-0.103680320084095
1789799645178392600,3.056392578125,-0.8772532343864441,-0.3484828770160675,-0.01709562912583351
1789799645188364800,3.06636474609375,-0.9334725737571716,0.2704101800918579,0.0613698847591877
1789799645198335700,3.076335693359375,-1.0340396165847778,0.33328449726104736,-0.08217662572860718
1789799645208307700,3.0863076171875,-1.1896854639053345,0.1293151080608368,-0.3100318908691406
1789799645218278700,3.096278564453125,-1.4019044637680054,0.006216616835445166,-0.3627385199069977
1789799645228250600,3.106250732421875,-1.5385839939117432,-0.02473490685224533,-0.26378077268600464
1789799645238221600,3.1162216796875,-1.5488563776016235,-0.11881693452596664,-0.24803003668785095
1789799645248192800,3.12619287109375,-1.4692723751068115,-0.3091975152492523,-0.41993334889411926
1789799645258164700,3.136164794921875,-1.3699569702148438,-0.3972592055797577,-0.6716947555541992
1789799645268135700,3.1461357421875,-1.3878406286239624,-0.2992689907550812,-0.8177467584609985
1789799645278107600,3.156107666015625,-1.515869140625,-0.13043390214443207,-0.7953807711601257
1789799645288078800,3.166078857421875,-1.579451084136963,-0.053639259189367294,-0.6900923848152161
1789799645298050600,3.176050537109375,-1.5616039037704468,-0.0496320016682148,-0.6498262286186218
1789799645308021800,3.186021728515625,-1.5495402812957764,0.002600310370326042,-0.6867576241493225
1789799645317992700,3.19599267578125,-1.5298256874084473,0.12871244549751282,-0.6838507652282715
1789799645327964700,3.205964599609375,-1.4564340114593506,0.19540677964687347,-0.5732811093330383
1789799645337935600,3.215935546875,-1.3854701519012451,0.05592558532953262,-0.46696531772613525
1789799645347907800,3.225907958984375,-1.3227225542068481,-0.0970839411020279,-0.44751280546188354
1789799645357878800,3.235878662109375,-1.2837624549865723,-0.10496369749307632,-0.4300065040588379
1789799645367850800,3.245850830078125,-1.2543206214904785,0.024825455620884895,-0.4236183762550354
1789799645377821700,3.25582177734375,-1.250457763671875,0.1996246874332428,-0.42272675037384033
1789799645387792600,3.265792724609375,-1.2826769351959229,0.3153981566429138,-0.38671815395355225
1789799645397764600,3.2757646484375,-1.3744810819625854,0.23497523367404938,-0.3375822901725769
1789799645407735600,3.285735595703125,-1.5153546333312988,-0.069627545773983,-0.298801064491272
1789799645417707800,3.295707763671875,-1.60210120677948,-0.4332353174686432,-0.2749897539615631
1789799645427678500,3.305678466796875,-1.517723798751831,-0.541785478591919,-0.2796604037284851
1789799645437650700,3.315650634765625,-1.288494348526001,-0.33566775918006897,-0.3195122182369232
1789799645447621600,3.32562158203125,-1.124411940574646,-0.2361784428358078,-0.32588115334510803
1789799645457593600,3.335593505859375,-1.0959376096725464,-0.7450898885726929,-0.2438371628522873
1789799645467564500,3.345564453125,-1.1097160577774048,-1.1478866338729858,-0.16613304615020752
1789799645477535700,3.35553564453125,-1.1156139373779297,-1.1758627891540527,-0.16921672224998474
1789799645487507500,3.365507568359375,-1.125340223312378,-1.0186084508895874,-0.1853616088628769
1789799645497478700,3.375478759765625,-1.1326946020126343,-0.863287627696991,-0.1419033408164978
1789799645507450600,3.38545068359375,-1.1259541511535645,-0.7782217264175415,-0.08756020665168762
1789799645517421800,3.395421875,-1.0729055404663086,-0.538783609867096,-0.052138566970825195
1789799645527393500,3.4053935546875,-1.0022660493850708,-0.27543529868125916,0.020238691940903664
1789799645537364700,3.41536474609375,-0.9547483325004578,-0.22491540014743805,0.11285091936588287
1789799645547335700,3.425335693359375,-0.8808645009994507,-0.04549744352698326,0.15678827464580536
1789799645557307600,3.4353076171875,-0.7519230246543884,0.44763049483299255,0.18783435225486755
1789799645567278600,3.445278564453125,-0.650341272354126,0.9477689862251282,0.20371797680854797
1789799645577250800,3.455250732421875,-0.6626845002174377,1.1041673421859741,0.26568838953971863
1789799645587221500,3.465221435546875,-0.6232041716575623,0.8065338134765625,0.35474157333374023
1789799645597193700,3.47519384765625,-0.361780047416687,0.19766195118427277,0.33326131105422974
1789799645607164700,3.48516455078125,-0.20716330409049988,0.010566623881459236,0.2910502254962921
1789799645617135900,3.495135986328125,-0.09712335467338562,-0.0713796392083168,0.3183886408805847
1789799645627107600,3.505107666015625,-0.016987239941954613,-0.16631653904914856,0.41359958052635193
1789799645637077800,3.515077880859375,0.00561101408675313,-0.17605838179588318,0.46584147214889526
1789799645647050000,3.525050048828125,0.03062155842781067,-0.14655961096286774,0.4571334719657898
1789799645657021000,3.53502099609375,0.09792230278253555,0.04965943098068237,0.3894186019897461
1789799645666993000,3.544992919921875,0.20442025363445282,0.11320511996746063,0.3643302917480469
1789799645676963800,3.5549638671875,0.38122618198394775,0.018141720443964005,0.40565454959869385
1789799645686935800,3.564935791015625,0.6005489230155945,-0.04741891473531723,0.4162060022354126
1789799645696906800,3.57490673828125,0.7874594330787659,0.21011967957019806,0.40989458560943604
1789799645706878000,3.5848779296875,0.8868387341499329,0.43365129828453064,0.5017712116241455
1789799645716850000,3.594849853515625,0.8417993783950806,0.6110053062438965,0.6330515146255493
1789799645726820900,3.60482080078125,0.8003491163253784,0.7053001523017883,0.6198992133140564
1789799645736793000,3.61479296875,0.8849383592605591,0.6803265810012817,0.5403417944908142
1789799645746764000,3.624763916015625,1.0728930234909058,0.8393210172653198,0.44632288813591003
1789799645756736000,3.634736083984375,1.3443483114242554,0.964746356010437,0.44884172081947327
1789799645766707000,3.64470703125,1.629064917564392,0.8210429549217224,0.494479775428772
1789799645776678000,3.654677978515625,1.841629147529602,0.557316243648529,0.5302095413208008
1789799645786649900,3.66464990234375,1.9170011281967163,0.49922338128089905,0.5385391116142273
1789799645796620800,3.674620849609375,1.844927191734314,0.53303062915802,0.5000332593917847
1789799645806593000,3.684593017578125,1.6744701862335205,0.6429653763771057,0.3832176923751831
1789799645816564000,3.69456396484375,1.6054693460464478,0.8701370358467102,0.22084049880504608
1789799645826536000,3.704535888671875,1.6350903511047363,0.9160246253013611,0.14734071493148804
1789799645836507000,3.7145068359375,1.6680173873901367,0.7279833555221558,0.13995976746082306
1789799645846478800,3.724478759765625,1.738318681716919,0.5355696678161621,0.15802772343158722
1789799645856449800,3.73444970703125,1.837952971458435,0.39502108097076416,0.18817256391048431
1789799645866421000,3.7444208984375,1.95093834400177,0.21847161650657654,0.19222350418567657
1789799645876393000,3.75439306640625,2.0085091590881348,0.023843547329306602,0.18642526865005493
1789799645886364000,3.764364013671875,1.9914690256118774,0.04801785945892334,0.17044124007225037
1789799645896336000,3.7743359375,1.9627995491027832,0.3602775037288666,0.10923247784376144
1789799645906307000,3.78430712890625,1.9579706192016602,0.626656174659729,0.03906058520078659
1789799645916278800,3.79427880859375,1.9886753559112549,0.721769392490387,-0.0011646003695204854
1789799645926250000,3.80425,1.9631427526474,0.5824700593948364,0.0049063414335250854
1789799645936222000,3.814221923828125,1.8928472995758057,0.45620375871658325,0.023382553830742836
1789799645946193000,3.82419287109375,1.8392066955566406,0.6609060168266296,0.03846563398838043
1789799645956163800,3.834163818359375,1.7705179452896118,0.7717633247375488,-0.05190740525722504
1789799645966136000,3.844135986328125,1.7008227109909058,0.6957350969314575,-0.1867419183254242
1789799645976107000,3.85410693359375,1.5937514305114746,0.6456580758094788,-0.19340328872203827
1789799645986079000,3.864078857421875,1.4137345552444458,0.5555478930473328,-0.07347341626882553
1789799645996050000,3.8740498046875,1.2668678760528564,0.3957185745239258,-0.019217636436223984
1789799646006022000,3.88402197265625,1.2083059549331665,0.26422977447509766,-0.07220441848039627
1789799646015992800,3.893992919921875,1.2105878591537476,0.09315897524356842,-0.1395517736673355
1789799646025965000,3.903965087890625,1.1801667213439941,-0.056658484041690826,-0.10521803051233292
1789799646035936000,3.91393603515625,1.1140711307525635,-0.19429650902748108,-0.052813947200775146
1789799646045907000,3.923906982421875,1.0591570138931274,-0.25909894704818726,-0.08484005928039551
1789799646055879000,3.93387890625,1.0196279287338257,-0.1211669072508812,-0.09777955710887909
1789799646065850000,3.94385009765625,0.9993530511856079,0.14790025353431702,-0.047930773347616196
1789799646075821800,3.95382177734375,1.0486215353012085,0.3842712342739105,-0.01726021245121956
1789799646085793000,3.96379296875,1.0539683103561401,0.4186478555202484,-0.030557909980416298
1789799646095765000,3.973764892578125,0.9485753774642944,0.3753563165664673,-0.060803696513175964
1789799646105736000,3.98373583984375,0.8309592604637146,0.28995218873023987,-0.142764613032341
1789799646115708000,3.9937080078125,0.7142752408981323,0.125393345952034,-0.2548528015613556
1789799646125679000,4.00367919921875,0.5610819458961487,-0.05428560823202133,-0.308210551738739
1789799646135649800,4.01364990234375,0.411434143781662,-0.19510984420776367,-0.30531489849090576
1789799646145622000,4.0236220703125,0.24648833274841309,-0.2110629677772522,-0.25144875049591064
1789799646155593000,4.033593017578125,0.06399443000555038,-0.06289055198431015,-0.1494573950767517
1789799646165565000,4.04356494140625,-0.12275974452495575,-0.03358592465519905,-0.09206654131412506
1789799646175535900,4.053535888671875,-0.27996826171875,-0.2801826596260071,-0.09310890734195709
1789799646185508000,4.063508056640625,-0.4147857427597046,-0.41746434569358826,-0.1179886907339096
1789799646195479000,4.07347900390625,-0.513676643371582,-0.40647080540657043,-0.16355110704898834
1789799646205451000,4.083450927734375,-0.586679995059967,-0.3023931384086609,-0.19310741126537323
1789799646215422000,4.093421875,-0.672457218170166,-0.23060844838619232,-0.169161856174469
1789799646225393000,4.103392822265625,-0.7656462788581848,0.052738845348358154,-0.06333129853010178
1789799646235364900,4.11336474609375,-0.843627393245697,0.19809603691101074,0.08395322412252426
1789799646245335800,4.123335693359375,-0.8854677677154541,0.5684807300567627,0.2404184639453888
1789799646255308000,4.13330810546875,-0.870751678943634,0.7646838426589966,0.33811014890670776
1789799646265278700,4.14327880859375,-0.8890950083732605,0.6257318258285522,0.3762204945087433
1789799646275251000,4.1532509765625,-0.914909839630127,0.30818524956703186,0.39822646975517273
1789799646285222000,4.163221923828125,-0.9707475304603577,-0.00469488650560379,0.4061166048049927
1789799646295193900,4.17319384765625,-1.0342836380004883,-0.28726187348365784,0.39542055130004883
1789799646305164800,4.183164794921875,-1.0381414890289307,-0.5244534015655518,0.3681098520755768
1789799646315136000,4.193135986328125,-0.937850832939148,-0.7505006194114685,0.2868506908416748
1789799646325107700,4.203107666015625,-0.7853917479515076,-0.7739356160163879,0.17471136152744293
1789799646335079000,4.213078857421875,-0.6335452198982239,-0.5803440809249878,0.06741578876972198
1789799646345051000,4.22305078125,-0.48594751954078674,-0.3211926817893982,-0.022231535986065865
1789799646355022000,4.23302197265625,-0.3611920177936554,-0.21065737307071686,-0.10363664478063583
1789799646364993800,4.242993896484375,-0.2925652861595154,-0.18878749012947083,-0.14173157513141632
1789799646374965000,4.252965087890625,-0.2763892412185669,-0.2581268846988678,-0.1524910032749176
1789799646384936700,4.262936767578125,-0.30520278215408325,0.10048745572566986,-0.1457662582397461
1789799646394908000,4.272907958984375,-0.26583248376846313,0.45498108863830566,-0.17378243803977966
1789799646404878800,4.28287890625,-0.2714967429637909,0.36706241965293884,-0.24424196779727936
1789799646414851000,4.29285107421875,-0.4535949230194092,0.5499611496925354,-0.31425726413726807
1789799646424821800,4.30282177734375,-0.7058894634246826,0.8997125029563904,-0.354827344417572
1789799646434794000,4.3127939453125,-0.9926013946533203,1.0779216289520264,-0.35336047410964966
1789799646444765000,4.322764892578125,-1.2900527715682983,0.9027157425880432,-0.3919390141963959
1789799646454737000,4.33273681640625,-1.5466371774673462,0.6045154333114624,-0.45437362790107727
1789799646464707800,4.342707763671875,-1.63087797164917,0.32218149304389954,-0.48994919657707214
1789799646474680000,4.35268017578125,-1.632721185684204,0.007813181728124619,-0.5314217805862427
1789799646484650800,4.362650634765625,-1.619852066040039,-0.3018703758716583,-0.5912100672721863
1789799646494623000,4.372623046875,-1.6237248182296753,-0.5084863901138306,-0.6146618127822876
1789799646504594000,4.382593994140625,-1.6760761737823486,-0.5521910190582275,-0.5963443517684937
1789799646514564900,4.39256494140625,-1.7539970874786377,-0.4131641387939453,-0.581975519657135
1789799646524536800,4.402536865234375,-1.774825096130371,-0.35891154408454895,-0.5757477283477783
1789799646534508000,4.412508056640625,-1.796582818031311,-0.45851272344589233,-0.5387737154960632
1789799646544479700,4.422479736328125,-1.815495252609253,-0.5707457661628723,-0.48668336868286133
1789799646554451000,4.432450927734375,-1.8527348041534424,-0.46557489037513733,-0.46655094623565674
1789799646564423000,4.4424228515625,-1.8598071336746216,-0.25504666566848755,-0.5215768814086914
1789799646574394000,4.45239404296875,-1.8358287811279297,-0.12414351850748062,-0.605950653553009
1789799646584365800,4.46236572265625,-1.8413132429122925,-0.024597754701972008,-0.6136053800582886
1789799646594337000,4.4723369140625,-1.8942025899887085,0.06857426464557648,-0.5595743656158447
1789799646604308000,4.482307861328125,-1.9650357961654663,0.022466160356998444,-0.4858380854129791
1789799646614280000,4.492280029296875,-2.0286600589752197,-0.2286962866783142,-0.4300459325313568
1789799646624251000,4.5022509765625,-2.0276973247528076,-0.49141260981559753,-0.4228505790233612
1789799646634223000,4.51222314453125,-1.9724500179290771,-0.5730608701705933,-0.45199596881866455
1789799646644193500,4.522193603515625,-1.8467192649841309,-0.5460361838340759,-0.5369063019752502
1789799646654165800,4.532165771484375,-1.7336480617523193,-0.5277463793754578,-0.610966682434082
1789799646664136700,4.54213671875,-1.6069234609603882,-0.5590963363647461,-0.6147116422653198
1789799646674108700,4.552108642578125,-1.4668751955032349,-0.6727656126022339,-0.5702906250953674
1789799646684079600,4.56207958984375,-1.4113293886184692,-0.7402546405792236,-0.5081308484077454
1789799646694051800,4.5720517578125,-1.2444195747375488,-0.7523419260978699,-0.5037712454795837
1789799646704022500,4.5820224609375,-1.0369552373886108,-0.686208963394165,-0.4983416199684143
1789799646713993700,4.59199365234375,-0.8191260099411011,-0.4851243495941162,-0.4197927415370941
1789799646723965700,4.601965576171875,-0.6081376075744629,-0.4009820520877838,-0.29865139722824097
1789799646733937000,4.61193701171875,-0.4409523606300354,-0.4675866365432739,-0.23752200603485107
1789799646743908600,4.62190869140625,-0.3125491142272949,-0.5037896633148193,-0.22548212110996246
1789799646753879800,4.6318798828125,-0.20157332718372345,-0.4274434745311737,-0.16240675747394562
1789799646763851500,4.6418515625,-0.10370881855487823,-0.25611621141433716,-0.1366361379623413
1789799646773822700,4.65182275390625,0.06958147138357162,-0.020185695961117744,-0.16521506011486053
1789799646783794700,4.661794677734375,0.2143266797065735,0.19829444587230682,-0.17592363059520721
1789799646793766000,4.671765869140625,0.2655768096446991,0.37903279066085815,-0.10643935948610306
1789799646803737600,4.681737548828125,0.22465334832668304,0.48526257276535034,0.03780357167124748
1789799646813708800,4.691708740234375,0.19275054335594177,0.6156988739967346,0.13587874174118042
1789799646823679700,4.7016796875,0.36231428384780884,0.3553980588912964,0.08970538526773453
1789799646833651700,4.711651611328125,0.3999101221561432,0.21221666038036346,0.0855412632226944
1789799646843622700,4.72162255859375,0.4806230664253235,0.3501199185848236,0.06318935751914978
1789799646853595000,4.731594970703125,0.5896611213684082,0.4654366672039032,0.03803739696741104
1789799646863565600,4.741565673828125,0.6039202213287354,0.47789838910102844,0.14750583469867706
1789799646873537800,4.751537841796875,0.6472775936126709,0.4856702983379364,0.27625182271003723
1789799646883508700,4.7615087890625,0.6812323331832886,0.3932817876338959,0.32657331228256226
1789799646893480700,4.771480712890625,0.7136624455451965,0.3914143741130829,0.29703381657600403
1789799646903451600,4.78145166015625,0.8122790455818176,0.286467969417572,0.20947492122650146
1789799646913424000,4.791423828125,0.9218587875366211,0.24884045124053955,0.13993233442306519
1789799646923394600,4.80139453125,1.1191377639770508,0.5934804081916809,0.04795154556632042
1789799646933365800,4.81136572265625,1.3367483615875244,0.8621017336845398,0.025802569463849068
1789799646943337700,4.821337646484375,1.453721046447754,0.8552789688110352,0.08840522915124893
1789799646953309000,4.831308837890625,1.495012879371643,0.7295109033584595,0.0510685108602047
1789799646963280600,4.84128076171875,1.5098466873168945,0.6935116648674011,-0.051659464836120605
1789799646973251800,4.851251953125,1.5560890436172485,0.8073037266731262,-0.12828579545021057
1789799646983223600,4.8612236328125,1.6206046342849731,0.6831008195877075,-0.17312943935394287
1789799646993194800,4.87119482421875,1.7263935804367065,0.5010367631912231,-0.18083502352237701
1789799647003166700,4.881166748046875,1.8327394723892212,0.539752185344696,-0.1841365545988083
1789799647013138000,4.891137939453125,1.8755501508712769,0.6245000958442688,-0.16101790964603424
1789799647023109600,4.901109619140625,1.8551905155181885,0.5231848955154419,-0.14913435280323029
1789799647033080800,4.911080810546875,1.8623639345169067,0.39745867252349854,-0.17536382377147675
1789799647043051800,4.9210517578125,1.9318543672561646,0.4689357876777649,-0.2416408509016037
1789799647053023700,4.931023681640625,2.023617744445801,0.6011489629745483,-0.31085002422332764
1789799647062994700,4.94099462890625,1.9852374792099,0.5492708683013916,-0.35151487588882446
1789799647072967000,4.950966796875,1.8771010637283325,0.5038413405418396,-0.3238275945186615
1789799647082937600,4.9609375,1.8701287508010864,0.5612223148345947,-0.2365606129169464
1789799647092909800,4.970909912109375,1.9720669984817505,0.6452186703681946,-0.2342630922794342
1789799647102880800,4.980880859375,2.0163636207580566,0.5898457169532776,-0.3746553659439087
1789799647112852700,4.990852783203125,1.9793212413787842,0.4474256932735443,-0.4805000424385071
1789799647122823700,5.00082373046875,1.8754174709320068,0.32021716237068176,-0.4010789692401886
1789799647132796000,5.0107958984375,1.743678092956543,0.14569461345672607,-0.29442018270492554
1789799647142766600,5.0207666015625,1.598954677581787,-0.10051915049552917,-0.3082193434238434
1789799647152737500,5.030737548828125,1.4253541231155396,-0.2796918451786041,-0.28796786069869995
1789799647162709800,5.040709716796875,1.324889898300171,-0.34541812539100647,-0.22112280130386353
1789799647172680700,5.0506806640625,1.2925177812576294,-0.3099304437637329,-0.17828957736492157
1789799647182652700,5.060652587890625,1.244723916053772,-0.21045923233032227,-0.13569684326648712
1789799647192623600,5.07062353515625,1.2379616498947144,-0.14781369268894196,-0.10148374736309052
1789799647202595600,5.080595703125,1.2702556848526,-0.29517731070518494,-0.13368162512779236
1789799647212566500,5.09056640625,1.2305666208267212,-0.5116771459579468,-0.17072433233261108
1789799647222538800,5.100538818359375,1.171722650527954,-0.5798660516738892,-0.12556111812591553
1789799647232509700,5.110509765625,1.1051548719406128,-0.4931788146495819,0.004788896068930626
1789799647242481700,5.120481689453125,1.0392903089523315,-0.3729754388332367,0.16550001502037048
1789799647252452600,5.13045263671875,0.9791271686553955,-0.3386060297489166,0.26376453042030334
1789799647262424800,5.1404248046875,0.9111182689666748,-0.43171730637550354,0.29505375027656555
1789799647272395500,5.1503955078125,0.8160327672958374,-0.4923255443572998,0.2864898145198822
1789799647282366700,5.16036669921875,0.717664361000061,-0.4723198711872101,0.2803901135921478
1789799647292338700,5.170338623046875,0.6085778474807739,-0.4195331037044525,0.29734593629837036
1789799647302309600,5.1803095703125,0.45087316632270813,-0.34045079350471497,0.3322432041168213
1789799647312281600,5.190281494140625,0.3114292621612549,-0.3378155827522278,0.33608293533325195
1789799647322252800,5.200252685546875,0.1816246509552002,-0.385311484336853,0.29110002517700195
1789799647332224500,5.210224609375,0.046840474009513855,-0.5021544694900513,0.22635404765605927
1789799647342195700,5.22019580078125,-0.06818731129169464,-0.6326794624328613,0.2178202122449875
1789799647352167700,5.230167724609375,-0.19912774860858917,-0.392861008644104,0.29575416445732117
1789799647362138600,5.240138671875,-0.2957698702812195,-0.020227773115038872,0.3623981773853302
1789799647372110600,5.250110595703125,-0.3589842617511749,0.057251304388046265,0.34902697801589966
1789799647382081800,5.260081787109375,-0.4520162045955658,0.04523405805230141,0.27791309356689453
1789799647392053500,5.270053466796875,-0.5622093081474304,-0.006551642436534166,0.1622174084186554
1789799647402024700,5.280024658203125,-0.6571941375732422,-0.1448890119791031,0.07104194909334183
1789799647411995600,5.28999560546875,-0.732682466506958,-0.2952375113964081,0.08714715391397476
1789799647421968000,5.2999677734375,-0.8015465140342712,-0.3487031161785126,0.1998388171195984
1789799647431938600,5.3099384765625,-0.8804208040237427,-0.07954728603363037,0.3029913008213043
1789799647441910800,5.319910888671875,-0.9178195595741272,0.2179616242647171,0.29357171058654785
1789799647451881700,5.3298818359375,-0.8792498111724854,0.3720118999481201,0.19801108539104462
1789799647461853700,5.339853759765625,-0.8449070453643799,0.3071351647377014,0.08487840741872787
1789799647471824600,5.34982470703125,-0.8542187809944153,0.08350474387407303,-0.013044961728155613
1789799647481796900,5.359796875,-0.8872113227844238,0.015086807310581207,-0.04307955875992775
1789799647491767600,5.369767578125,-0.9518046975135803,0.027594342827796936,-0.04478824511170387
1789799647501739800,5.37973974609375,-0.9801588654518127,0.014091051183640957,-0.0662543848156929
1789799647511710700,5.389710693359375,-0.968039870262146,-0.015912387520074844,-0.07992519438266754
1789799647521681700,5.399681640625,-0.9902200102806091,0.05865958333015442,-0.05393433943390846
1789799647531653600,5.409653564453125,-1.0247611999511719,0.16332128643989563,-0.06760354340076447
1789799647541624800,5.419624755859375,-1.0653201341629028,0.03648024797439575,-0.1817397028207779
1789799647551596500,5.429596435546875,-1.1125824451446533,-0.16528350114822388,-0.2679411768913269
1789799647561567700,5.439567626953125,-1.1270934343338013,-0.43942078948020935,-0.26267343759536743
1789799647571539700,5.449539794921875,-1.225891351699829,-0.6934951543807983,-0.21100224554538727
1789799647581510700,5.4595107421875,-1.3727021217346191,-0.7288815975189209,-0.19671012461185455
1789799647591482600,5.469482666015625,-1.4817719459533691,-0.424128919839859,-0.30411994457244873
1789799647601453800,5.479453857421875,-1.4835684299468994,0.02732057124376297,-0.4899369478225708
1789799647611425500,5.489425537109375,-1.4525415897369385,0.23643703758716583,-0.6002488136291504
1789799647621396700,5.499396728515625,-1.4362821578979492,0.19302324950695038,-0.5972021222114563
1789799647631368700,5.50936865234375,-1.4204187393188477,-0.09718620777130127,-0.5269194841384888
1789799647641340400,5.51934033203125,-1.3820128440856934,-0.4341104328632355,-0.4525642693042755
1789799647651311600,5.5293115234375,-1.3487355709075928,-0.4867238402366638,-0.4252932369709015
1789799647661283600,5.53928369140625,-1.3905980587005615,-0.19708430767059326,-0.4929617643356323
1789799647671254500,5.549254638671875,-1.4438644647598267,0.05270049721002579,-0.5858381986618042
1789799647681226500,5.5592265625,-1.5289186239242554,0.10885564237833023,-0.6065186858177185
1789799647691197700,5.56919775390625,-1.607530951499939,0.05227944999933243,-0.5855904817581177
1789799647701169400,5.57916943359375,-1.6812735795974731,0.04717203974723816,-0.5363398790359497
1789799647711140600,5.589140625,-1.7525482177734375,0.07137777656316757,-0.46686306595802307
1789799647721112600,5.599112548828125,-1.8242677450180054,0.1273512989282608,-0.3946399986743927
1789799647731083500,5.60908349609375,-1.861651062965393,0.09298507124185562,-0.3242553174495697
1789799647741055500,5.619055419921875,-1.826010823249817,-0.10449045896530151,-0.2788825035095215
1789799647751026700,5.629026611328125,-1.7427233457565308,-0.31402158737182617,-0.24363397061824799
1789799647760997600,5.63899755859375,-1.5944249629974365,-0.4499671757221222,-0.16450558602809906
1789799647770969600,5.648969482421875,-1.4155055284500122,-0.5942409634590149,-0.08186370879411697
1789799647780940500,5.6589404296875,-1.3007584810256958,-0.7256786227226257,-0.08175931125879288
1789799647790912500,5.66891259765625,-1.2707147598266602,-0.8685343265533447,-0.14418700337409973
1789799647800883500,5.678883544921875,-1.2778736352920532,-1.0514698028564453,-0.15705566108226776
1789799647810855700,5.688855712890625,-1.273182988166809,-1.0965166091918945,-0.11498863995075226
1789799647820826600,5.69882666015625,-1.2228015661239624,-0.9614496231079102,-0.06268228590488434
1789799647830798600,5.708798583984375,-1.1012823581695557,-0.8170740604400635,-0.009614277631044388
1789799647840769500,5.71876953125,-0.9851365685462952,-0.6514264941215515,0.05866624414920807
1789799647850741500,5.728741455078125,-0.8679018020629883,-0.45391929149627686,0.13614025712013245
1789799647860712400,5.73871240234375,-0.8010623455047607,-0.3479931354522705,0.2070879340171814
1789799647870684700,5.7486845703125,-0.7921785712242126,-0.4287167489528656,0.27259984612464905
1789799647880655600,5.758655517578125,-0.7214202284812927,-0.3756369948387146,0.31942832469940186
1789799647890626600,5.76862646484375,-0.5505592823028564,-0.017857028171420097,0.28753751516342163
1789799647900598500,5.7785986328125,-0.3888729214668274,0.3612056076526642,0.23787860572338104
1789799647910569700,5.78856982421875,-0.4074527323246002,0.5226181745529175,0.24265392124652863
1789799647920541400,5.79854150390625,-0.44346797466278076,0.6994345188140869,0.32273703813552856
1789799647930512600,5.8085126953125,-0.3752226233482361,0.7362969517707825,0.4201411008834839
1789799647940484600,5.818484619140625,-0.24749474227428436,0.759125828742981,0.4429902136325836
1789799647950455600,5.82845556640625,-0.05267279967665672,0.930236279964447,0.3934711217880249
1789799647960427500,5.838427490234375,0.08988381922245026,1.0256184339523315,0.3708947002887726
1789799647970398700,5.848398681640625,0.1918216347694397,0.9795977473258972,0.3587035536766052
1789799647980370400,5.858370361328125,0.26855528354644775,0.9611132740974426,0.34155893325805664
1789799647990341600,5.868341552734375,0.40062597393989563,1.0272754430770874,0.3102681040763855
1789799648000313600,5.878313720703125,0.5249521732330322,0.9909198880195618,0.3047223389148712
1789799648010284500,5.888284423828125,0.6133821606636047,0.8560401201248169,0.3467329144477844
1789799648020255500,5.89825537109375,0.7043842673301697,0.8340674042701721,0.3427402973175049
1789799648030227700,5.908227783203125,0.8298428654670715,0.9816288948059082,0.2597127854824066
1789799648040198700,5.91819873046875,1.0367521047592163,1.1520744562149048,0.15796247124671936
1789799648050170600,5.928170654296875,1.238667607307434,1.166353702545166,0.08164452761411667
1789799648060141600,5.9381416015625,1.3714749813079834,1.0941530466079712,0.021392373368144035
1789799648070113500,5.948113525390625,1.4932173490524292,0.8897083401679993,-0.06906189024448395
1789799648080084500,5.95808447265625,1.644067645072937,0.6681197285652161,-0.18843728303909302
1789799648090056700,5.968056640625,1.7918701171875,0.6246992945671082,-0.2921256124973297
1789799648100027600,5.978027587890625,1.8324679136276245,0.679774820804596,-0.3495334982872009
1789799648109999600,5.98799951171875,1.7928833961486816,0.8149642944335938,-0.3610535264015198
1789799648119970600,5.997970458984375,1.755646824836731,0.8706563115119934,-0.37479865550994873
1789799648129942500,6.007942626953125,1.7255494594573975,0.7421889305114746,-0.3819364309310913
1789799648139913500,6.01791357421875,1.7486928701400757,0.564048171043396,-0.4547576606273651
1789799648149884700,6.027884765625,1.8111153841018677,0.4406050741672516,-0.5744190812110901
1789799648159856600,6.037856689453125,1.8705414533615112,0.4679994285106659,-0.6516273021697998
1789799648169827600,6.04782763671875,1.929862380027771,0.5355126857757568,-0.6893938779830933
1789799648179799600,6.057799560546875,1.996617078781128,0.6477979421615601,-0.7010830044746399
1789799648189770800,6.067770751953125,2.070309638977051,0.7858991026878357,-0.6835055947303772
1789799648199742500,6.077742431640625,2.1123838424682617,0.8601416349411011,-0.6471009850502014
1789799648209713700,6.087713623046875,2.0769095420837402,0.8213375210762024,-0.5956562161445618
1789799648219685600,6.097685546875,1.9961282014846802,0.7167690396308899,-0.5406195521354675
1789799648229656600,6.107656494140625,1.936884880065918,0.69023597240448,-0.551703929901123
1789799648239628500,6.117628662109375,1.8942153453826904,0.7795314788818359,-0.6591259837150574
1789799648249599700,6.127599853515625,1.845230221748352,0.9698686599731445,-0.7674263715744019
1789799648259571500,6.137571533203125,1.7519139051437378,0.9290855526924133,-0.7750421762466431
1789799648269542700,6.147542724609375,1.633994460105896,0.5927621126174927,-0.663109540939331
1789799648279513600,6.157513671875,1.5671334266662598,0.3309805989265442,-0.5340916514396667
1789799648289485600,6.167485595703125,1.5085744857788086,0.40244224667549133,-0.559116542339325
1789799648299456500,6.17745654296875,1.3894270658493042,0.36636388301849365,-0.5990560054779053
1789799648309428700,6.1874287109375,1.226470947265625,0.08227383345365524,-0.538331925868988
1789799648319399700,6.197399658203125,1.0782580375671387,-0.16932964324951172,-0.46563851833343506
1789799648329371600,6.20737158203125,0.9418535232543945,-0.2557484209537506,-0.3969707787036896
1789799648339342600,6.217342529296875,0.8490242958068848,-0.3322482407093048,-0.31336963176727295
1789799648349314800,6.227314697265625,0.7817552089691162,-0.3737594783306122,-0.2496630996465683
1789799648359285500,6.237285400390625,0.7202604413032532,-0.3695000112056732,-0.24685771763324738
1789799648369257700,6.2472578125,0.6098942160606384,-0.319601446390152,-0.27044373750686646
1789799648379228700,6.257228759765625,0.49339666962623596,-0.26107126474380493,-0.2598890960216522
1789799648389200600,6.26720068359375,0.3984629511833191,-0.2632460296154022,-0.2006758451461792
1789799648399171600,6.277171630859375,0.28149160742759705,-0.2368495613336563,-0.15798990428447723
1789799648409142500,6.287142578125,0.16041763126850128,0.078125961124897,-0.15359169244766235
1789799648419114500,6.297114501953125,0.14755749702453613,0.21892915666103363,-0.13956961035728455
1789799648429085400,6.30708544921875,0.09609297662973404,0.1408388763666153,-0.08688642829656601
1789799648439057700,6.3170576171875,-0.001716673607006669,0.020321782678365707,0.010878213681280613
1789799648449028600,6.327028564453125,-0.048110272735357285,0.0826014056801796,0.09829887002706528
1789799648459000600,6.33700048828125,-0.052317533642053604,-0.07706788927316666,0.1314792037010193
1789799648468971500,6.346971435546875,-0.030235666781663895,-0.36104580760002136,0.17052993178367615
1789799648478943500,6.356943603515625,-0.00905448105186224,-0.5234304666519165,0.21339216828346252
1789799648488914400,6.36691455078125,-0.03573722392320633,-0.5158737301826477,0.257929265499115
1789799648498886700,6.37688671875,-0.1399744153022766,-0.17159998416900635,0.2813408672809601
1789799648508857600,6.386857666015625,-0.2780632972717285,-0.11122319102287292,0.23475632071495056
1789799648518829600,6.39682958984375,-0.4287596046924591,-0.2644268572330475,0.17720434069633484
1789799648528800500,6.406800537109375,-0.5253309011459351,-0.24509070813655853,0.16943269968032837
1789799648538771700,6.416771728515625,-0.6150546669960022,-0.08468612283468246,0.21591125428676605
1789799648548743400,6.426743408203125,-0.6286823153495789,-0.39831462502479553,0.2062319964170456
1789799648558714600,6.436714599609375,-0.6105791926383972,-0.5630699992179871,0.16322088241577148
1789799648568686600,6.4466865234375,-0.6664872169494629,-0.23832868039608002,0.09203086048364639
1789799648578657500,6.456657470703125,-0.8052663803100586,0.35451841354370117,-0.018101505935192108
1789799648588629500,6.46662939453125,-0.9752607941627502,0.4108266830444336,-0.19294121861457825
1789799648598600700,6.4766005859375,-1.2572221755981445,0.3386174738407135,-0.3223210573196411
1789799648608572400,6.486572509765625,-1.4742625951766968,0.12934494018554688,-0.29660528898239136
1789799648618543600,6.496543701171875,-1.5187008380889893,-0.13205470144748688,-0.14196938276290894
1789799648628515600,6.506515625,-1.3899567127227783,-0.0928010419011116,-0.09652840346097946
1789799648638486500,6.516486572265625,-1.2163370847702026,0.037458427250385284,-0.2456856667995453
1789799648648458500,6.52645849609375,-1.1287046670913696,-0.10171250998973846,-0.38181793689727783
1789799648658429700,6.5364296875,-1.0790550708770752,-0.19840523600578308,-0.4261462390422821
1789799648668400600,6.546400634765625,-1.034026861190796,-0.37535232305526733,-0.4533136785030365
1789799648678372600,6.55637255859375,-1.0408765077590942,-0.4515101909637451,-0.48769456148147583
1789799648688343600,6.566343505859375,-1.0583088397979736,-0.2074381411075592,-0.456521213054657
1789799648698315500,6.5763154296875,-1.0378857851028442,0.16252313554286957,-0.3478378653526306
1789799648708286500,6.586286376953125,-0.9290919303894043,0.24184538424015045,-0.29152852296829224
1789799648718258700,6.5962587890625,-0.9489391446113586,0.0689830631017685,-0.3114180564880371
1789799648728229600,6.606229736328125,-1.05755615234375,-0.05973949655890465,-0.3177017867565155
1789799648738201600,6.61620166015625,-1.1405450105667114,-0.19143706560134888,-0.3186216652393341
1789799648748172500,6.626172607421875,-1.1399445533752441,-0.5226325988769531,-0.32679516077041626
1789799648758144500,6.63614453125,-1.221618890762329,-0.8567162752151489,-0.28942036628723145
1789799648768115500,6.646115478515625,-1.5278598070144653,-0.9544236660003662,-0.17067453265190125
1789799648778087700,6.656087646484375,-1.8300726413726807,-0.7323544025421143,-0.05090552568435669
1789799648788058600,6.66605859375,-1.827132225036621,-0.3645779490470886,-0.049917757511138916
1789799648798030600,6.676030517578125,-1.738142728805542,-0.3368808329105377,-0.14176858961582184
1789799648808001500,6.68600146484375,-1.7655612230300903,-0.5431732535362244,-0.2026234120130539
1789799648817972700,6.69597265625,-1.8683360815048218,-0.8074408769607544,-0.18466198444366455
1789799648827944400,6.7059443359375,-1.9353675842285156,-1.019460678100586,-0.10381348431110382
1789799648837915600,6.71591552734375,-2.0408456325531006,-1.0738070011138916,0.01255067903548479
1789799648847887600,6.7258876953125,-2.101530075073242,-1.1191174983978271,0.10060277581214905
1789799648857858600,6.735858642578125,-2.000272512435913,-1.0507395267486572,0.051355067640542984
1789799648867830500,6.74583056640625,-1.8274760246276855,-0.7639613151550293,-0.033618681132793427
1789799648877801700,6.7558017578125,-1.5990287065505981,-0.6824834942817688,-0.08854956924915314
1789799648887773400,6.7657734375,-1.5339394807815552,-0.9420154690742493,0.05747128278017044
1789799648897744600,6.77574462890625,-1.6210099458694458,-1.1187183856964111,0.2894422113895416
1789799648907716600,6.785716552734375,-1.7585185766220093,-0.8525398969650269,0.34583064913749695
1789799648917687600,6.7956875,-1.6570361852645874,-0.4565374553203583,0.24544811248779297
1789799648927659500,6.805659423828125,-1.2890037298202515,-0.28378671407699585,0.16132737696170807
1789799648937630700,6.815630615234375,-1.0481823682785034,-0.28598088026046753,0.15387611091136932
1789799648947601700,6.8256015625,-0.8730036616325378,-0.30915677547454834,0.1863240748643875
1789799648957573600,6.83557373046875,-0.7327048778533936,-0.25871437788009644,0.23613131046295166
1789799648967544600,6.845544677734375,-0.6627990007400513,-0.00452817277982831,0.279328852891922
1789799648977516500,6.8555166015625,-0.6354541778564453,0.06199679151177406,0.3447352945804596
1789799648987487500,6.865487548828125,-0.5071806311607361,0.24264007806777954,0.3364299535751343
1789799648997459700,6.875459716796875,-0.21446329355239868,0.2585649788379669,0.20864881575107574
1789799649007430700,6.8854306640625,-0.06915057450532913,0.17165938019752502,0.15714408457279205
1789799649017402600,6.895402587890625,0.013485714793205261,0.007738080807030201,0.15957660973072052
1789799649027373600,6.90537353515625,0.03843873366713524,-0.14343012869358063,0.14967738091945648
1789799649037345500,6.915345458984375,0.12828074395656586,-0.02882019616663456,0.14614468812942505
1789799649047316500,6.92531640625,0.25764697790145874,0.08470902591943741,0.1658954918384552
1789799649057288700,6.935288818359375,0.3217817544937134,0.07220228761434555,0.21192556619644165
1789799649067259600,6.945259765625,0.37259674072265625,0.04697496443986893,0.2762742042541504
1789799649077230300,6.955230224609375,0.49409735202789307,0.08974239975214005,0.16502010822296143
1789799649087202600,6.96520263671875,0.6748966574668884,0.0632985457777977,-0.03309723362326622
1789799649097173500,6.975173583984375,0.8150023818016052,0.039143938571214676,-0.11210762709379196
1789799649107145500,6.9851455078125,0.9250847101211548,0.06941795349121094,-0.07880187034606934
1789799649117116400,6.995116455078125,1.0265644788742065,0.1687927395105362,-0.04236263781785965
1789799649127088600,7.005088623046875,1.1330757141113281,0.2677036225795746,-0.04146355390548706
1789799649137059300,7.015059326171875,1.2594666481018066,0.35481321811676025,-0.06810741126537323
1789799649147031600,7.025031494140625,1.3889050483703613,0.436235636472702,-0.08698949217796326
1789799649157002500,7.03500244140625,1.4698305130004883,0.583087146282196,-0.10246512293815613
1789799649166974500,7.044974365234375,1.5537009239196777,0.7201166152954102,-0.16706222295761108
1789799649176945400,7.0549453125,1.6763213872909546,0.696732223033905,-0.19108234345912933
1789799649186917600,7.064917724609375,1.7436327934265137,0.7081459760665894,-0.1773766428232193
1789799649196888300,7.074888427734375,1.8168684244155884,0.768242597579956,-0.16675223410129547
1789799649206859500,7.084859619140625,1.8827587366104126,0.8819494843482971,-0.16285869479179382
1789799649216831500,7.09483154296875,1.9581573009490967,0.9268996119499207,-0.16090473532676697
1789799649226802700,7.104802734375,2.000126600265503,0.8401343822479248,-0.15858592092990875
1789799649236774400,7.1147744140625,2.0515007972717285,0.6382654309272766,-0.15495336055755615
1789799649246745600,7.12474560546875,2.1550533771514893,0.48954492807388306,-0.15650704503059387
1789799649256717600,7.134717529296875,2.214953660964966,0.39571937918663025,-0.17546290159225464
1789799649266688500,7.1446884765625,2.2078874111175537,0.37942934036254883,-0.19416441023349762
1789799649276660500,7.154660400390625,2.231161117553711,0.45910367369651794,-0.22631941735744476
1789799649286631700,7.164631591796875,2.2824454307556152,0.30491408705711365,-0.24171115458011627
1789799649296603400,7.174603271484375,2.2056403160095215,-0.008054197765886784,-0.20957772433757782
1789799649306574600,7.18457470703125,2.039243221282959,-0.07877577096223831,-0.13653521239757538
1789799649316546600,7.194546630859375,1.9002892971038818,-0.03574255108833313,-0.02678740583360195
1789799649326517500,7.204517578125,1.7866308689117432,-0.08342351764440536,0.050031207501888275
1789799649336488400,7.214488525390625,1.6954131126403809,-0.18391071259975433,0.018674351274967194
1789799649346460700,7.224460693359375,1.6328774690628052,-0.3067255914211273,-0.029201028868556023
1789799649356431400,7.234431396484375,1.6014559268951416,-0.44962069392204285,-0.02841086871922016
1789799649366403600,7.244403564453125,1.572055697441101,-0.5235561728477478,-0.014944860711693764
1789799649376374500,7.25437451171875,1.5570749044418335,-0.5551620125770569,-0.016467124223709106
1789799649386346500,7.264346435546875,1.5539385080337524,-0.5875657796859741,-0.006539658177644014
1789799649396317400,7.2743173828125,1.5206551551818848,-0.5149767994880676,0.05029113218188286
1789799649406289700,7.28428955078125,1.4356746673583984,-0.3579008877277374,0.10981278121471405
1789799649416260600,7.294260498046875,1.3603965044021606,-0.2626188397407532,0.06450735032558441
1789799649426232600,7.304232666015625,1.1961334943771362,-0.2112632393836975,-0.009869941510260105
1789799649436203500,7.31420361328125,0.9369043111801147,-0.056822270154953,-0.06924671679735184
1789799649446174700,7.3241748046875,0.703682005405426,0.2382543832063675,-0.0944114550948143
1789799649456146400,7.334146484375,0.5120142698287964,0.3522999882698059,-0.0474197119474411
1789799649466117600,7.34411767578125,0.3526046574115753,0.2114826887845993,0.04219698905944824
1789799649476089600,7.354089599609375,0.20880940556526184,0.07531552761793137,0.11829815059900284
1789799649486060500,7.364060546875,0.06107134371995926,-0.21072421967983246,0.16765904426574707
1789799649496032500,7.374032470703125,-0.11045673489570618,-0.8137272596359253,0.1743832528591156
1789799649506003700,7.384003662109375,-0.3479028344154358,-1.2731220722198486,0.21914753317832947
1789799649515975400,7.393975341796875,-0.5881319642066956,-1.062032699584961,0.3129158318042755
1789799649525946600,7.403946533203125,-0.7731891870498657,-0.6622802019119263,0.30938953161239624
1789799649535918600,7.413918701171875,-0.8799899220466614,-0.3711192309856415,0.2609351873397827
1789799649545889500,7.4238896484375,-0.9065200686454773,-0.1975996345281601,0.2684634029865265
1789799649555861500,7.433861572265625,-0.8554456830024719,-0.23833826184272766,0.3178759813308716
1789799649565832700,7.443832763671875,-0.7795048356056213,-0.2170175313949585,0.3668224811553955
1789799649575803400,7.453803466796875,-0.7148600816726685,-0.2473789006471634,0.361409068107605
1789799649585775600,7.463775634765625,-0.6546614766120911,-0.3803926110267639,0.35848546028137207
1789799649595746600,7.47374658203125,-0.5993217825889587,-0.31841152906417847,0.3872337341308594
1789799649605718500,7.483718505859375,-0.517120897769928,-0.2233918160200119,0.4239049255847931
1789799649615689500,7.493689453125,-0.46086108684539795,-0.20703653991222382,0.4299977123737335
1789799649625661700,7.50366162109375,-0.46477246284484863,-0.13701723515987396,0.4636651277542114
1789799649635632600,7.513632568359375,-0.5705689191818237,0.07177192717790604,0.5162748098373413
1789799649645604000,7.52360400390625,-0.6301936507225037,0.21681885421276093,0.4784637987613678
1789799649655575300,7.5335751953125,-0.6504824161529541,0.1105177253484726,0.3924737870693207
1789799649665547000,7.543547119140625,-0.7107574939727783,-0.19225972890853882,0.3610934913158417
1789799649675518200,7.553518310546875,-0.8420148491859436,-0.5272805690765381,0.41708219051361084
1789799649685489200,7.5634892578125,-1.06135892868042,-0.5296167135238647,0.4642616808414459
1789799649695461400,7.57346142578125,-1.2957487106323242,-0.2005690485239029,0.4536750912666321
1789799649705432000,7.58343212890625,-1.3727282285690308,0.25048255920410156,0.4170536994934082
1789799649715404300,7.593404296875,-1.3850922584533691,0.22675244510173798,0.3312157392501831
1789799649725375200,7.603375244140625,-1.4978302717208862,-0.28256699442863464,0.17518725991249084
1789799649735347200,7.61334716796875,-1.6254225969314575,-0.7206018567085266,0.035903673619031906
1789799649745318100,7.623318115234375,-1.6114665269851685,-0.8009377121925354,0.008896023035049438
1789799649755290400,7.633290283203125,-1.5207000970840454,-0.6528803110122681,0.11913837492465973
1789799649765261000,7.643260986328125,-1.469926118850708,-0.6284269094467163,0.25931811332702637
1789799649775233300,7.6532333984375,-1.4090300798416138,-0.5174066424369812,0.2802886366844177
1789799649785204200,7.663204345703125,-1.3265490531921387,-0.29555895924568176,0.22429515421390533
1789799649795176200,7.67317626953125,-1.3909789323806763,-0.12621305882930756,0.14321307837963104
1789799649805147100,7.683147216796875,-1.482229471206665,-0.02973153069615364,0.08075077086687088
1789799649815118000,7.6931181640625,-1.593658447265625,-0.11479848623275757,0.010467554442584515
1789799649825090000,7.703090087890625,-1.7213817834854126,-0.511879026889801,-0.0659816786646843
1789799649835061000,7.71306103515625,-1.8572163581848145,-0.9349160194396973,-0.11653247475624084
1789799649845033200,7.723033203125,-1.9891687631607056,-0.9742841720581055,-0.10941863805055618
1789799649855004200,7.733004150390625,-2.099698781967163,-0.6318381428718567,-0.10806308686733246
1789799649864976100,7.74297607421875,-2.0961453914642334,-0.2535180151462555,-0.1371123194694519
1789799649874947000,7.752947021484375,-2.008429765701294,-0.07637573033571243,-0.158440500497818
1789799649884919000,7.7629189453125,-1.9603874683380127,0.04284493625164032,-0.18162626028060913
1789799649894890000,7.772889892578125,-1.9615381956100464,0.015565644018352032,-0.13789021968841553
1789799649904862200,7.7828623046875,-1.972305178642273,-0.24155989289283752,-0.02287096157670021
1789799649914833200,7.792833251953125,-1.8473509550094604,-0.5735804438591003,0.0028567728586494923
1789799649924804000,7.80280419921875,-1.6827210187911987,-0.6464884877204895,-0.07208032160997391
1789799649934776000,7.812776123046875,-1.5812710523605347,-0.7447564601898193,-0.14194169640541077
1789799649944747300,7.822747314453125,-1.4842877388000488,-0.9336472749710083,-0.08926276862621307
1789799649954719000,7.832718994140625,-1.4229199886322021,-1.0271292924880981,0.06612682342529297
1789799649964690200,7.842690185546875,-1.4195284843444824,-0.9155769348144531,0.14944754540920258
1789799649974662100,7.852662109375,-1.2967597246170044,-0.6788948774337769,0.10639594495296478
1789799649984633000,7.862633056640625,-0.9589853882789612,-0.40257728099823,0.05453594774007797
1789799649994605000,7.87260498046875,-0.6660046577453613,-0.19925184547901154,0.0998818576335907
1789799650004576300,7.882576171875,-0.5294630527496338,-0.17905816435813904,0.17988188564777374
1789799650014548000,7.8925478515625,-0.44486135244369507,-0.2747926712036133,0.26406627893447876
1789799650024519200,7.902519287109375,-0.3800986111164093,-0.3919254243373871,0.33254626393318176
1789799650034490000,7.912489990234375,-0.34506845474243164,-0.23388519883155823,0.3212648332118988
1789799650044462000,7.922462158203125,-0.27465951442718506,0.1241949200630188,0.24410827457904816
1789799650054433000,7.93243310546875,-0.16257639229297638,0.4159279763698578,0.21442654728889465
1789799650064405200,7.9424052734375,-0.09610629081726074,0.33374786376953125,0.26399195194244385
1789799650074376200,7.952376220703125,-0.05004772171378136,0.2922273278236389,0.34119248390197754
1789799650084348200,7.96234814453125,0.05914321541786194,0.5211066007614136,0.347027450799942
1789799650094319000,7.972319091796875,0.14529673755168915,0.546335756778717,0.3693317174911499
1789799650104291300,7.982291259765625,0.12402820587158203,0.5810604691505432,0.3789542317390442
1789799650114262000,7.992261962890625,0.21406887471675873,0.719985842704773,0.3098404109477997
1789799650124234200,8.002234130859375,0.49384060502052307,0.8311885595321655,0.23115918040275574
1789799650134205200,8.012205078125,0.743585467338562,0.9266538023948669,0.1944293975830078
1789799650144176000,8.022176025390625,0.8694006204605103,0.7304928302764893,0.19026528298854828
1789799650154148000,8.032148193359374,0.9630576372146606,0.6045939922332764,0.10384730249643326
1789799650164119300,8.042119384765625,1.1473941802978516,0.9098008275032043,-0.04315066710114479
1789799650174091000,8.052091064453125,1.2668046951293945,1.3791611194610596,-0.09880886971950531
1789799650184062200,8.062062255859376,1.293284296989441,1.576251745223999,0.03461256995797157
1789799650194034200,8.0720341796875,1.1984903812408447,1.4780775308609009,0.22382190823554993
1789799650204005000,8.082005126953124,1.2849507331848145,1.1631391048431396,0.25001436471939087
1789799650213977000,8.09197705078125,1.487709403038025,0.8926236629486084,0.006404902320355177
1789799650223948300,8.1019482421875,1.6742534637451172,0.6668142676353455,-0.21861623227596283
1789799650233920000,8.111919921875,1.7472249269485474,0.56725013256073,-0.23794172704219818
1789799650243891200,8.12189111328125,1.779639482498169,0.5870968103408813,-0.17053285241127014
1789799650253862100,8.131862060546876,1.8227699995040894,0.7134736180305481,-0.10707798600196838
1789799650263834000,8.141834228515625,1.881017804145813,0.6283331513404846,-0.009294964373111725
1789799650273805000,8.15180517578125,1.9330294132232666,0.3908021152019501,-0.02694959193468094
1789799650283777300,8.16177734375,1.9978009462356567,0.32774272561073303,-0.1511319875717163
1789799650293748200,8.171748291015625,2.0616824626922607,0.44191402196884155,-0.28053417801856995
1789799650303720200,8.18172021484375,2.125127077102661,0.6037575006484985,-0.3686342239379883
1789799650313691100,8.191691162109375,2.223456621170044,0.7994404435157776,-0.384640097618103
1789799650323663400,8.201663330078125,2.3484644889831543,0.9475899934768677,-0.34057381749153137
1789799650333634000,8.211634033203126,2.367696762084961,0.9315654635429382,-0.26423802971839905
1789799650343606300,8.221606201171875,2.296626329421997,0.7398924827575684,-0.21134819090366364
1789799650353577200,8.2315771484375,2.2752602100372314,0.630834698677063,-0.19535058736801147
1789799650363548200,8.241548095703125,2.330389976501465,0.7001245617866516,-0.2569020986557007
1789799650373520100,8.25152001953125,2.2724409103393555,0.6646555066108704,-0.31130462884902954
1789799650383491300,8.2614912109375,2.0527400970458984,0.5574366450309753,-0.276638001203537
1789799650393463000,8.271463134765625,1.7937895059585571,0.49279770255088806,-0.22739747166633606
1789799650403434200,8.281434326171874,1.6672840118408203,0.4297087490558624,-0.23879127204418182
1789799650413406200,8.29140625,1.6115118265151978,0.34027689695358276,-0.31715771555900574
1789799650423377200,8.301377197265625,1.4579198360443115,0.006352970842272043,-0.3667159378528595
1789799650433349000,8.31134912109375,1.3002843856811523,-0.3582761287689209,-0.26861894130706787
1789799650443320300,8.3213203125,1.205488920211792,-0.33118513226509094,-0.27708005905151367
1789799650453292000,8.3312919921875,1.0906624794006348,-0.1671176254749298,-0.4369299113750458
1789799650463263200,8.34126318359375,0.9018976092338562,-0.1889083981513977,-0.47890639305114746
1789799650473234200,8.351234130859375,0.6908769607543945,-0.3384110629558563,-0.30063706636428833
1789799650483206400,8.361206298828124,0.528032660484314,-0.443220317363739,-0.06725946068763733
1789799650493177000,8.371177001953125,0.3909134268760681,-0.34178104996681213,0.059171710163354874
1789799650503149300,8.3811494140625,0.2987462282180786,-0.18655362725257874,0.06376565992832184
1789799650513120300,8.391120361328126,0.2574000954627991,-0.301517516374588,0.009214537218213081
1789799650523092200,8.40109228515625,0.1858268529176712,-0.40233972668647766,-0.05614769086241722
1789799650533063200,8.411063232421874,0.1494121253490448,-0.2926845848560333,-0.11706909537315369
1789799650543035400,8.421035400390625,0.21655121445655823,-0.4081653952598572,-0.16350504755973816
1789799650553006000,8.431006103515625,0.24622122943401337,-0.5039257407188416,-0.1802685707807541
1789799650562978300,8.440978271484376,0.20919395983219147,-0.4368468225002289,-0.14435264468193054
1789799650572949200,8.45094921875,0.10993661731481552,-0.04887699335813522,-0.12198076397180557
1789799650582920200,8.460920166015624,0.025767149403691292,0.3508762717247009,-0.09724240005016327
1789799650592892200,8.47089208984375,-0.01227291114628315,0.402273952960968,-0.028558406978845596
1789799650602863000,8.480863037109375,-0.007289338391274214,0.1121893897652626,0.14900065958499908
1789799650612835000,8.4908349609375,-0.041436124593019485,0.014724617823958397,0.36599236726760864
1789799650622806000,8.500805908203125,-0.11085115373134613,0.2740166485309601,0.4885270595550537
1789799650632778200,8.5107783203125,-0.18217459321022034,0.37045130133628845,0.4819954037666321
1789799650642749000,8.5207490234375,-0.3507806658744812,0.605808436870575,0.45994123816490173
1789799650652720600,8.530720703125,-0.5276401042938232,0.7382625937461853,0.455400288105011
1789799650662691800,8.54069189453125,-0.6286277174949646,0.44525468349456787,0.40840932726860046
1789799650672663800,8.550663818359375,-0.7826740145683289,0.0477861650288105,0.3183628022670746
1789799650682634800,8.560634765625,-0.9434139132499695,0.17163647711277008,0.20861020684242249
1789799650692605700,8.570605712890625,-1.051645278930664,0.23640401661396027,0.0953182652592659
1789799650702578000,8.580577880859375,-1.1454359292984009,-0.13287842273712158,0.01329982653260231
1789799650712548600,8.590548583984376,-1.2785253524780273,-0.6464823484420776,-0.08682277798652649
1789799650722520800,8.600520751953125,-1.4342930316925049,-0.7712218761444092,-0.23024225234985352
1789799650732491800,8.61049169921875,-1.4887113571166992,-0.47287142276763916,-0.3441656231880188
1789799650742463700,8.620463623046875,-1.3588521480560303,0.03566372022032738,-0.4122709035873413
1789799650752434700,8.6304345703125,-1.301584005355835,0.09444660693407059,-0.5593045949935913
1789799650762407000,8.640406982421876,-1.3421481847763062,-0.15634512901306152,-0.7417015433311462
1789799650772377900,8.6503779296875,-1.3640292882919312,-0.4271675646305084,-0.8120065927505493
1789799650782348800,8.660348876953124,-1.3816993236541748,-0.6263978481292725,-0.7626283764839172
1789799650792320800,8.67032080078125,-1.4145641326904297,-0.4984196424484253,-0.6756375432014465
1789799650802292000,8.6802919921875,-1.4643031358718872,-0.18985915184020996,-0.7110688090324402
1789799650812263700,8.690263671875,-1.5152806043624878,0.14122317731380463,-0.8082733750343323
1789799650822235000,8.70023486328125,-1.5340015888214111,0.4048313796520233,-0.791111171245575
1789799650832206800,8.710206787109374,-1.5281274318695068,0.3696640729904175,-0.666632890701294
1789799650842177800,8.720177734375,-1.513096809387207,0.16875919699668884,-0.4844132959842682
1789799650852149800,8.730149658203125,-1.5279159545898438,-0.09881100058555603,-0.3259967565536499
1789799650862121000,8.740120849609376,-1.5817879438400269,-0.3077828586101532,-0.23172084987163544
1789799650872092700,8.7500927734375,-1.691996455192566,-0.4643402397632599,-0.16592638194561005
1789799650882064000,8.76006396484375,-1.80262291431427,-0.502398669719696,-0.135742649435997
1789799650892034800,8.770034912109375,-1.8774685859680176,-0.5293251276016235,-0.1456509381532669
1789799650902006800,8.7800068359375,-1.873396873474121,-0.6292767524719238,-0.147154301404953
1789799650911977700,8.789977783203126,-1.8505358695983887,-0.781991720199585,-0.08246052265167236
1789799650921950000,8.799949951171875,-1.851068139076233,-0.9491053223609924,0.018437329679727554
1789799650931920600,8.809920654296874,-1.8934789896011353,-0.8898451924324036,0.06949704885482788
1789799650941892900,8.819892822265626,-1.9228869676589966,-0.6484373807907104,0.06518113613128662
1789799650951863800,8.82986376953125,-1.8676695823669434,-0.35781165957450867,0.059184495359659195
1789799650961835800,8.839835693359374,-1.7713650465011597,-0.3136167824268341,0.05071031674742699
1789799650971806700,8.849806640625,-1.6719205379486084,-0.5449682474136353,0.08057740330696106
1789799650981778000,8.85977783203125,-1.6098710298538208,-0.8546086549758911,0.15367451310157776
1789799650991750000,8.86975,-1.6122572422027588,-1.1062976121902466,0.197404146194458
1789799651001720800,8.879720947265625,-1.6164439916610718,-1.2096126079559326,0.2133365124464035
1789799651011692800,8.88969287109375,-1.5306206941604614,-1.104465365409851,0.1708255410194397
1789799651021664000,8.8996640625,-1.3817288875579834,-0.9244226217269897,0.14642459154129028
1789799651031635700,8.9096357421875,-1.286104679107666,-0.8704643249511719,0.15048804879188538
1789799651041607000,8.91960693359375,-1.1902931928634644,-0.7048370242118835,0.15614938735961914
1789799651051579000,8.929578857421875,-1.1093426942825317,-0.44670772552490234,0.15280099213123322
1789799651061549800,8.9395498046875,-0.9577081203460693,-0.15477466583251953,0.10429471731185913
1789799651071521800,8.949521728515625,-0.7169352173805237,0.2529217302799225,0.08813731372356415
1789799651081493000,8.959492919921875,-0.4336302578449249,0.4577995240688324,0.09795186668634415
1789799651091463700,8.969463623046876,-0.23964987695217133,0.4647226631641388,0.11853357404470444
1789799651101436000,8.979435791015625,-0.13157373666763306,0.35815680027008057,0.24104644358158112
1789799651111406800,8.98940673828125,-0.07944502681493759,0.43780744075775146,0.32589420676231384
1789799651121378800,8.99937890625,-0.054792676120996475,0.5134412050247192,0.3117016851902008
1789799651131349800,9.009349853515625,-0.05733279883861542,0.6856489181518555,0.32733097672462463
1789799651141322000,9.019322021484374,0.17415554821491241,0.5857276320457458,0.3008032441139221
1789799651151293000,9.02929296875,0.2901538014411926,0.485253244638443,0.24557115137577057
1789799651161265000,9.039264892578124,0.3698997497558594,0.4024755358695984,0.20567113161087036
1789799651171235800,9.04923583984375,0.4423971176147461,0.47292813658714294,0.23052828013896942
1789799651181206800,9.059206787109375,0.614470899105072,0.668339192867279,0.20972339808940887
1789799651191178800,9.0691787109375,0.7525193095207214,0.7721446752548218,0.17212435603141785
1789799651201149700,9.079149658203125,0.8245471715927124,0.6708089709281921,0.16873522102832794
1789799651211122000,9.089121826171874,0.9810661673545837,0.5290675759315491,0.0735597014427185
1789799651221092600,9.099092529296875,1.1750441789627075,0.3999021351337433,-0.07689744234085083
1789799651231064800,9.10906494140625,1.2934964895248413,0.48112934827804565,-0.14961479604244232
1789799651241035800,9.119035888671876,1.397452712059021,0.5904228091239929,-0.1619982272386551
1789799651251007700,9.1290078125,1.451310157775879,0.5988956689834595,-0.12961019575595856
1789799651260978700,9.138978759765624,1.445860743522644,0.44622117280960083,-0.07835099846124649
1789799651270950000,9.148949951171875,1.4606444835662842,0.41392260789871216,-0.08267676830291748
1789799651280921600,9.158921630859375,1.5990556478500366,0.7924832105636597,-0.14731888473033905
1789799651290892800,9.168892822265626,1.8244799375534058,0.9558178186416626,-0.18718719482421875
1789799651300864800,9.17886474609375,1.8552703857421875,0.7584866285324097,-0.14588795602321625
1789799651310835700,9.188835693359374,1.8173656463623047,0.51742023229599,-0.16282592713832855
1789799651320807700,9.1988076171875,1.9449228048324585,0.740898847579956,-0.3068835139274597
1789799651330779000,9.20877880859375,2.1192548274993896,1.1559271812438965,-0.42278987169265747
1789799651340750600,9.21875048828125,2.1463725566864014,1.3196204900741577,-0.4707217216491699
1789799651350721800,9.2287216796875,2.069563865661621,1.0762755870819092,-0.470272421836853
1789799651360692700,9.238692626953124,2.0561842918395996,0.6780911684036255,-0.4582221508026123
1789799651370665000,9.2486650390625,2.1365277767181396,0.6797140836715698,-0.4617609679698944
1789799651380635600,9.2586357421875,2.140861988067627,0.9036779403686523,-0.5087902545928955
1789799651390608000,9.26860791015625,1.9930064678192139,0.9046305418014526,-0.5222264528274536
1789799651400578800,9.278578857421875,1.88668954372406,0.6071362495422363,-0.4330233335494995
1789799651410550800,9.28855078125,1.9755581617355347,0.29387715458869934,-0.3610263764858246
1789799651420521700,9.298521728515626,2.0817646980285645,0.13718688488006592,-0.38256654143333435
1789799651430494000,9.308493896484375,2.07389760017395,0.051962800323963165,-0.35465237498283386
1789799651440464600,9.318464599609374,2.009546995162964,-0.013525662012398243,-0.31907251477241516
1789799651450435800,9.328435791015625,1.9878809452056885,-0.16023601591587067,-0.37669986486434937
1789799651460407800,9.33840771484375,1.995410442352295,-0.287321001291275,-0.43348032236099243
1789799651470378800,9.348378662109376,1.9528321027755737,-0.2408466935157776,-0.39383599162101746
1789799651480350700,9.358350830078125,1.89933180809021,-0.26517894864082336,-0.3060688376426697
1789799651490322000,9.368322021484374,1.8078826665878296,-0.4026992619037628,-0.22519023716449738
1789799651500293600,9.378293701171875,1.615153431892395,-0.4620499312877655,-0.11147326231002808
1789799651510264800,9.388264892578125,1.4132634401321411,-0.46043792366981506,-0.019906597211956978
1789799651520236800,9.39823681640625,1.243744134902954,-0.44058752059936523,0.008809204213321209
1789799651530208000,9.4082080078125,1.064939022064209,-0.4717520773410797,0.0034493261482566595
1789799651540178700,9.4181787109375,0.8645614385604858,-0.4206303060054779,-0.022307436913251877
1789799651550151000,9.42815087890625,0.6922407746315002,-0.44029295444488525,-0.08032146841287613
1789799651560121900,9.438121826171875,0.4608331322669983,-0.432726114988327,-0.10218442231416702
1789799651570093800,9.44809375,0.16049353778362274,-0.25139495730400085,-0.01607430726289749
1789799651580064800,9.458064697265625,-0.02954271249473095,0.030248982831835747,0.12310515344142914
1789799651590037000,9.468037109375,-0.15072879195213318,0.030520625412464142,0.2357318252325058
1789799651600007700,9.478007568359375,-0.26538053154945374,-0.3740854561328888,0.28751033544540405
1789799651609980000,9.48797998046875,-0.3010607659816742,-0.7915481925010681,0.3223561942577362
1789799651619950800,9.497950927734376,-0.16435378789901733,-1.4320653676986694,0.36633139848709106
1789799651629921800,9.507921875,0.05632532387971878,-2.100940704345703,0.4358936846256256
1789799651639894300,9.517894287109375,0.1646246314048767,-2.0543582439422607,0.5427817702293396
1789799651649865200,9.527865234375,0.188847154378891,-1.2861651182174683,0.5561055541038513
1789799651659837200,9.537837158203125,0.11319739371538162,-0.49215641617774963,0.36835193634033203
1789799651669808000,9.54780810546875,-0.02172500267624855,-0.231660395860672,0.09874468296766281
1789799651679780400,9.5577802734375,-0.1470717340707779,0.14312121272087097,0.006549512036144733
1789799651689751000,9.5677509765625,-0.22943958640098572,0.8524751663208008,0.18462178111076355
1789799651699723300,9.57772314453125,-0.2734784185886383,1.3960977792739868,0.3104175329208374
1789799651709694200,9.587694091796875,-0.21048320829868317,1.3754938840866089,0.3013577163219452
1789799651719665400,9.59766552734375,-0.14557451009750366,0.8148444890975952,0.23428520560264587
1789799651729637000,9.60763720703125,-0.16875866055488586,0.06737770885229111,0.18110880255699158
1789799651739608300,9.6176083984375,-0.38676396012306213,-0.29561647772789,0.1896841824054718
1789799651749580000,9.627580078125,-0.7820625305175781,-0.10245766490697861,0.18056045472621918
1789799651759551200,9.63755126953125,-1.2611370086669922,0.15929511189460754,0.20192059874534607
1789799651769523200,9.647523193359374,-1.5632193088531494,0.3406483829021454,0.2653816044330597
1789799651779494400,9.657494384765625,-1.4736967086791992,-0.05183017626404762,0.32378286123275757
1789799651789466000,9.667466064453125,-1.3532304763793945,-0.49975070357322693,0.28428444266319275
1789799651799437300,9.677437255859376,-1.3369468450546265,-0.5576443672180176,0.07674723863601685
1789799651809408300,9.687408203125,-1.296724796295166,-0.4573366641998291,-0.14046017825603485
1789799651819380200,9.697380126953124,-1.1741362810134888,-0.40706709027290344,-0.2200644612312317
1789799651829351200,9.70735107421875,-1.046775460243225,-0.32775309681892395,-0.14517530798912048
1789799651839323400,9.717323486328125,-0.9514073729515076,-0.10741620510816574,0.016563797369599342
1789799651849294000,9.727294189453126,-0.8759445548057556,0.12895531952381134,0.13281503319740295
1789799651859266300,9.737266357421875,-0.7758829593658447,0.12617364525794983,0.1706063598394394
1789799651869237200,9.7472373046875,-0.6850824952125549,0.07279804348945618,0.11994317919015884
1789799651879209200,9.757209228515626,-0.8845723867416382,0.13416552543640137,-0.00643712654709816
1789799651889180200,9.76718017578125,-1.1649430990219116,-0.3365122377872467,-0.08351859450340271
1789799651899151000,9.777151123046876,-1.4183197021484375,-1.0119189023971558,-0.148071750998497
1789799651909123000,9.787123046875,-1.8396629095077515,-0.9598828554153442,-0.1818361133337021
1789799651919094000,9.797093994140624,-2.4834253787994385,-0.16281767189502716,-0.0834173932671547
1789799651929066200,9.807066162109376,-2.8907129764556885,0.5804418325424194,0.06088731810450554
1789799651939037200,9.817037109375,-2.781583309173584,0.6353902816772461,0.03781316056847572
1789799651949009200,9.827009033203124,-2.373985528945923,0.019342271611094475,-0.1626557558774948
1789799651958980000,9.83697998046875,-2.116596221923828,-0.27828460931777954,-0.15814143419265747
1789799651968951300,9.846951416015624,-2.0697619915008545,0.23220127820968628,-0.08673755824565887
1789799651978923000,9.856923095703126,-2.2096290588378906,-0.008015315979719162,-0.1466488242149353
1789799651988894200,9.866894287109375,-2.3541014194488525,-0.9112035036087036,-0.14488501846790314
1789799651998866200,9.8768662109375,-2.4128878116607666,-1.4854209423065186,-0.05416736379265785
1789799652008837000,9.886837158203125,-2.273038864135742,-1.4021154642105103,-0.007866178639233112
1789799652018809000,9.89680908203125,-1.9947313070297241,-1.146748423576355,-0.04115409404039383
1789799652028780300,9.9067802734375,-1.8126413822174072,-1.0216703414916992,-0.0941440761089325
1789799652038752000,9.916751953125,-1.7348697185516357,-1.1552842855453491,-0.04862399399280548
1789799652048723200,9.92672314453125,-1.6800397634506226,-1.3427098989486694,0.13397803902626038
1789799652058694100,9.936694091796875,-1.656182050704956,-1.2246825695037842,0.23519361019134521
1789799652068666000,9.946666015625,-1.5868232250213623,-0.8785651326179504,0.17121435701847076
1789799652078637000,9.956636962890625,-1.3655025959014893,-0.5137408375740051,0.0683383122086525
1789799652088609300,9.966609375,-1.1180528402328491,-0.3993404805660248,0.04129044711589813
1789799652098580200,9.976580322265624,-0.8477898836135864,-0.5424909591674805,0.10737039893865585
1789799652108552200,9.98655224609375,-0.6268982887268066,-0.8221641778945923,0.21132636070251465
1789799652118523100,9.996523193359375,-0.43664389848709106,-0.7842466235160828,0.25628530979156494
1789799652128495000,10.0064951171875,-0.2540413439273834,-0.5132910013198853,0.23125478625297546
1789799652138466000,10.016466064453125,-0.1499737799167633,-0.20925548672676086,0.14919933676719666
1789799652148437200,10.026437255859374,-0.016320649534463882,0.054661381989717484,0.09936094284057617
1789799652158409200,10.0364091796875,0.09798568487167358,0.048052478581666946,0.1353655457496643
1789799652168380200,10.046380126953125,0.16360411047935486,0.07900853455066681,0.1940070241689682
1789799652178352000,10.05635205078125,0.1644267588853836,0.3785015046596527,0.24829289317131042
1789799652188323300,10.0663232421875,0.10199906677007675,0.6137917637825012,0.29794248938560486
1789799652198295000,10.076294921875,0.04319700598716736,0.7507197856903076,0.38558444380760193
1789799652208266200,10.086266357421875,0.30819058418273926,0.5036522150039673,0.3254188299179077
1789799652218237200,10.0962373046875,0.4227416515350342,0.33278942108154297,0.14838947355747223
1789799652228209200,10.106209228515626,0.5399479269981384,-0.019398732110857964,0.0349436029791832
1789799652238180000,10.11618017578125,0.5989305377006531,-0.11494043469429016,0.06834443658590317
1789799652248152300,10.12615234375,0.6459627747535706,0.13562627136707306,0.1699698567390442
1789799652258123300,10.136123291015625,0.7540314197540283,0.48195624351501465,0.26301059126853943
1789799652268095200,10.14609521484375,0.8792849779129028,0.6795740127563477,0.33705073595046997
1789799652278066200,10.156066162109376,0.9445358514785767,0.7539283633232117,0.3592127561569214
1789799652288038100,10.1660380859375,1.022227168083191,0.8191888928413391,0.2555103302001953
1789799652298009000,10.176009033203124,1.2188282012939453,0.7395041584968567,0.06851674616336823
1789799652307980000,10.18597998046875,1.4352211952209473,0.6722977161407471,-0.08469144999980927
1789799652317952300,10.1959521484375,1.6438984870910645,0.9591667652130127,-0.15670518577098846
1789799652327923000,10.2059228515625,1.8042445182800293,1.2899929285049438,-0.147975355386734
1789799652337895200,10.215895263671875,1.7895570993423462,1.3030329942703247,-0.06019090116024017
1789799652347866000,10.2258662109375,1.7260817289352417,1.0824159383773804,0.01233656145632267
1789799652357838000,10.235838134765626,1.754586935043335,0.9334632754325867,-0.01540691964328289
1789799652367809000,10.24580908203125,1.840355634689331,0.5763751864433289,-0.08268342912197113
1789799652377780200,10.2557802734375,1.9199076890945435,0.1966850906610489,-0.15215811133384705
1789799652387752000,10.265751953125,2.004056930541992,0.29804420471191406,-0.14329804480075836
1789799652397723100,10.27572314453125,2.069070339202881,0.74216228723526,-0.18547958135604858
1789799652407695000,10.285695068359376,2.1289780139923096,1.091631293296814,-0.2690695524215698
1789799652417666300,10.295666259765625,2.235412836074829,0.8908742666244507,-0.26205477118492126
1789799652427638000,10.305637939453124,2.3505141735076904,0.29195302724838257,-0.25353559851646423
1789799652437609200,10.315609130859375,2.373614549636841,0.14604295790195465,-0.28479552268981934
1789799652447580200,10.325580078125,2.273926019668579,0.34067395329475403,-0.2987866997718811
1789799652457552100,10.33555224609375,2.126616954803467,0.5232224464416504,-0.315976083278656
1789799652467523000,10.345523193359375,2.057129383087158,0.4981525242328644,-0.28620511293411255
1789799652477495300,10.355495361328124,2.040642023086548,0.21848946809768677,-0.18518796563148499
1789799652487466000,10.365466064453125,1.998536229133606,-0.09728420525789261,-0.08144985139369965
1789799652497438200,10.375438232421875,1.8850679397583008,-0.3739703893661499,-0.05137850344181061
1789799652507409200,10.3854091796875,1.7541946172714233,-0.41902148723602295,-0.07918350398540497
1789799652517381000,10.395381103515625,1.6438449621200562,-0.20201541483402252,-0.14558276534080505
1789799652527352000,10.40535205078125,1.5688750743865967,-0.01395602896809578,-0.20215655863285065
1789799652537323300,10.4153232421875,1.5405750274658203,-0.0538933239877224,-0.20866718888282776
1789799652547295000,10.425294921875,1.4984318017959595,-0.05385923758149147,-0.15605218708515167
1789799652557266200,10.43526611328125,1.5330036878585815,-0.1974339783191681,-0.10751980543136597
1789799652567238100,10.445238037109375,1.5420563220977783,-0.405121386051178,-0.030107036232948303
1789799652577209300,10.455209228515624,1.4312589168548584,-0.575249433517456,0.04876327887177467
1789799652587181000,10.46518115234375,1.2454125881195068,-0.6545693278312683,0.08141016960144043
1789799652597152300,10.47515234375,1.0360586643218994,-0.6265051960945129,0.12014105170965195
1789799652607123200,10.485123291015626,0.9092508554458618,-0.568002462387085,0.17913459241390228
1789799652617095200,10.49509521484375,0.8024492859840393,-0.5690863728523254,0.22500142455101013
1789799652627066000,10.505066162109374,0.6592612862586975,-0.6060587763786316,0.22400885820388794
1789799652637038300,10.515038330078125,0.45979395508766174,-0.3674539029598236,0.24177826941013336
1789799652647009000,10.525009033203125,0.22097019851207733,-0.06860382854938507,0.25686827301979065
1789799652656981000,10.53498095703125,0.018634138628840446,-0.03063860349357128,0.25081172585487366
1789799652666952200,10.5449521484375,-0.1671178787946701,-0.19386640191078186,0.2678072154521942
1789799652676924000,10.554923828125,-0.33883532881736755,-0.23606818914413452,0.31253179907798767
1789799652686895000,10.56489501953125,-0.4718186557292938,-0.16313832998275757,0.32403531670570374
1789799652696866000,10.574865966796875,-0.524448037147522,-0.15952467918395996,0.3042171597480774
1789799652706838000,10.584838134765626,-0.54932701587677,-0.2629773020744324,0.30726540088653564
1789799652716809000,10.59480908203125,-0.5670911073684692,-0.19788645207881927,0.29946526885032654
1789799652726781200,10.60478125,-0.5655850768089294,-0.1023375540971756,0.2913447618484497
1789799652736752000,10.614752197265625,-0.5184362530708313,-0.11385226994752884,0.26039084792137146
1789799652746724000,10.62472412109375,-0.48394110798835754,-0.1162877306342125,0.2318771779537201
1789799652756695000,10.634695068359376,-0.5371132493019104,0.021383585408329964,0.24655091762542725
1789799652766666000,10.644666015625,-0.6493026614189148,0.25798654556274414,0.2933535873889923
1789799652776638000,10.654637939453124,-0.7555305361747742,0.44680333137512207,0.34881070256233215
1789799652786609000,10.66460888671875,-0.8633052110671997,0.5491344928741455,0.3985463082790375
1789799652796581000,10.6745810546875,-0.9440237283706665,0.3424995541572571,0.41092202067375183
1789799652806551800,10.6845517578125,-1.024970531463623,0.07294877618551254,0.3832975924015045
1789799652816524000,10.69452392578125,-1.1104446649551392,-0.18725937604904175,0.34175094962120056
1789799652826495000,10.704494873046874,-1.2369778156280518,-0.24600817263126373,0.3009340167045593
1789799652836466200,10.714466064453125,-1.3715511560440063,-0.11399288475513458,0.25862783193588257
1789799652846438000,10.72443798828125,-1.4619393348693848,-0.060016464442014694,0.13587526977062225
1789799652856409000,10.7344091796875,-1.5460222959518433,-0.16160540282726288,-0.019990218803286552
1789799652866381000,10.744381103515625,-1.6398118734359741,-0.40027204155921936,-0.09799234569072723
1789799652876352000,10.75435205078125,-1.7620352506637573,-0.4950115978717804,-0.09371796995401382
1789799652886324000,10.764323974609376,-1.8313554525375366,-0.38858848810195923,-0.10266326367855072
1789799652896295200,10.774295166015625,-1.858458161354065,-0.13943299651145935,-0.18477463722229004
1789799652906265900,10.784265869140626,-1.8084834814071655,0.08355055004358292,-0.29253652691841125
1789799652916238000,10.794238037109375,-1.7773311138153076,0.02965403161942959,-0.31978651881217957
1789799652926209000,10.804208984375,-1.8088074922561646,-0.11650264263153076,-0.2992897629737854
1789799652936181000,10.814180908203125,-1.8789138793945312,0.015372032299637794,-0.30288824439048767
1789799652946152000,10.82415185546875,-1.9191503524780273,0.2503659129142761,-0.32163023948669434
1789799652956124200,10.834124267578124,-1.9097250699996948,0.2337658852338791,-0.32813766598701477
1789799652966094800,10.8440947265625,-1.8763008117675781,0.05848994106054306,-0.3051774799823761
1789799652976066000,10.854066162109374,-1.857628345489502,-0.171999990940094,-0.2828599214553833
1789799652986038000,10.8640380859375,-1.8937019109725952,-0.3587490916252136,-0.24138972163200378
1789799652996009200,10.87400927734375,-1.9504437446594238,-0.45017942786216736,-0.19127435982227325
1789799653005981000,10.88398095703125,-1.8813128471374512,-0.4510694444179535,-0.17907947301864624
1789799653015952100,10.8939521484375,-1.7446306943893433,-0.4805130958557129,-0.18677467107772827
1789799653025923800,10.903923828125,-1.6919001340866089,-0.5314431190490723,-0.17776547372341156
1789799653035895000,10.91389501953125,-1.7184048891067505,-0.6889688372612,-0.1712106317281723
1789799653045866000,10.923865966796875,-1.7940493822097778,-0.889363169670105,-0.17607009410858154
1789799653055838200,10.933838134765624,-1.865539789199829,-1.000765085220337,-0.1482272893190384
1789799653065809000,10.943808837890625,-1.968133807182312,-0.9406974911689758,-0.07961200177669525
1789799653075781000,10.953781005859375,-1.9991506338119507,-0.9641018509864807,0.0013688647886738181
1789799653085752000,10.963751953125,-1.8712410926818848,-1.0566520690917969,0.06042712554335594
1789799653095724000,10.97372412109375,-1.6781877279281616,-0.9824654459953308,0.10813978314399719
1789799653105695000,10.983695068359374,-1.558173418045044,-0.8866184949874878,0.1600133627653122
1789799653115666200,10.993666259765625,-1.408925175666809,-0.8692975640296936,0.22983533143997192
1789799653125638000,11.003637939453125,-1.2470952272415161,-0.8822575807571411,0.29713019728660583
1789799653135609000,11.013609130859376,-1.133446455001831,-0.8413756489753723,0.3375642001628876
1789799653145581000,11.0235810546875,-1.0474505424499512,-0.6038837432861328,0.2836410403251648
1789799653155552300,11.03355224609375,-0.9089778661727905,-0.17829516530036926,0.2034527212381363
1789799653165524000,11.04352392578125,-0.5787440538406372,0.11016085743904114,0.12316907197237015
1789799653175495200,11.0534951171875,-0.34339970350265503,0.2382780760526657,0.10270294547080994
1789799653185466000,11.063466064453126,-0.2134222686290741,0.18889960646629333,0.1373719722032547
1789799653195438000,11.07343798828125,-0.11343814432621002,0.2677805721759796,0.18820665776729584
1789799653205409000,11.083408935546874,-0.08268529176712036,0.4273739755153656,0.2246381640434265
1789799653215381200,11.09338134765625,-0.1505413055419922,0.42663758993148804,0.27408722043037415
1789799653225352000,11.10335205078125,-0.21391761302947998,0.33643049001693726,0.3002226650714874
1789799653235324200,11.11332421875,-0.14385437965393066,0.2748134434223175,0.2638894319534302
1789799653245295000,11.123295166015625,0.008220911957323551,0.30114439129829407,0.20043882727622986
1789799653255266000,11.13326611328125,0.20457977056503296,0.3753879964351654,0.1881115883588791
1789799653265238000,11.143238037109375,0.4122040569782257,0.44351086020469666,0.2190694957971573
1789799653275209000,11.153208984375,0.6199687123298645,0.6442461013793945,0.1972811073064804
1789799653285181000,11.163180908203126,0.7995936274528503,1.1012197732925415,0.07194822281599045
1789799653295151900,11.17315185546875,1.0293844938278198,1.4428244829177856,-0.023560985922813416
1789799653305124000,11.1831240234375,1.2071152925491333,1.4742196798324585,-0.0468926727771759
1789799653315095000,11.193094970703125,1.3692264556884766,1.4159566164016724,-0.09292035549879074
1789799653325066000,11.20306591796875,1.5299503803253174,1.1910090446472168,-0.187354177236557
1789799653335038000,11.213037841796876,1.6506115198135376,0.9534420371055603,-0.28194594383239746
1789799653345009200,11.223009033203125,1.7362116575241089,0.9097738862037659,-0.3203764259815216
1789799653354980900,11.23298095703125,1.781628966331482,0.9559512734413147,-0.2840173542499542
1789799653364952000,11.2429521484375,1.7847914695739746,0.9275475740432739,-0.18508543074131012
1789799653374924000,11.252924072265625,1.8211467266082764,0.7353584170341492,-0.09272061288356781
1789799653384895000,11.26289501953125,1.861275553703308,0.4629575312137604,-0.06007292494177818
1789799653394866000,11.272865966796875,1.9128183126449585,0.34326043725013733,-0.10835443437099457
1789799653404838100,11.282838134765624,2.020979881286621,0.48268863558769226,-0.21711048483848572
1789799653414809000,11.29280908203125,2.1875522136688232,0.7809690833091736,-0.33033743500709534
1789799653424781000,11.302781005859375,2.325648784637451,0.8854619264602661,-0.3848736584186554
1789799653434752000,11.312751953125,2.3120501041412354,0.9086756110191345,-0.29219749569892883
1789799653444724000,11.322723876953125,2.248353958129883,0.8552078604698181,-0.12662053108215332
1789799653454695000,11.33269482421875,2.2936995029449463,0.7163719534873962,-0.055274974554777145
1789799653464666000,11.342666015625,2.367650032043457,0.6250311136245728,-0.10861223191022873
1789799653474638000,11.35263818359375,2.3969311714172363,0.5567998886108398,-0.20165908336639404
1789799653484609000,11.362609130859376,2.3906443119049072,0.4222889244556427,-0.23582904040813446
1789799653494581000,11.3725810546875,2.3666694164276123,0.3058379590511322,-0.22789202630519867
1789799653504552200,11.38255224609375,2.363699436187744,0.2777431905269623,-0.2044745832681656
1789799653514524000,11.39252392578125,2.2960023880004883,0.3744039535522461,-0.20520055294036865
1789799653524495000,11.4024951171875,2.1763813495635986,0.27033481001853943,-0.21569527685642242
1789799653534466000,11.412466064453126,2.030886173248291,0.05750936642289162,-0.23216399550437927
1789799653544438000,11.42243798828125,1.8181288242340088,-0.1169029176235199,-0.20969383418560028
1789799653554409000,11.432408935546874,1.603424072265625,-0.1656227856874466,-0.10846229642629623
1789799653564381200,11.442381103515626,1.47761869430542,-0.11308341473340988,-0.03954048454761505
1789799653574352100,11.45235205078125,1.3941829204559326,-0.029829800128936768,-0.11676549911499023
1789799653584322800,11.46232275390625,1.270792007446289,-0.03140346333384514,-0.2553401589393616
1789799653594295000,11.472294921875,1.1283800601959229,-0.12378079444169998,-0.3031047582626343
1789799653604266200,11.482266357421874,1.0282433032989502,-0.27758580446243286,-0.23597924411296844
1789799653614238000,11.492238037109376,0.9370849132537842,-0.39285486936569214,-0.11843743175268173
1789799653624209200,11.502209228515625,0.7570893168449402,-0.2419085055589676,0.0038780951872467995
1789799653634181000,11.51218115234375,0.5193302631378174,0.025664616376161575,0.010864365845918655
1789799653644152000,11.522152099609375,0.3108348250389099,0.06854523718357086,-0.04555843025445938
1789799653654123000,11.532123046875,0.1370827555656433,-0.1729225069284439,-0.07439300417900085
1789799653664095200,11.54209521484375,-0.01335814967751503,-0.4195815622806549,-0.06498964875936508
1789799653674066200,11.552066162109375,-0.13715173304080963,-0.512856125831604,-0.03460431471467018
1789799653684038100,11.5620380859375,-0.26590171456336975,-0.27644118666648865,-0.035115644335746765
1789799653694009000,11.572009033203125,-0.4155721664428711,0.1973056197166443,-0.08535724133253098
1789799653703981000,11.58198095703125,-0.48222631216049194,0.4366268515586853,-0.1599838137626648
1789799653713952000,11.591951904296875,-0.49933338165283203,0.48244708776474,-0.18547984957695007
1789799653723923200,11.601923095703125,-0.45186784863471985,0.3853146731853485,-0.17806774377822876
1789799653733895200,11.611895263671874,-0.36800703406333923,0.08164053410291672,-0.13242408633232117
1789799653743866000,11.6218662109375,-0.294982373714447,-0.13407444953918457,-0.09177891910076141
1789799653753838000,11.631838134765625,-0.2512407600879669,-0.17189745604991913,-0.09550414979457855
1789799653763809300,11.641809326171876,-0.24995285272598267,-0.11959803849458694,-0.09696117043495178
1789799653773780200,11.6517802734375,-0.279253751039505,-0.012114985845983028,-0.09556407481431961
1789799653783752200,11.661752197265624,-0.40888071060180664,0.2746310234069824,-0.08879325538873672
1789799653793723100,11.67172314453125,-0.552907407283783,0.43996432423591614,-0.08848965167999268
1789799653803695000,11.681695068359375,-0.6384987235069275,0.3495531976222992,-0.1183314397931099
1789799653813666000,11.691666015625,-0.7505770325660706,0.13593146204948425,-0.21753951907157898
1789799653823638300,11.70163818359375,-0.8808748722076416,0.1174352839589119,-0.395440012216568
1789799653833609200,11.711609130859374,-0.9666925668716431,0.24820154905319214,-0.5410323739051819
1789799653843580000,11.721579833984375,-1.0465501546859741,0.250936895608902,-0.5668149590492249
1789799653853552000,11.73155224609375,-1.1837517023086548,0.34989994764328003,-0.502109706401825
1789799653863523000,11.741523193359376,-1.2918081283569336,0.2960367202758789,-0.4594626724720001
1789799653873495000,11.7514951171875,-1.3535007238388062,0.2001567929983139,-0.44500967860221863
1789799653883466000,11.761466064453124,-1.3462684154510498,0.26629188656806946,-0.43119773268699646
1789799653893438200,11.771438232421875,-1.2912472486495972,0.24934405088424683,-0.457797110080719
1789799653903409000,11.781408935546875,-1.296423077583313,-0.08740920573472977,-0.5511617064476013
1789799653913380000,11.791380126953126,-1.3109782934188843,-0.39388924837112427,-0.6240527033805847
1789799653923352000,11.80135205078125,-1.3528035879135132,-0.3520438075065613,-0.658932626247406
1789799653933323300,11.8113232421875,-1.433692216873169,-0.05327494069933891,-0.6646773219108582
1789799653943295000,11.821294921875,-1.4461138248443604,0.2019677460193634,-0.6192352771759033
1789799653953266200,11.83126611328125,-1.3512077331542969,0.29991668462753296,-0.5494593977928162
1789799653963238000,11.84123779296875,-1.2620587348937988,0.18493495881557465,-0.497355192899704
1789799653973209000,11.851208984375,-1.3105015754699707,-0.11176834255456924,-0.477816104888916
1789799653983180000,11.861179931640624,-1.4207417964935303,-0.4200177788734436,-0.4624826908111572
1789799653993152300,11.87115234375,-1.524243712425232,-0.6109675168991089,-0.4393627345561981
1789799654003123000,11.881123046875,-1.640633463859558,-0.6714316606521606,-0.4329884350299835
1789799654013095200,11.89109521484375,-1.8003450632095337,-0.6570550799369812,-0.4093686044216156
1789799654023066000,11.901066162109375,-1.9686243534088135,-0.5856791734695435,-0.37210750579833984
1789799654033037300,11.911037353515624,-2.1010842323303223,-0.5318122506141663,-0.3345654606819153
1789799654043009000,11.921009033203125,-2.2105958461761475,-0.42650657892227173,-0.28215205669403076
1789799654052980200,11.930980224609375,-2.2084014415740967,-0.4035346806049347,-0.24491174519062042
1789799654062952000,11.940951904296876,-2.154024124145508,-0.3928660452365875,-0.14249536395072937
1789799654072923100,11.950923095703125,-2.1787948608398438,-0.46584972739219666,0.028383171185851097
1789799654082895000,11.96089501953125,-2.2631397247314453,-0.7780278325080872,0.1535900980234146
1789799654092866300,11.9708662109375,-2.1593611240386963,-1.0859733819961548,0.20923630893230438
1789799654102837000,11.9808369140625,-1.9858888387680054,-1.2318994998931885,0.22957487404346466
1789799654112809200,11.990809326171876,-1.8916404247283936,-1.2403957843780518,0.2187667042016983
1789799654122780200,12.0007802734375,-1.8674684762954712,-1.1677441596984863,0.2073395997285843
1789799654132752100,12.010752197265624,-1.8403817415237427,-1.199602484703064,0.24764655530452728
1789799654142723000,12.02072314453125,-1.8047983646392822,-1.1836140155792236,0.3359852135181427
1789799654152694000,12.030694091796875,-1.742798924446106,-0.9294692873954773,0.3825492262840271
1789799654162666000,12.040666015625,-1.5545721054077148,-0.6487891674041748,0.34831535816192627
1789799654172637000,12.050636962890625,-1.3017027378082275,-0.47422483563423157,0.27884069085121155
1789799654182609200,12.060609130859374,-1.0800683498382568,-0.25150761008262634,0.27452051639556885
1789799654192580000,12.070580078125,-0.8716214299201965,0.0316639207303524,0.3177548050880432
1789799654202552000,12.080552001953125,-0.7568442821502686,0.24032019078731537,0.3499092757701874
1789799654212523000,12.09052294921875,-0.47959455847740173,0.3236648738384247,0.33147647976875305
1789799654222494200,12.100494140625,-0.2305477261543274,0.3687673807144165,0.32625454664230347
1789799654232466000,12.1104658203125,-0.0746673122048378,0.4049094021320343,0.38895466923713684
1789799654242437000,12.12043701171875,0.04300365969538689,0.32677119970321655,0.44198355078697205
1789799654252409000,12.1304091796875,0.18994463980197906,0.2605378329753876,0.45648258924484253
1789799654262380000,12.140380126953126,0.3498741090297699,0.25161999464035034,0.4432685077190399
1789799654272351000,12.15035107421875,0.5308098196983337,0.3152439594268799,0.4089840352535248
1789799654282323200,12.1603232421875,0.6467995047569275,0.28633323311805725,0.4105531871318817
1789799654292294100,12.170294189453125,0.72954261302948,0.2624601125717163,0.41699403524398804
1789799654302266000,12.18026611328125,0.837795078754425,0.2066573053598404,0.3656517565250397
1789799654312237000,12.190237060546876,0.9819772839546204,0.25605762004852295,0.2600371837615967
1789799654322209000,12.200208984375,1.144604206085205,0.39862409234046936,0.18036311864852905
1789799654332180000,12.210179931640624,1.232528567314148,0.49587979912757874,0.15784688293933868
1789799654342151200,12.220151123046875,1.2884072065353394,0.6567461490631104,0.1271291822195053
1789799654352123100,12.230123046875,1.3850983381271362,0.7851619124412537,0.1035546213388443
1789799654362094000,12.240093994140626,1.4854817390441895,0.9342291951179504,0.09116000682115555
1789799654372066000,12.250066162109375,1.5445271730422974,0.930824875831604,0.07924661785364151
1789799654382037200,12.260037353515624,1.5764381885528564,0.7215515375137329,0.056416139006614685
1789799654392008200,12.27000830078125,1.6643784046173096,0.584219217300415,-0.0029819414485245943
1789799654401980200,12.279980224609375,1.8003946542739868,0.6686481237411499,-0.06644400209188461
1789799654411951000,12.289951171875,1.9485819339752197,0.9472848176956177,-0.12394298613071442
1789799654421923000,12.299923095703125,2.0170929431915283,1.1660996675491333,-0.11758388578891754
1789799654431894000,12.30989404296875,1.9662193059921265,1.1857596635818481,-0.048592571169137955
1789799654441866200,12.3198662109375,1.988537073135376,0.9087541699409485,0.007186274044215679
1789799654451837200,12.329837158203125,2.1302285194396973,0.7082346677780151,-0.019884224981069565
1789799654461808000,12.33980810546875,2.2667880058288574,0.7104709148406982,-0.12387747317552567
1789799654471780000,12.349780029296875,2.3481316566467285,0.8122806549072266,-0.2080884873867035
1789799654481751300,12.359751220703124,2.33075213432312,0.8568885922431946,-0.22618280351161957
1789799654491723000,12.369722900390625,2.2876250743865967,0.8389084935188293,-0.19628961384296417
1789799654501694200,12.379694091796875,2.245100259780884,0.7615482211112976,-0.15480263531208038
1789799654511665200,12.3896650390625,2.236844062805176,0.5399394035339355,-0.11993332952260971
1789799654521637000,12.39963720703125,2.2095210552215576,0.2680647373199463,-0.1255589872598648
1789799654531608000,12.409608154296874,2.1201586723327637,0.07385025173425674,-0.1750386655330658
1789799654541580300,12.419580322265626,1.9932793378829956,0.17134325206279755,-0.23397308588027954
1789799654551551000,12.429551025390625,1.8913471698760986,0.38377854228019714,-0.2924100160598755
