time,seconds_elapsed,z,y,x
1789453363427880200,0.043880126953125,7.951442988586425,5.150077408599853,-1.5466542724609373
1789453363437821200,0.0538212890625,8.027309253692627,5.217863243103027,-1.1982979309082031
1789453363447762200,0.06376220703125,8.061725902557372,5.317521887207031,-0.8173205917358398
1789453363457703200,0.073703125,7.879018388366699,5.342960279846191,-0.6293757614135742
1789453363467643100,0.08364306640625,7.436390356445312,5.379322217559814,-0.5635352157592773
1789453363477584100,0.093584228515625,7.191134323883056,5.628618465423584,-0.5102642288208008
1789453363487525000,0.103525146484375,7.095515895080566,5.674856484985352,-0.6200982299804687
1789453363497466000,0.113466064453125,7.009324635314941,5.26065959777832,-0.891241567993164
1789453363507406300,0.12340625,6.9731123352050774,4.901978261566162,-1.218648645019531
1789453363517347000,0.13334716796875,6.922385187530518,4.759523262786865,-1.518821678161621
1789453363527288300,0.143288330078125,6.790554458618164,4.781669628143311,-1.651699870300293
1789453363537229300,0.153229248046875,6.627748745727539,4.967369894409179,-1.6742951484680175
1789453363547169300,0.163169189453125,6.629095484161376,5.052663328552246,-1.6849194183349607
1789453363557110300,0.1731103515625,6.644807432556152,5.040243407440185,-1.7809867599487303
1789453363567051300,0.18305126953125,6.772597946166992,5.071667304229736,-1.8800468536376953
1789453363576992300,0.1929921875,6.9898717468261715,5.173720149993896,-1.9223942955017088
1789453363586932200,0.20293212890625,7.414842541503906,5.403413871765136,-1.7711106781005859
1789453363596873200,0.212873291015625,8.02521432723999,5.661389100646972,-1.4894927078247069
1789453363606814200,0.222814208984375,8.720430634307862,5.660191999816894,-1.2141595169067383
1789453363616755200,0.232755126953125,9.111433692932128,5.5452703201293945,-1.1016320388793945
1789453363626696200,0.2426962890625,9.207650672149658,5.497535924530029,-1.1085153686523437
1789453363636636200,0.25263623046875,9.130736943817139,5.436633419799804,-1.1430816551208496
1789453363646577200,0.2625771484375,9.0910829788208,5.5072623687744136,-1.096843635559082
1789453363656518100,0.27251806640625,8.915707707214356,5.620089122009277,-0.8943839576721191
1789453363666459100,0.282459228515625,8.595034322357177,5.63071339187622,-0.6923731925964355
1789453363676399000,0.292399169921875,8.383895663452147,5.587617761993408,-0.6024409927368164
1789453363686340000,0.302340087890625,8.06412010421753,5.566518859863281,-0.5883750579833984
1789453363696281000,0.312281005859375,7.728931871795654,5.547065971374511,-0.6212953308105469
1789453363706222300,0.322222412109375,7.53365479888916,5.526565619659424,-0.7625532287597656
1789453363716162300,0.332162353515625,7.565527608489989,5.456086308288574,-0.8928875816345214
1789453363726103300,0.342103271484375,7.835773120880127,5.217863243103027,-1.0136451278686522
1789453363736044300,0.352044189453125,8.271218547821045,5.0200423309326165,-1.1010334884643553
1789453363745985300,0.3619853515625,8.591742295074463,4.838382279968261,-1.1520599113464354
1789453363755925500,0.371925537109375,8.679130655670166,4.810250410461426,-1.1373954261779784
1789453363765866200,0.3818662109375,8.454823887634277,4.939238024902344,-1.1363479629516602
1789453363775807500,0.391807373046875,8.001571585845946,5.265896913909912,-1.1149497856140136
1789453363785748500,0.40174853515625,7.556549352264404,5.588665225219726,-1.0977414611816405
1789453363795688400,0.4116884765625,7.18245534286499,5.874772323608398,-1.0458172126770018
1789453363805629200,0.421629150390625,6.965929730224609,6.132298639678955,-0.9645639938354491
1789453363815570400,0.4315703125,6.996755076599121,6.299892755889892,-0.8747814315795898
1789453363825511400,0.441511474609375,7.1978680160522455,6.270414147949219,-0.8240542839050292
1789453363835452400,0.451452392578125,7.542483417510986,6.112546475982666,-0.8231564582824706
1789453363845392400,0.461392333984375,7.909394821929931,5.9503393135070795,-0.8806172981262207
1789453363855333400,0.47133349609375,8.065167567443847,5.80953032836914,-0.974290438079834
1789453363865274400,0.4812744140625,8.115445802307129,5.743839420318603,-1.0754454582214354
1789453363875215400,0.49121533203125,8.143577671813965,5.674108296966552,-1.140238540649414
1789453363885155300,0.5011552734375,8.10137986755371,5.669619168853759,-1.0850222648620604
1789453363895096300,0.511096435546875,8.01803172225952,5.697751038360595,-0.9964368034362793
1789453363905037300,0.521037353515625,7.919420541381835,5.795314756011963,-0.9029133010864258
1789453363914978300,0.530978271484375,7.9457567596435545,5.916970127868652,-0.7338228088378905
1789453363924918500,0.54091845703125,8.05080235748291,5.946897648620605,-0.5331587821960448
1789453363934859300,0.550859375,8.255506599426269,5.909338610076904,-0.330699104309082
1789453363944800300,0.56080029296875,8.533084354400634,5.8259904647827145,-0.13871405868530273
1789453363954741500,0.570741455078125,8.687809636688232,5.693411547851563,-0.01092354507446289
1789453363964682200,0.58068212890625,8.70262375946045,5.644480051422119,0.10863690032958984
1789453363974622500,0.59062255859375,8.724620487213134,5.626673176574707,0.12554594955444334
1789453363984563500,0.6005634765625,8.710105639648438,5.512050772094726,-0.011971008300781249
1789453363994504400,0.61050439453125,8.622268366241455,5.275174445343017,-0.2545335639953613
1789453364004445400,0.620445556640625,8.489090898895263,5.048623113250732,-0.39758711318969725
1789453364014385400,0.630385498046875,8.360851472473144,4.970362646484375,-0.5677250686645507
1789453364024326400,0.640326416015625,8.117989641571045,5.134215822601318,-0.6868366012573242
1789453364034267400,0.650267333984375,7.7313260734558105,5.421819297027588,-0.7263409286499023
1789453364044208400,0.66020849609375,7.372046186828613,5.6486699043273925,-0.730381143951416
1789453364054148400,0.6701484375,7.129932543945312,5.861604214477539,-0.7059902145385741
1789453364064089300,0.68008935546875,6.934356195831298,6.006154139709472,-0.6268319221496582
1789453364074030300,0.6900302734375,6.950217781829833,6.108955173492431,-0.5581482620239258
1789453364083971300,0.699971435546875,7.180360416412353,6.106411334228516,-0.4779425064086914
1789453364093912300,0.709912353515625,7.638999671936035,6.027402679443359,-0.36586394119262694
1789453364103852300,0.719852294921875,8.160636358642577,5.827337203216552,-0.25962124252319335
1789453364113793300,0.729793212890625,8.488043435668946,5.62427897491455,-0.23822306518554687
1789453364123734500,0.739734619140625,8.481459381103516,5.628768103027343,-0.30750527572631836
1789453364133675300,0.74967529296875,8.256105149841309,5.706130744171142,-0.5105635040283203
1789453364143615500,0.759615478515625,8.023867588806151,5.757606079864502,-0.7001543479919433
1789453364153556200,0.76955615234375,7.668777555084228,5.7143608123779295,-0.8316858016967773
1789453364163497500,0.77949755859375,7.249193714141845,5.601683696746826,-1.0339958419799804
1789453364173438200,0.789438232421875,6.759579474639892,5.6377463592529296,-1.2421417488098143
1789453364183378400,0.79937841796875,6.438457176971435,5.743091232299804,-1.2927192588806151
1789453364193319400,0.8093193359375,6.286874284362793,5.907243683624268,-1.2945149101257323
1789453364203260400,0.819260498046875,6.389076767730712,6.210110193634033,-1.1662754837036131
1789453364213201400,0.829201416015625,6.779331638336181,6.477961504364013,-0.8491934013366699
1789453364223142400,0.839142333984375,7.377882053375243,6.5117796028137205,-0.502483073425293
1789453364233082400,0.849082275390625,7.868244480895996,6.393416258239745,-0.36272155151367186
1789453364243023400,0.8590234375,8.05065271987915,6.118531980133056,-0.5533598587036133
1789453364252964400,0.86896435546875,7.872583971405029,5.916820490264892,-0.77886372756958
1789453364262905300,0.8789052734375,7.6285250396728514,5.877166525268555,-0.981323405456543
1789453364272845300,0.88884521484375,7.426065361785888,5.882553479003906,-1.0402806213378906
1789453364282786300,0.898786376953125,7.165845568847656,5.9026049179077145,-0.941070890045166
1789453364292727600,0.9087275390625,6.836942115783691,5.98191284790039,-0.8822633117675781
1789453364302668300,0.918668212890625,6.604704554748535,6.0239610145568845,-0.8505401397705078
1789453364312608500,0.9286083984375,6.554725595092773,6.068702658081055,-0.8110358123779297
1789453364322549200,0.93854931640625,6.723367174530029,6.0704983093261715,-0.7209539749145507
1789453364332490500,0.948490478515625,6.960991689300537,6.000767185974121,-0.752078596496582
1789453364342431200,0.95843115234375,7.2912418807983395,6.027253041839599,-0.7547720733642578
1789453364352372500,0.96837255859375,7.62927322769165,6.076034900665283,-0.716315209197998
1789453364362312200,0.978312255859375,7.812429654693603,6.054337448120116,-0.7122749938964843
1789453364372253400,0.98825341796875,7.800309008789062,6.016179859161377,-0.8162731285095214
1789453364382194200,0.998194091796875,7.606528311920165,6.073790336608886,-1.0733505317687988
1789453364392135400,1.008135498046875,7.2629603736877435,6.271311973571777,-1.3603554557800293
1789453364402075400,1.018075439453125,6.956652198791503,6.4071829177856445,-1.5040075553894041
1789453364412016400,1.028016357421875,6.962039152526855,6.433369498443603,-1.5080477706909179
1789453364421957400,1.037957275390625,7.243657122802734,6.475417665100097,-1.3678373359680176
1789453364431898400,1.0478984375,7.541585591888428,6.517765106964111,-1.0972925483703613
1789453364441839400,1.05783935546875,7.730877160644531,6.5303346656799315,-0.8102876243591308
1789453364451779300,1.067779296875,7.82065972290039,6.550835017395019,-0.64478843460083
1789453364461720600,1.077720458984375,7.9195701789855955,6.562656388092041,-0.6480804618835448
1789453364471661300,1.087661376953125,7.972691528320312,6.479906793212891,-0.7109282554626465
1789453364481602300,1.097602294921875,7.994837893676757,6.234201847839355,-0.9213187263488769
1789453364491542300,1.107542236328125,7.950245887756347,5.927893672943115,-1.1662754837036131
1789453364501483500,1.1174833984375,7.803451398468017,5.696553937530517,-1.3621511070251464
1789453364511424300,1.12742431640625,7.672668132781982,5.684433291625976,-1.4794669883728027
1789453364521365500,1.137365478515625,7.5716627502441405,5.794566567993164,-1.4353238952636718
1789453364531306200,1.14730615234375,7.556998265075683,5.9485436622619625,-1.243039574432373
1789453364541246500,1.15724658203125,7.607426137542724,6.1544450050354,-1.1981482933044434
1789453364551187200,1.167187255859375,7.677306898498535,6.238092425537109,-1.3334206871032714
1789453364561128400,1.17712841796875,7.713818473815918,6.12930588760376,-1.5343839889526367
1789453364571069400,1.1870693359375,7.783848872375488,5.9403135940551755,-1.8692729461669921
1789453364581009400,1.197009521484375,7.933336838531494,5.794716205596924,-2.1302409271240235
1789453364590950100,1.2069501953125,8.053495834350585,5.740248117828369,-2.1978771240234374
1789453364600891400,1.216891357421875,8.085667919158935,5.780949546051025,-2.1704934425354003
1789453364610832400,1.226832275390625,8.035389684295653,5.904699844360351,-2.1461025131225586
1789453364620773400,1.2367734375,7.910741560363769,6.120177993774414,-2.0127754081726072
1789453364630713300,1.24671337890625,7.930942636871338,6.40329234008789,-1.6874632575988768
1789453364640654300,1.256654296875,8.000823397827148,6.699874070739746,-1.3428478561401367
1789453364650595300,1.26659521484375,7.979275582885742,6.872406227874755,-0.9618705169677734
1789453364660536300,1.276536376953125,8.144176222229003,6.739378398132324,-0.8550292678833007
1789453364670476500,1.2864765625,8.338106556701659,6.460753179931641,-1.1520599113464354
1789453364680417300,1.296417236328125,8.275258763122558,6.26308190536499,-1.4324807807922362
1789453364690358500,1.306358642578125,8.246528343200684,6.233304022216797,-1.5031097297668456
1789453364700299300,1.31629931640625,8.362048573303221,6.199934836578369,-1.4203601348876953
1789453364710240300,1.326240234375,8.381351824188233,6.129455525207519,-1.3105261337280272
1789453364720180200,1.33618017578125,8.25520732421875,6.108057347869873,-1.1985972061157226
1789453364730121500,1.34612158203125,8.182333811187744,6.3144076034545895,-1.086518640899658
1789453364740062500,1.3560625,7.924957132720947,6.39057314376831,-0.8984241729736328
1789453364750003500,1.36600341796875,7.447014626312256,6.301089856719971,-0.7438485282897949
1789453364759943000,1.37594287109375,7.311742232513427,6.279691679382323,-0.7095815170288086
1789453364769884200,1.38588427734375,7.0950669822692864,6.14771131286621,-0.8183680549621581
1789453364779825000,1.395824951171875,6.776488523864746,5.993434943389892,-0.9501987838745116
1789453364789766100,1.40576611328125,6.54410132522583,5.9588686569213865,-1.0404302589416503
1789453364799707000,1.415706787109375,6.452223836517334,5.735758989715576,-1.1996446693420408
1789453364809647000,1.425647216796875,6.505045910644531,5.546467420959472,-1.301248602294922
1789453364819587800,1.435587890625,6.766462804412841,5.669918444061279,-1.0386346076965332
1789453364829529000,1.445529052734375,7.164049917602538,5.9397150436401365,-0.7606079399108886
1789453364839469800,1.4554697265625,7.213280689239501,6.257694951629638,-0.5080196647644043
1789453364849411000,1.4654111328125,7.090727491760253,6.598719050598144,-0.42287586822509765
1789453364859351000,1.47535107421875,6.867468186950683,6.728305215454101,-0.5119102424621582
1789453364869292000,1.4852919921875,6.9150529449462885,6.705111386871337,-0.7293336807250976
1789453364879232800,1.495232666015625,7.254730305480956,6.641515405273437,-0.8246528343200683
1789453364889174000,1.505174072265625,7.484274389648437,6.5375172706604,-0.7630021415710448
1789453364899114000,1.515114013671875,7.4971432235717765,6.46060354232788,-0.7653963432312011
1789453364909055000,1.525054931640625,7.437138544464111,6.4555158638000485,-0.650624301147461
1789453364918996000,1.534995849609375,7.265803488159179,6.386383290863037,-0.5792471641540528
1789453364928937000,1.54493701171875,6.927472866058349,6.391022056579589,-0.4433762199401855
1789453364938878000,1.5548779296875,6.913406931304931,6.5375172706604,-0.13063362808227538
1789453364948818000,1.56481787109375,7.028029335784912,6.599317601013183,0.08933364944458007
1789453364958759200,1.57475927734375,7.057059030914306,6.555324145507812,0.1484405029296875
1789453364968700000,1.584699951171875,7.098658284759521,6.451326010894775,0.002992752075195312
1789453364978641200,1.59464111328125,7.098209371948242,6.386383290863037,-0.354341845703125
1789453364988582000,1.604581787109375,6.9056257759094235,6.244377204895019,-0.3935468978881836
1789453364998522000,1.614522216796875,6.824073281860351,6.085162794494629,-0.27129297561645505
1789453365008462800,1.624462890625,7.123797402191162,5.995230594635009,-0.02498947982788086
1789453365018404000,1.634404052734375,7.362768655395508,5.987000526428222,0.2551321144104004
1789453365028345000,1.644344970703125,7.427861013031006,5.953930615997314,0.6389525680541992
1789453365038286000,1.6542861328125,7.211036125183105,6.089203009796142,0.5919663604736328
1789453365048225800,1.664225830078125,6.462698468780517,6.28223551864624,0.24316110610961914
1789453365058167000,1.6741669921875,5.885396593475342,6.296301453399658,-0.00029927520751953123
1789453365068108000,1.68410791015625,5.98879617767334,6.195445708465575,-0.11537059249877929
1789453365078049000,1.694049072265625,6.504148085021972,6.126462773132324,-0.09232640151977539
1789453365087990000,1.703989990234375,6.994360874938964,6.199934836578369,0.11237784042358398
1789453365097930000,1.713929931640625,7.296030284118652,6.399401762390136,0.38681320571899414
1789453365107871000,1.72387109375,7.32939946975708,6.803722567749023,0.6666355247497558
1789453365117812000,1.73381201171875,6.931812356567383,7.294982820892334,0.8077437850952148
1789453365127753000,1.7437529296875,6.416909362030029,7.733869912719726,0.7646481552124023
1789453365137693000,1.75369287109375,6.107907710266113,7.905504244232177,0.5984007774353027
1789453365147634000,1.763634033203125,6.1547442802429195,7.807192338562011,0.27563246612548825
1789453365157575000,1.773574951171875,6.315305429077148,7.541735229492187,-0.033518823242187495
1789453365167516000,1.783515869140625,6.560561461639404,7.145195579528808,-0.2608183433532715
1789453365177457200,1.79345703125,7.018003616333007,6.7374331092834465,-0.3821744400024414
1789453365187397000,1.803397216796875,7.474398307800293,6.3800985115051265,-0.36975451889038086
1789453365197338000,1.813338134765625,7.90385823059082,6.247818869781494,0.001496376037597656
1789453365207278800,1.82327880859375,8.239196100616455,6.348524977111816,0.3434183006286621
1789453365217220000,1.83322021484375,8.207173653411864,6.624755993652343,0.7384615745544433
1789453365227160800,1.843160888671875,7.848641954803466,6.858340293121337,0.9540893615722655
1789453365237101000,1.85310107421875,7.276278120422363,7.0102224609374995,0.9903016616821289
1789453365247042000,1.8630419921875,6.681169370269775,7.091176404571533,0.9166799606323242
1789453365256983000,1.872983154296875,6.162824710845947,7.098059734344482,0.8234557334899902
1789453365266924000,1.882924072265625,5.677549961853027,7.126640516662597,0.7887398094177246
1789453365276865000,1.892864990234375,5.290736756134033,7.116465159606933,0.7106289802551269
1789453365286805000,1.902804931640625,5.35642766418457,7.079355033874512,0.636558366394043
1789453365296746000,1.91274609375,5.948094749450683,7.020996368408203,0.634014527130127
1789453365306687000,1.92268701171875,6.406883642578125,6.909366716003418,0.5801449897766113
1789453365316628000,1.9326279296875,6.4448915939331055,6.864924347686767,0.5077203895568847
1789453365326569000,1.94256884765625,6.335805780792236,6.845621096801757,0.33324294357299805
1789453365336509000,1.952509033203125,6.16102905960083,6.879439195251464,0.04384381790161133
1789453365346450200,1.9624501953125,6.004957038879394,6.948571768188476,-0.13392565536499024
1789453365356391000,1.972390869140625,6.066158818817138,7.0847419876098625,-0.1680430290222168
1789453365366332200,1.982332275390625,6.4640452072143555,7.267299864196777,0.10190320816040038
1789453365376273000,1.99227294921875,7.177068389129638,7.41828420639038,0.5271732780456543
1789453365386213000,2.002213134765625,7.892934685516357,7.4770917846679685,0.9431658164978027
1789453365396153900,2.01215380859375,8.464400694274902,7.409455587768554,1.188122573852539
1789453365406095000,2.02209521484375,8.603862940979003,7.202955694580078,1.068113215637207
1789453365416035800,2.032035888671875,8.134749053192138,6.951414882659912,0.6209960556030273
1789453365425977000,2.04197705078125,7.4497081031799315,6.779331638336181,0.14769231491088866
1789453365435916800,2.051916748046875,6.941838076019287,6.794594673919677,-0.09427169036865234
1789453365445858000,2.061858154296875,6.669347999572754,6.872106952667236,-0.026785131072998045
1789453365455799000,2.071799072265625,6.503100621795654,7.026532959747314,-0.0004489128112792969
1789453365465740000,2.081739990234375,6.5683426170349115,7.112574581909179,0.15517419509887695
1789453365475681000,2.091680908203125,7.111377481079101,7.152378184509277,0.6214449684143066
1789453365485621000,2.10162109375,7.728632596588135,7.088333290100097,1.01514150390625
1789453365495562000,2.11156201171875,8.029404180145264,7.0287775238037105,1.1502642601013182
1789453365505503000,2.1215029296875,8.142979121398925,6.958148574829101,1.2012906829833985
1789453365515444000,2.13144384765625,7.8249992134094235,6.8493620368957515,1.0606313354492187
1789453365525385000,2.141385009765625,7.276577395629882,6.760178025054931,0.6468833610534668
1789453365535326000,2.151325927734375,6.69688131866455,6.6528878631591795,0.22430676803588867
1789453365545266000,2.161265869140625,6.112097563171386,6.602609628295898,-0.08649053497314453
1789453365555207000,2.17120703125,5.662137288665771,6.66515814666748,-0.29718028106689454
1789453365565148000,2.18114794921875,5.641038386535644,6.69718059387207,-0.36526539077758785
1789453365575089000,2.1910888671875,6.005705226898193,6.628347296142578,-0.28790274963378903
1789453365585030100,2.201030029296875,6.753145057678222,6.55682052154541,-0.04399345550537109
1789453365594970000,2.21097021484375,7.720552165985107,6.50534518585205,0.23552958831787107
1789453365604911000,2.2209111328125,8.372672843170166,6.4184057380676265,0.4460696968078613
1789453365614851800,2.230851806640625,8.61209300918579,6.500407144927978,0.5039794494628906
1789453365624793000,2.24079296875,8.450783672332763,6.616825200653076,0.33473931961059566
1789453365634733800,2.25073388671875,8.03763424835205,6.621763241577148,0.16549918975830077
1789453365644674000,2.260674072265625,7.7693340248107905,6.590638619995117,0.11611878051757812
1789453365654615000,2.270614990234375,7.490559169006347,6.612934622955322,0.09651625442504883
1789453365664556000,2.28055615234375,7.219116555786132,6.695235305023193,0.27308862686157226
1789453365674496800,2.290496826171875,7.050774251556396,6.669946549987793,0.33743279647827146
1789453365684438000,2.30043798828125,7.058705044555664,6.527341913604736,0.23642741394042968
1789453365694378000,2.3103779296875,7.219116555786132,6.436661525726318,0.29882629470825195
1789453365704319000,2.320319091796875,7.479635623931884,6.388777492523193,0.519092847442627
1789453365714260200,2.33026025390625,7.876923461914062,6.383091263580322,0.6391022056579589
1789453365724201000,2.340200927734375,8.06397046661377,6.429778195953369,0.5333084197998047
1789453365734142000,2.350141845703125,7.83951406097412,6.551433567810058,0.3850175544738769
1789453365744082000,2.36008203125,7.45704034576416,6.691644002532959,0.181959326171875
1789453365754023200,2.370023193359375,7.220014381408691,6.797138513183594,0.03501519927978516
1789453365763963600,2.379963623046875,7.0832456115722655,6.889764189910888,0.04668693237304687
1789453365773905000,2.38990478515625,7.1212535629272455,6.967126831054687,0.11896189498901366
1789453365783845600,2.399845703125,7.189039397430419,6.987926457977294,0.30151977157592774
1789453365793785900,2.409785888671875,7.172130348205566,6.938845323944092,0.3479074287414551
1789453365803726600,2.4197265625,7.071723516082764,6.834547914123535,0.17253215713500974
1789453365813667800,2.429667724609375,7.040898169708251,6.653037500762939,-0.05551555099487304
1789453365823608600,2.439608642578125,7.269993341064453,6.442796667480469,-0.12659341278076172
1789453365833549800,2.4495498046875,7.585579047393798,6.355258669281006,-0.04848258361816406
1789453365843490600,2.459490478515625,7.734169187927246,6.279242766571045,-0.042646717071533204
1789453365853430800,2.4694306640625,7.766939823150635,6.236745687103271,-0.008379705810546874
1789453365863371500,2.47937158203125,7.880963677215576,6.166715288543701,0.00239420166015625
1789453365873312800,2.489312744140625,8.109161022949218,6.045209554290771,0.0770633659362793
1789453365883253800,2.499253662109375,8.381501461791991,6.0351838348388664,0.30316578521728516
1789453365893194800,2.50919482421875,8.731952729797364,6.114641402435303,0.6272808349609375
1789453365903134500,2.519134521484375,8.935459870910645,6.150404789733886,0.7673416320800781
1789453365913075700,2.52907568359375,8.702324484252928,6.319644919586182,0.7826046676635742
1789453365923016700,2.5390166015625,8.298153316497801,6.477213316345215,0.8053495834350586
1789453365932957700,2.548957763671875,7.827842327880859,6.459855354309082,0.7263409286499023
1789453365942898700,2.558898681640625,7.250390814971923,6.38398908920288,0.5460276161193848
1789453365952838700,2.568838623046875,6.826018570709228,6.402544152069091,0.41539398803710936
1789453365962779600,2.578779541015625,6.797587425994872,6.362890187072754,0.4586392555236816
1789453365972720600,2.588720703125,6.840982331085205,6.262782630157471,0.47584757995605464
1789453365982661600,2.59866162109375,6.780977651977539,6.0704983093261715,0.299424845123291
1789453365992602600,2.6086025390625,6.560411824035644,5.942857433319092,0.1649006393432617
1789453366002543600,2.618543701171875,6.285976458740234,5.962310321807861,0.19183540802001953
1789453366012483600,2.628483642578125,6.260538066101073,6.0422168022155756,0.1696890426635742
1789453366022424600,2.638424560546875,6.182277599334716,6.010942543029785,0.028431144714355466
1789453366032365800,2.64836572265625,6.073341423797607,5.8925791984558105,-0.15816694717407226
1789453366042306600,2.658306640625,6.125714585113525,5.947196923828125,-0.2587234169006348
1789453366052247800,2.668247802734375,5.984456687164307,5.944503446960449,-0.12105682144165038
1789453366062187800,2.678187744140625,6.104765320587158,5.837811835479736,-0.05910685348510742
1789453366072128800,2.688128662109375,6.373664094543456,5.802198085784911,-0.09217676391601562
1789453366082069800,2.69806982421875,6.650493661499023,5.8083332275390624,-0.07377133865356444
1789453366092010800,2.7080107421875,6.964134078979492,5.7591024559021,-0.11866261978149413
1789453366101951500,2.717951416015625,7.025186221313477,5.7611973823547356,-0.33623569564819333
1789453366111892700,2.727892822265625,6.919242797851562,5.765536872863769,-0.6860884132385253
1789453366121832700,2.737832763671875,6.7927990226745605,5.7338137008666985,-1.0037690460205078
1789453366131773700,2.747773681640625,6.891859116363525,5.811176342010498,-1.1234791290283201
1789453366141714700,2.757714599609375,7.192630699920654,5.884648405456542,-1.0582371337890624
1789453366151655700,2.76765576171875,7.4326494163513175,6.0142345703124995,-1.0025719451904296
1789453366161596700,2.7775966796875,7.488164967346191,6.191555130767822,-1.0612298858642577
1789453366171536600,2.78753662109375,7.5625348564147945,6.16102905960083,-1.2470797897338866
1789453366181478000,2.797477783203125,7.811831104278564,6.00765051574707,-1.467645617675781
1789453366191418600,2.807418701171875,7.95473501586914,6.044311728668212,-1.601271997833252
1789453366201360000,2.81735986328125,8.0575360496521,6.157587394714355,-1.371428638458252
1789453366211300600,2.827300537109375,8.221239588165282,6.253954011535644,-1.0027215827941893
1789453366221240800,2.83724072265625,8.137143254852294,6.425588343048095,-0.6450877098083496
1789453366231181600,2.847181640625,7.958326318359375,6.651241849517822,-0.4134486991882324
1789453366241122800,2.857122802734375,7.799710458374023,6.682665746307372,-0.3206733848571777
1789453366251063600,2.8670634765625,7.459883460235595,6.540510022735595,-0.41584290084838865
1789453366261004800,2.8770048828125,7.003339131164551,6.44833325881958,-0.6609492958068848
1789453366270945800,2.88694580078125,6.820332341766357,6.258592777252197,-0.8788216468811034
1789453366280885800,2.8968857421875,7.0078282592773435,6.107159522247314,-0.9160814102172851
1789453366290826800,2.90682666015625,7.352892573547363,6.170007315826416,-0.7049427513122558
1789453366300767700,2.916767822265625,7.837119859313964,6.361393811035156,-0.3398269981384277
1789453366310708700,2.926708740234375,8.32553699798584,6.492177076721191,-0.023792378997802732
1789453366320649700,2.936649658203125,8.65040023574829,6.440701741027832,0.09666589202880858
1789453366330589700,2.946589599609375,8.589198455810546,6.301538769531249,0.04997895965576172
1789453366340530700,2.95653076171875,8.072799085235594,6.27580110168457,-0.21338322296142576
1789453366350471700,2.9664716796875,7.247398062896728,6.388178942108154,-0.46791678695678707
1789453366360412700,2.97641259765625,6.529287202453613,6.499958232116699,-0.6874351516723632
1789453366370353700,2.986353759765625,6.191555130767822,6.511031414794921,-0.8683470146179199
1789453366380295000,2.996294921875,6.091896486663818,6.532878504943847,-1.007360348510742
1789453366390234600,3.006234619140625,6.366481489562988,6.415562623596191,-1.1264718811035155
1789453366400175900,3.01617578125,7.0184525291442865,6.189609841918945,-1.2214917594909667
1789453366410116600,3.02611669921875,7.6738652336120605,6.088155546569824,-1.0483610519409179
1789453366420057900,3.036057861328125,8.421903614807128,6.104316407775879,-0.8161234909057616
1789453366429998600,3.04599853515625,9.055169953918456,5.930138236999511,-0.8330325401306152
1789453366439938800,3.055938720703125,9.271097016143798,5.751620575714111,-1.0301052642822266
1789453366449879600,3.065879638671875,9.238775293731688,5.618742383575439,-1.2256816123962402
1789453366459820800,3.07582080078125,8.831461736297607,5.706579656982422,-1.3274351829528808
1789453366469761500,3.085761474609375,8.289773610687256,5.863399865722656,-1.3371616271972655
1789453366479702800,3.095702880859375,7.808389439392089,5.990442191314697,-1.3076830192565918
1789453366489643800,3.105643798828125,7.707384056854248,6.139181969451904,-1.0363900436401368
1789453366499583700,3.115583740234375,7.8161705947875975,6.253804373931884,-0.7000047103881836
1789453366509524500,3.1255244140625,7.8344263824462885,6.2216322891235345,-0.5041290870666504
1789453366519465700,3.1354658203125,7.717709051513672,6.155492468261718,-0.5714660087585449
1789453366529406700,3.14540673828125,7.541435954284667,6.082618955230712,-0.8173205917358398
1789453366539347700,3.15534765625,7.7124717353820795,5.999570085144042,-0.8355763793945312
1789453366549288700,3.165288818359375,8.278700428009033,6.138284143829345,-0.42227731781005856
1789453366559228700,3.175228759765625,9.044695321655272,6.5871969551086424,0.2032078659057617
1789453366569169700,3.185169677734375,9.617358431243895,6.787561706542968,0.4885667762756347
1789453366579110700,3.195110595703125,9.816974994659423,6.680421182250976,0.4435258575439453
1789453366589051600,3.2050517578125,9.515455223083496,6.5586161727905266,0.32022447204589843
1789453366598992600,3.21499267578125,8.863334545898438,6.531681404113769,0.1728314323425293
1789453366608932600,3.2249326171875,7.93528212738037,6.492476351928711,-0.06314706878662109
1789453366618873600,3.23487353515625,7.258022332763671,6.477961504364013,-0.25917232971191406
1789453366628814600,3.244814697265625,6.940192062377929,6.3633390998840325,-0.3802291511535644
1789453366638755800,3.254755859375,6.78651424331665,6.246771406555175,-0.2771288421630859
1789453366648696600,3.264696533203125,6.740425861358642,6.194697520446777,-0.13826514587402344
1789453366658637800,3.274637939453125,6.738181297302246,6.287472834777832,0.022296002960205077
1789453366668577800,3.284577880859375,7.029824987030029,6.344933674621582,0.34820670394897457
1789453366678518800,3.294518798828125,7.491157719421386,6.1750949943542475,0.38367081604003905
1789453366688459500,3.30445947265625,7.837269496917724,5.876268699645996,0.12479776153564452
1789453366698400800,3.31440087890625,8.202534887695313,5.640888748931885,-0.07302315063476562
1789453366708341500,3.324341552734375,8.201337786865233,5.56083263092041,-0.17986439971923826
1789453366718281700,3.33428173828125,8.08866067123413,5.56711741027832,-0.27249007644653317
1789453366728222700,3.34422265625,7.650372129821777,5.730671311187744,-0.29493571701049803
1789453366738163700,3.354163818359375,7.219266193389892,5.95004003829956,-0.2967313682556152
1789453366748104700,3.364104736328125,7.043890921783447,6.024709202575683,-0.2967313682556152
1789453366758046700,3.374046630859375,7.173776361846923,6.0808233039855955,-0.11133037719726561
1789453366767987700,3.38398779296875,7.515548648834228,6.123021108245849,0.16519991455078123
1789453366777927700,3.393927734375,7.6467808273315425,6.163123986053466,0.2952349922180176
1789453366787868400,3.403868408203125,7.673416320800781,6.1261634979248045,0.39668928756713867
1789453366797809700,3.4138095703125,7.593958753204345,6.093841775512695,0.42227731781005856
1789453366807750700,3.423750732421875,7.2806176109313965,6.156689569091797,0.3043628860473633
1789453366817691600,3.433691650390625,6.911760917663574,5.996128420257568,0.05820902786254883
1789453366827632600,3.443632568359375,6.687454149627685,5.759401731109619,-0.21308394775390624
1789453366837572600,3.453572509765625,6.349722077941895,5.601683696746826,-0.10743979949951171
1789453366847513600,3.463513671875,6.119729080963134,5.419574732971191,0.09801263046264648
1789453366857454600,3.47345458984375,6.2027779510498045,5.128230318450927,0.2715922508239746
1789453366867395600,3.4833955078125,6.898892083740234,4.761618189239502,0.5814917282104491
1789453366877336600,3.493336669921875,7.0010945671081535,4.763413840484619,0.6265326469421386
1789453366887276500,3.503276611328125,7.158214051055908,4.436306038665771,1.2560580459594726
1789453366897217500,3.513217529296875,7.672518495178222,4.722712412261963,1.345092420196533
1789453366907158500,3.523158447265625,6.856095729064941,5.161599504089355,1.0423755477905272
1789453366917099800,3.533099853515625,6.5291375648498535,5.124489378356933,1.0576385833740234
1789453366927040500,3.54304052734375,6.03293927078247,5.150077408599853,1.191264963531494
1789453366936981800,3.552981689453125,5.225045848083496,5.319018263244629,1.3429974937438964
1789453366946921500,3.56292138671875,4.787206219482422,5.374982727050781,1.2216413970947264
1789453366956862700,3.57286279296875,4.3740567955017085,5.296572622680664,0.9683049339294433
1789453366966803500,3.582803466796875,3.858704888153076,5.227888962554931,0.673518854522705
1789453366976744700,3.59274462890625,4.358344847106934,5.148431394958496,0.7417536018371581
1789453366986685400,3.602685546875,5.480177962493896,4.889408702850342,1.0790367607116698
1789453366996626700,3.612626708984375,5.532401486206054,4.470722687530517,0.6193500419616699
1789453367006566400,3.62256640625,4.44378791885376,3.708618371582031,-0.6798036338806152
1789453367016507600,3.632507568359375,3.5612253318786617,2.7070938896179197,-1.4686930809020995
1789453367026448600,3.64244873046875,3.5558383781433105,2.1727380065917967,-0.9846154327392578
1789453367036389600,3.6523896484375,3.9056910957336424,1.8764555511474608,-0.19647417373657225
1789453367046330600,3.66233056640625,3.84987626953125,1.1342530364990233,-0.27877485580444333
1789453367056271600,3.672271728515625,4.082562743377685,-0.14559738845825196,-0.19901801300048827
1789453367066211600,3.682211669921875,5.499331575775146,-2.708889540863037,4.165761251068115
1789453367076152600,3.692152587890625,5.428552989196777,-3.0035259826660154,3.222296159362793
1789453367086093600,3.702093505859375,2.270152086639404,-1.7459715606689452,5.57953733139038
1789453367096034600,3.71203466796875,0.7151181083679199,0.9823708686828613,3.1610943794250486
1789453367105975600,3.7219755859375,2.442235330963135,0.647332273864746,-1.206079086303711
1789453367115916800,3.731916748046875,3.2404023094177243,-2.89219560546875,-3.1528643112182615
1789453367125856500,3.7418564453125,4.1858126899719235,-7.036558679199218,-1.8484733192443847
1789453367135797500,3.751797607421875,3.8639422042846676,-9.611372927093505,-0.0020949264526367185
1789453367145738500,3.761738525390625,4.0355765357971185,-10.486453633880615,0.914884309387207
1789453367155679700,3.7716796875,6.430975296783447,-7.8992194648742675,2.7041011375427244
1789453367165620500,3.781620361328125,4.890905078887939,-6.260538066101073,7.952340814208984
1789453367175560700,3.791560791015625,5.354033462524414,-4.6155718879699705,13.20985802230835
1789453367185501700,3.801501708984375,5.504119979095458,-4.5498809799194335,16.768240239715574
1789453367195442700,3.811442626953125,5.926247659301757,-4.982483292388916,18.229900353240964
1789453367205383400,3.821383544921875,6.565948415374756,-4.346822751617432,18.121712365722654
1789453367215324700,3.83132470703125,7.476792509460449,-3.749319799804687,18.372504989624023
1789453367225265400,3.841265380859375,8.718934258270263,-3.648015142059326,18.347515509796143
1789453367235205600,3.85120556640625,6.260687703704834,-3.674052085113525,17.05734009017944
1789453367245146600,3.861146728515625,5.064335061645507,-4.314351391601562,16.108488044738767
1789453367255087600,3.871087646484375,6.132448277282714,-4.362085787200927,16.942717685699463
1789453367265028600,3.881028564453125,5.429450814819336,-3.4102409896850583,17.644966960144043
1789453367274969600,3.890969482421875,2.5481787544250487,-2.55386498336792,17.031153509521484
1789453367284910600,3.90091064453125,-0.07601590270996093,-2.4232313552856444,15.644910748291014
1789453367294850600,3.9108505859375,-1.268627604675293,-2.600252640533447,14.183400272369385
1789453367304791800,3.920791748046875,-2.0026000511169433,-1.9578584075927734,13.347823892974853
1789453367314732500,3.930732666015625,-3.2453403503417966,-1.9048866958618162,12.548310176086424
1789453367324673500,3.940673583984375,-3.905242182922363,-0.8907926551818847,12.617891661834715
1789453367334614500,3.950614501953125,-3.8248867897033687,1.897404815673828,16.634164946746825
1789453367344555500,3.960555419921875,-3.6323031936645505,7.864054627990722,22.90757184677124
1789453367354495500,3.97049560546875,-6.289717398834228,14.731672452545165,29.868114623260496
1789453367364436700,3.980436767578125,-12.095057874298096,11.560253078460693,33.501016367340085
1789453367374377700,3.990377685546875,-13.492373818206786,7.668179004669189,30.035858377075193
1789453367384318500,4.000318359375,-14.829834720611572,5.496039548492432,23.204452852630613
1789453367394259700,4.010259765625,-12.40525662689209,-1.7573440185546874,11.905616667938231
1789453367404200400,4.020200439453125,-8.08237589187622,-4.035426898193359,5.8369140098571775
1789453367414140700,4.030140625,-4.656572591400146,-5.588216312408447,5.362113893127441
1789453367424081700,4.04008154296875,-1.112106671142578,-8.012794406127929,5.594351454162597
1789453367434022700,4.050022705078125,1.946485949707031,-10.121487518310547,4.683956272888183
1789453367443963600,4.059963623046875,7.329549107360839,-10.735899519348143,3.2386066581726074
1789453367453904600,4.069904541015625,7.798962270355224,-13.048698323059082,0.6784568954467773
1789453367463845600,4.079845703125,5.174019425201416,-12.703783646392822,-2.9167361724853516
1789453367473785600,4.08978564453125,5.108328517150879,-16.251242318725584,-5.531204385375976
1789453367483726600,4.0997265625,5.376928015899658,-13.468731076812743,-3.284844677734375
1789453367493667600,4.10966748046875,3.229179489135742,-12.942305986785888,-0.1680430290222168
1789453367503608600,4.119608642578125,2.6101287223815914,-10.797250936889649,2.8764836570739742
1789453367513549600,4.129549560546875,-1.1682207725524902,-7.7976155319213865,8.112901963043212
1789453367523490600,4.139490478515625,-10.85935054244995,-0.8351274665832519,19.793164399719238
1789453367533430500,4.149430419921875,-9.291747005462646,-2.375496959686279,19.329287828063965
1789453367543371800,4.159371826171875,9.446621925354004,-11.419144818115234,-1.1902175003051758
1789453367553312500,4.1693125,-7.690923920440674,-3.4388217720031737,21.774366273498533
1789453367563253800,4.179253662109375,-5.153818348693847,8.859443968200683,30.199861190795897
1789453367573194500,4.189194580078125,-13.541155677032469,16.33892995452881,30.756513076782223
1789453367583135500,4.199135498046875,8.65713392791748,-5.613205792236328,2.9414263771057128
1789453367593075500,4.209075439453125,5.972635316467285,-24.741081405639648,-9.613617491149903
1789453367603016700,4.2190166015625,4.020014225006103,-17.816451654052734,0.6172551155090331
1789453367612957700,4.228957763671875,10.09365492401123,-10.98130518951416,3.764283560180664
1789453367622898700,4.238898681640625,7.742698531341552,-11.352256809234618,2.2590789039611816
1789453367632839700,4.248839599609375,9.718064538574218,-12.381613885498046,2.5266309394836424
1789453367642780400,4.258780517578125,10.709114388275147,-10.513388402557373,4.511274478149414
1789453367652720600,4.268720703125,5.274575894927978,-8.209118942260742,7.609521063995361
1789453367662661600,4.27866162109375,3.3551743515014647,-5.164592256164551,10.10712230834961
1789453367672602600,4.2886025390625,2.3198317710876464,-4.614374787139893,12.893075215148926
1789453367682543600,4.298543701171875,2.29843359375,-3.8777088638305663,17.319205896759033
1789453367692484600,4.308484619140625,1.8602946899414061,-1.5972317825317381,20.79423996887207
1789453367702425600,4.318425537109375,0.2437596565246582,0.277727392578125,21.535245382690427
1789453367712365600,4.328365478515625,-0.581641365814209,-0.3815758895874023,20.848259143829345
1789453367722306800,4.338306884765625,-0.5689221694946289,-1.5870564254760742,20.699519365692137
1789453367732247600,4.34824755859375,-1.0860697280883789,-0.6192004043579101,19.45318776397705
1789453367742188800,4.358188720703125,-0.16849194183349608,-0.2615665313720703,16.684592819213865
1789453367752129500,4.368129638671875,-2.364872689819336,-1.0874164665222168,11.490821230316161
1789453367762069000,4.378069091796875,-4.341735073089599,-2.339284659576416,7.707234419250488
1789453367772010000,4.388010009765625,-3.598784370422363,-3.1651345947265623,5.714510449981689
1789453367781951200,4.397951171875,-3.732111475372314,-5.569212336730956,3.200598706817627
1789453367791892000,4.40789208984375,-3.3131261848449705,-7.460033097839355,1.6808792030334472
1789453367801833200,4.417833251953125,-2.326415825653076,-8.560468035888672,0.5584475372314452
1789453367811774000,4.42777392578125,-1.4459481651306152,-8.453177873992919,1.5491981117248534
1789453367821714200,4.437714111328125,-1.877652651977539,-7.670273931121826,5.013907189178466
1789453367831655000,4.447655029296875,-1.734599102783203,-7.304409989929199,5.72693037109375
1789453367841596200,4.45759619140625,-0.8686462898254395,-7.839214785766601,5.317072974395751
1789453367851537000,4.467536865234375,-2.385373041534424,-7.796119155883789,5.398475830841064
1789453367861478100,4.47747802734375,-5.0939633071899415,-6.96488226699829,6.331915203094482
1789453367871419100,4.487419189453125,-6.32667788696289,-6.428581095123291,6.9250786643981925
1789453367881359000,4.497359130859375,-6.0908490234374995,-5.94375525894165,8.531887253570556
1789453367891299800,4.5072998046875,-3.038241906738281,-6.2678703086853025,9.558101940155028
1789453367901241000,4.517240966796875,-0.9980828170776367,-6.790404821014404,10.088716883087157
1789453367911182000,4.52718212890625,-0.4129997863769531,-6.274454363250732,11.10221237335205
1789453367921123000,4.537123046875,0.5300163925170898,-4.40548069229126,13.332111944580078
1789453367931063300,4.547063232421875,1.2832920898437499,-2.159120984649658,15.172355195617675
1789453367941004000,4.557004150390625,0.23867197799682616,-0.4878185882568359,16.66858159561157
1789453367950945000,4.566945068359375,-0.7167641220092773,-3.1118636077880857,14.904054972076414
1789453367960886000,4.576885986328125,-1.7313070755004882,-6.259490602874756,12.946346202087401
1789453367970827000,4.586826904296875,0.6908768165588378,-5.689520970153808,10.890026251220702
1789453367980768000,4.59676806640625,2.1121347770690915,-7.663390601348876,7.2517375534057615
1789453367990708200,4.606708251953125,2.436249826812744,-7.694814498138427,3.6240731254577634
1789453368000649000,4.61664892578125,1.807472615814209,-6.5674447914123535,2.830694550323486
1789453368010590000,4.62658984375,-0.5015852478027344,-0.5376479103088379,6.443245580291748
1789453368020531200,4.63653125,-0.5919663604736328,0.13991115951538086,10.75714805908203
1789453368030472000,4.646471923828125,0.3839700912475586,-0.07646481552124022,10.294917501068115
1789453368040413200,4.6564130859375,-2.984073094177246,-2.659209856414795,7.349750183868408
1789453368050353200,4.666353271484375,-5.677998874664306,-11.4017868560791,-1.9322703773498533
1789453368060294100,4.676294189453125,-4.7289971916198725,-8.978405863189696,-0.0073322425842285155
1789453368070235100,4.686235107421875,-5.408202275085449,-5.80997924118042,6.111349375152588
1789453368080176000,4.696176025390625,-6.329521001434326,-2.861519896697998,9.588179098510741
1789453368090116900,4.706116943359375,-6.32084202041626,1.005564697265625,13.780276567840575
1789453368100058000,4.71605810546875,-2.801964130401611,2.0964228286743163,13.648595476531982
1789453368109998000,4.725998046875,-0.28446108474731446,2.899228572845459,15.024363605499266
1789453368119939000,4.73593896484375,1.9321207397460936,4.818330841064453,16.65720913772583
1789453368129880000,4.745880126953125,-1.3578116165161132,4.275894527435303,14.815170235443114
1789453368139821000,4.755821044921875,1.9119196632385254,4.136432280731201,12.783091576385496
1789453368149762000,4.765761962890625,0.831835439300537,-4.106953672790527,5.950937863922118
1789453368159703000,4.775703125,-3.2691327293395993,-8.935459870910645,-5.392490326690673
1789453368169643300,4.785643310546875,-4.821922143554687,-11.012130535888671,-6.742969700622559
1789453368179584000,4.795583984375,-0.8672995513916015,-0.31753099517822264,5.157708926391601
1789453368189525200,4.805525146484375,-4.6055461685180665,-4.886565588378906,9.210194511413574
1789453368199466000,4.815466064453125,-3.5232173805236813,-3.1765070526123047,5.086780702209472
1789453368209407000,4.825406982421875,-6.829909148406982,6.012887831878662,14.276774137115478
1789453368219347000,4.835346923828125,-4.652083463287354,7.464073313140869,20.192247888946532
1789453368229288200,4.8452880859375,-0.5488707305908203,-2.5788544631958006,10.128221210479735
1789453368239229000,4.85522900390625,-4.675726204681396,-7.525724005889892,2.2049100914001465
1789453368249170200,4.865170166015625,-7.5065703926086425,-5.306598342132568,1.950975077819824
1789453368259111200,4.875111083984375,-6.251709447479247,0.04803367080688476,8.088361396026611
1789453368269052000,4.885052001953125,-1.7393875061035156,-1.1773486663818358,7.8547770965576165
1789453368278992100,4.8949921875,-1.5023615417480467,-3.952677303314209,7.038055055236816
1789453368288931000,4.90493115234375,-2.399887889099121,-2.625691033172607,8.07025524597168
1789453368298872000,4.9148720703125,-3.884292918395996,-3.0692168907165525,9.70459715423584
1789453368308813000,4.92481298828125,-4.362983612823486,-5.166387907409668,8.90598126296997
1789453368318754300,4.93475439453125,-2.9358897857666015,-8.936058421325683,7.069778227233886
1789453368328695000,4.944695068359375,-2.6300305236816404,-10.275913525390624,6.278344940948486
1789453368338636000,4.954635986328125,-4.764760578918457,-8.86722512359619,9.758616329193115
1789453368348576000,4.964575927734375,-4.427477420043945,-6.832452987670898,13.635876280212402
1789453368358517200,4.974517333984375,-8.916904808044434,-5.277119734191894,13.612532814025878
1789453368368458000,4.9844580078125,-4.548833516693115,-3.625120588684082,7.287949853515625
1789453368378399200,4.994399169921875,-1.0812813247680664,-3.5447651954650876,4.454561826324463
1789453368388340000,5.004340087890625,0.6787561706542968,-2.6722283279418946,6.833051538085937
1789453368398281200,5.01428125,-2.448220835113525,-3.9784149711608885,7.994987531280517
1789453368408221000,5.024220947265625,-1.3394061912536621,-6.406285092163086,9.121309774780272
1789453368418162200,5.034162109375,-0.8735843307495117,-5.198410354614258,13.08835228805542
1789453368428103000,5.04410302734375,-2.3485621910095213,-2.242918042755127,16.4200335357666
1789453368438044200,5.054044189453125,-2.8350340408325194,-0.6212953308105469,14.63949568862915
1789453368447985200,5.063985107421875,-4.555716846466064,-0.7924807495117187,14.219612572479248
1789453368457925000,5.073925048828125,-4.595670086669921,1.9815011489868164,17.13440345611572
1789453368467866000,5.0838662109375,-4.191947831726074,1.0178349807739258,15.875951208496092
1789453368477807000,5.09380712890625,-2.8655601119995118,-3.4267011260986324,11.718420025634765
1789453368487748000,5.103748046875,-1.1860276473999023,-5.4878094802856445,10.492588775634765
1789453368497689000,5.113689208984375,-0.5065232887268066,-5.916221939849853,10.053851321411132
1789453368507630000,5.123630126953125,-1.2720692695617675,-6.159233408355712,8.08925922164917
1789453368517570000,5.133570068359375,-3.0635306617736813,-6.030694706726074,5.704185455322265
1789453368527511000,5.143510986328125,-4.2880151733398435,-5.992686755371094,4.2226235404968255
1789453368537452000,5.1534521484375,-2.3237223487854,-4.21349564666748,4.987122058105468
1789453368547393000,5.16339306640625,0.6835445739746093,-0.5591957252502441,6.854300077819824
1789453368557334300,5.173334228515625,-2.4733599525451657,-1.1106102951049803,6.423493416595458
1789453368567275000,5.18327490234375,-3.655646659851074,-1.67908355178833,7.116016246795654
1789453368577215200,5.19321533203125,-2.4926632034301757,-2.401833177947998,8.25520732421875
1789453368587156000,5.203156005859375,0.4122515983581543,-5.367201571655273,8.980500789642333
1789453368597097200,5.21309716796875,7.6945152229309075,-9.996540119171142,11.10296056137085
1789453368607038000,5.223037841796875,-5.5276130828857415,-8.637082489013672,10.758644435119628
1789453368616979200,5.232979248046875,-6.364087287902832,-7.66129567489624,7.993640792846679
1789453368626919000,5.2429189453125,2.0383634384155274,-8.795249436187744,6.637624827575683
1789453368636860200,5.252860107421875,2.395548398590088,-7.643339162445068,6.251709447479247
1789453368646801000,5.26280078125,-1.02142628326416,-6.499060406494141,5.8074354019165035
1789453368656742100,5.2727421875,-1.5155296508789062,-5.5726540016174315,6.203376501464843
1789453368666683000,5.282682861328125,-0.7333738960266113,-5.118503874206542,6.970568495941162
1789453368676624100,5.2926240234375,-2.1281460006713866,-4.4196962646484375,7.762301057434081
1789453368686564000,5.302564208984375,-3.273322582244873,-3.299209887695312,8.759635686492919
1789453368696505000,5.312505126953125,-2.008585555267334,-4.070891010284424,8.356511981964111
1789453368706446000,5.322446044921875,-1.248875440979004,-5.7992053337097165,7.262212185668945
1789453368716387000,5.332386962890625,-0.6772597946166992,-5.529558371734619,7.440729846954345
1789453368726328000,5.342328125,-1.5261539207458494,-5.791124903106689,6.901136647796631
1789453368736268000,5.35226806640625,-2.1526865676879883,-5.355230563354492,6.328174263000488
1789453368746209000,5.362208984375,-2.2939444656372068,-4.340238697052001,6.28223551864624
1789453368756150000,5.37214990234375,-2.882469161224365,-3.311629808807373,6.444293043518066
1789453368766090500,5.382090576171875,-3.7428853828430175,-0.36272155151367186,6.040121875762939
1789453368776031500,5.392031494140625,-2.461987494659424,2.1046528968811034,5.278167197418212
1789453368785972500,5.401972412109375,-3.310731983184814,4.325274936676025,5.073612593078613
1789453368795912400,5.411912353515625,-3.5513492500305173,4.922628250885009,3.330783422088623
1789453368805853700,5.421853759765625,-5.4625207252502435,1.8863316329956055,1.075744733428955
1789453368815794400,5.43179443359375,-5.332336009979247,0.04863222122192382,4.198681523895264
1789453368825735700,5.441735595703125,-1.6666636306762694,0.8583212951660156,7.316231360626221
1789453368835676400,5.451676513671875,-2.082656169128418,-1.1987468437194824,9.816226806640625
1789453368845617400,5.461617431640625,-6.726509564208984,-1.7974468963623045,10.409689543151854
1789453368855557400,5.471557373046875,-2.9234698646545407,6.797288150787353,10.22054761199951
1789453368865498600,5.48149853515625,-1.8990508293151855,14.29428173675537,13.431920226287842
1789453368875439400,5.491439453125,-17.673996655273438,-10.562020623779297,4.153191692352294
1789453368885380600,5.501380615234375,-2.4890719009399414,-28.35153750915527,6.82512074508667
1789453368895321600,5.511321533203125,2.277933242034912,-39.4419285118103,12.495188826751708
1789453368905262600,5.5212626953125,2.480392919921875,-11.790694988250731,9.583689970397948
1789453368915202300,5.531202392578125,-1.3127706977844238,-0.7655459808349608,9.645939213562011
1789453368925143600,5.5411435546875,-9.028235185241698,-11.062857683563232,8.115445802307129
1789453368935084500,5.55108447265625,-2.507776601409912,-16.40058064727783,9.255085792541504
1789453368945025500,5.561025634765625,-1.9527707290649412,-16.147393821716307,11.34507420425415
1789453368954966500,5.570966552734375,-9.259275645446778,-13.261482995605467,10.165480973815917
1789453368964906500,5.580906494140625,-4.787505494689941,-17.61234596252441,6.284779357910156
1789453368974847500,5.590847412109375,-3.949235638427734,-8.500612994384765,7.551012760925293
1789453368984788500,5.60078857421875,-5.783792660522461,-4.301931470489501,3.5984850952148437
1789453368994729500,5.6107294921875,-4.304325672149658,-5.527912358093261,3.3385645774841306
1789453369004670500,5.62067041015625,-4.057124350738525,-6.603208178710937,3.8551135856628416
1789453369014611500,5.630611572265625,-3.4561797340393063,-9.762656544494629,4.579808500671386
1789453369024551400,5.640551513671875,-3.093607820129394,-10.57249525604248,5.964405248260498
1789453369034492400,5.650492431640625,-4.170549654388427,-11.13453409576416,5.6441807762146
1789453369044433700,5.66043359375,-4.4279263328552245,-11.58165125579834,6.067804832458496
1789453369054374400,5.67037451171875,-4.234295273590088,-11.794435928344726,7.743297081756591
1789453369064315600,5.680315673828125,-3.6055180625915524,-12.806135767364502,7.034014839935303
1789453369074256400,5.69025634765625,-3.014000614929199,-13.615974478912353,5.079897372436523
1789453369084196600,5.700196533203125,-3.4261025756835934,-11.54334402923584,3.3282395828247067
1789453369094137300,5.710137451171875,-3.9190088424682616,-7.13801297454834,3.883395092773437
1789453369104078600,5.72007861328125,-7.621192797088622,-3.812017955780029,4.940734400939941
1789453369114019300,5.730019287109375,-7.923610394287109,-5.21576831665039,4.893149642944335
1789453369123960600,5.739960693359375,-8.1341505027771,-5.700594152832031,5.359270778656006
1789453369133901600,5.749901611328125,-11.509226655578612,-9.558700490570068,5.437082332611084
1789453369143841500,5.759841552734375,0.42377369384765623,0.8661024505615234,4.342333623504638
1789453369153782500,5.769782470703125,9.204657920074462,8.022820125579834,4.9351978096008295
1789453369163723500,5.7797236328125,-0.3752911102294922,-0.9585784896850585,3.2887352554321287
1789453369173664500,5.78966455078125,-21.229984671020507,-9.583839608001709,2.476352704620361
1789453369183605500,5.79960546875,-0.8553285430908203,-7.088931840515136,3.77311217880249
1789453369193546500,5.80954638671875,3.9246950714111324,-2.4842834976196286,6.047454118347168
1789453369203486500,5.819486572265625,-10.860398005676268,-5.462969638061523,4.2217257148742675
1789453369213427500,5.829427490234375,-15.065813221740722,-8.335712355041503,1.6603788513183593
1789453369223368400,5.839368408203125,-7.057956856536864,-6.255001474761962,1.9731214431762694
1789453369233309400,5.849309326171875,-6.075286712646484,-5.121197351074218,2.6408044311523438
1789453369243250700,5.859250732421875,-7.891737584686279,-6.498312218475341,2.6514287010192867
1789453369253191400,5.86919140625,-7.454346868896484,-7.480234174346923,2.9302035568237303
1789453369263131400,5.87913134765625,-6.3895256805419915,-6.292261238098144,3.8902784225463867
1789453369273072400,5.889072265625,-6.706308487701415,-4.424035755157471,4.396352798461914
1789453369283013600,5.899013671875,-6.682665746307372,-4.21978042602539,3.7579987808227537
1789453369292954400,5.908954345703125,-6.884227598571777,-5.106832141113281,3.022380320739746
1789453369302895600,5.9188955078125,-7.726687307739257,-5.974430967712402,2.47096575088501
1789453369312836400,5.92883642578125,-7.94246473236084,-5.7520694885253905,2.994996639251709
1789453369322776600,5.938776611328125,-6.970568495941162,-5.759401731109619,3.3602620300292965
1789453369332717300,5.94871728515625,-6.693439653778076,-7.376385677337646,2.823811220550537
1789453369342658600,5.958658447265625,-6.988824283599853,-6.97790073852539,2.845059760284424
1789453369352599300,5.968599365234375,-8.572588681793212,2.910750668334961,3.4172739570617674
1789453369362540500,5.97854052734375,-3.8705262588500973,5.238962145233154,4.147056550598144
1789453369372481500,5.9884814453125,-5.983708499145507,-4.531026641845703,4.268562284851074
1789453369382421500,5.99842138671875,-9.436745843505859,-7.408108849334717,4.589235669708252
1789453369392362500,6.008362548828125,-8.664615808105468,-8.71384657974243,4.879682258605957
1789453369402303500,6.018303466796875,-10.113556725311279,-8.078335676574707,4.674529103851318
1789453369412244500,6.028244384765625,-7.576151878356933,-5.917867953491211,3.693205698394775
1789453369422185500,6.038185546875,-3.734206401824951,-2.899677485656738,2.3644237770080565
1789453369432126500,6.04812646484375,-3.6535517333984373,-2.525733113861084,1.343296768951416
1789453369442066400,6.05806640625,-7.704391304779052,-4.681113158416748,2.0241478660583496
1789453369452007400,6.06800732421875,-10.460117415618896,-6.989422834014892,3.100341512298584
1789453369461948400,6.077948486328125,-8.151059552001952,-6.2678703086853025,2.717568521881103
1789453369471889400,6.087889404296875,-5.993135668182373,-4.740668924713135,2.1844097396850586
1789453369481830700,6.09783056640625,-7.344063954925537,-4.346822751617432,2.073677912902832
1789453369491771400,6.107771484375,-8.646509658050537,-4.887313776397705,2.8203695556640622
1789453369501711600,6.117711669921875,-8.47831699142456,-4.9437271530151365,3.214515003967285
1789453369511652400,6.12765234375,-8.528595226287841,-4.855740242004394,2.6306290740966793
1789453369521593600,6.137593505859375,-7.9946882560729975,-5.82239916229248,2.501940734863281
1789453369531534300,6.147534423828125,-7.281066523742675,-5.81581510772705,2.6411037063598632
1789453369541475600,6.1574755859375,-8.007856365203857,-5.4512979049682615,2.513612467956543
1789453369551416300,6.167416259765625,-8.438363751220702,-5.908440784454346,2.507028413391113
1789453369561356500,6.1773564453125,-8.148665350341796,-6.0233624641418455,1.6083049652099608
1789453369571297300,6.18729736328125,-8.014889332580566,-6.158335582733154,1.566107160949707
1789453369581238500,6.197238525390625,-7.430704127502441,-6.570736818695068,1.5391723922729492
1789453369591179500,6.207179443359375,-7.972392253112792,-6.668150898742676,1.7148469390869139
1789453369601120500,6.21712060546875,-9.191190535736084,-6.595875936126709,2.070236248016357
1789453369611061500,6.2270615234375,-8.905382712554932,-6.422146678161621,1.1896189498901366
1789453369621002500,6.23700244140625,-8.179191421508788,-4.80097287902832,0.6660369743347168
1789453369630942500,6.2469423828125,-8.084171543121338,-1.5798738204956053,0.48766895065307614
1789453369640883500,6.256883544921875,-8.581716575622558,-2.238877827453613,0.8768763580322265
1789453369650824400,6.266824462890625,-9.585036708831787,-3.5954923431396484,1.5304934112548827
1789453369660765400,6.276765380859375,-10.267084906768797,-3.81785382232666,1.3986626823425292
1789453369670706400,6.28670654296875,-8.195801195526123,-3.326743206787109,-0.20515315475463866
1789453369680647700,6.296647705078125,-1.5327379753112793,-2.395548398590088,3.248931652832031
1789453369690587600,6.306587646484375,-1.213560966491699,1.7720085037231443,4.087201509094238
1789453369700528400,6.3165283203125,-0.6814496475219726,2.4377462028503416,5.127931043243408
1789453369710469400,6.326469482421875,-12.320412105560303,-5.552602562713623,4.866364511871337
1789453369720410600,6.33641064453125,-11.15353807144165,-9.56318961868286,1.4374188217163084
1789453369730351400,6.346351318359375,-6.279691679382323,-1.2083236503601074,1.90892691116333
1789453369740292600,6.356292724609375,-5.144840092468262,0.5225345123291015,1.3412018424987793
1789453369750232600,6.366232666015625,-6.196044258880615,-0.838269856262207,2.0245967788696286
1789453369760173600,6.376173583984375,-6.966378643035888,-0.09636661682128905,2.2535423126220704
1789453369770114600,6.386114501953125,-6.759280199432372,-0.003441664886474609,3.1938650146484373
1789453369780055600,6.3960556640625,-7.762749970245361,-2.36217921295166,2.8226141197204586
1789453369789996500,6.40599658203125,-7.729979335021972,-3.6043209617614744,3.3825580329895018
1789453369799937500,6.4159375,-6.641515405273437,-5.078999546813964,3.947290349578857
1789453369809878500,6.42587841796875,-5.757456442260742,-7.966556386566162,4.224718466949462
1789453369819818500,6.435818603515625,-5.741295581054687,-10.762684650421141,3.507355794525146
1789453369829759500,6.445759521484375,-5.028721311950683,-12.065279991149902,3.3322797981262204
1789453369839700500,6.455700439453125,-5.354033462524414,-13.21554425125122,2.737470323181152
1789453369849641500,6.465641357421875,-7.331344758605956,-13.650690402984619,2.173785469818115
1789453369859582700,6.475582763671875,-7.388655960845947,-12.892775939941405,2.63032979888916
1789453369869523500,6.4855234375,-6.4466872451782224,-10.991031633758544,2.788047833251953
1789453369879464700,6.495464599609375,-5.9774237197875975,-9.552415711212157,2.567631642913818
1789453369889404400,6.505404296875,-6.522254235076904,-9.036614891052245,2.0829554443359375
1789453369899345700,6.515345703125,-7.359027715301513,-9.854833308410644,2.0163667106628416
1789453369909286400,6.525286376953125,-7.234828504180908,-10.979958451080321,2.4416367805480954
1789453369919227600,6.5352275390625,-6.8779428192138665,-10.99971061477661,2.4932617538452146
1789453369929168400,6.54516845703125,-6.591835720825195,-9.10395181274414,2.226906819152832
1789453369939109600,6.555109619140625,-6.364087287902832,-5.906944408416748,1.7854758880615234
1789453369949050600,6.565050537109375,-6.7160349319458,-6.45476767578125,1.1516109985351561
1789453369958990600,6.574990478515625,-5.833173069763183,-8.21719937286377,1.5933412048339843
1789453369968931600,6.584931640625,-5.50980620803833,-8.66371798248291,1.3283330085754395
1789453369978872600,6.59487255859375,-6.420650302124023,-9.699060562896728,1.1888707618713379
1789453369988813600,6.6048134765625,-7.1668930320739745,-9.788244574737549,0.7676409072875976
1789453369998754600,6.614754638671875,-6.010194355010986,-10.098144052124022,-0.015113397979736327
1789453370008695600,6.624695556640625,-5.064484699249268,-10.614543422698974,0.131531453704834
1789453370018635500,6.634635498046875,-4.9155952835083,-11.07737253112793,1.1914146011352538
1789453370028576500,6.644576416015625,-4.948964469146728,-10.018836122131347,2.320879234313965
1789453370038517500,6.654517578125,-5.42705661315918,-7.089530390930175,3.3482910217285156
1789453370048458500,6.66445849609375,-5.839457849121094,-4.276044165039062,3.3544261634826658
1789453370058399700,6.674399658203125,-5.5090580200195305,-4.042010952758789,2.513462830352783
1789453370068340500,6.684340576171875,-5.219658894348144,-4.483292246246338,2.009333743286133
1789453370078281700,6.69428173828125,-5.162198054504394,-5.834070895385742,2.2622212936401365
1789453370088221400,6.704221435546875,-5.341314266204834,-8.556278182983398,2.3695114555358887
1789453370098162700,6.71416259765625,-4.740519287109374,-9.227702111053466,2.7820623291015623
1789453370108103400,6.724103515625,-4.282029669189453,-9.43524946746826,2.3766940605163573
1789453370118044700,6.734044677734375,-4.726602989959717,-9.771485163116454,1.5523405014038085
1789453370127985400,6.7439853515625,-4.753687396240234,-8.87395881576538,1.7140987510681152
1789453370137926700,6.7539267578125,-4.901230073547363,-8.709806364440917,2.0465935066223144
1789453370147867600,6.76386767578125,-4.602254141235352,-8.97631093673706,1.7510592391967772
1789453370157808600,6.77380859375,-4.4930186904907226,-9.488819729614256,1.6135422813415525
1789453370167748600,6.78374853515625,-4.401739752197265,-9.508871168518066,1.8529624473571775
1789453370177689600,6.793689697265625,-3.820547299194336,-9.530718258666992,1.8617910659790038
1789453370187630600,6.803630615234375,-4.335599931335449,-9.171288734436034,2.0450971305847165
1789453370197571600,6.813571533203125,-5.317372249603271,-8.03194801940918,2.5610475883483885
1789453370207512600,6.8235126953125,-4.765508766937256,-8.041225550842285,2.5577555610656737
1789453370217453600,6.83345361328125,-5.138854588317871,-8.595483235168457,2.526331664276123
1789453370227394600,6.84339453125,-5.553201113128662,-9.278578896331787,2.558803024291992
1789453370237334500,6.85333447265625,-5.681440539550781,-9.854384395599364,2.6473884857177734
1789453370247275500,6.863275634765625,-5.363909544372558,-10.085424855804442,2.4009353523254395
1789453370257216800,6.873216796875,-5.163245517730712,-9.761010530853271,2.666691736602783
1789453370267157500,6.883157470703125,-4.860827920532226,-8.826972608184814,2.9382839874267574
1789453370277098800,6.8930986328125,-4.809053309631348,-8.03194801940918,2.412756723022461
1789453370287039500,6.90303955078125,-4.219331513214111,-7.6367551078796385,2.1526865676879883
1789453370296980700,6.912980712890625,-3.861847277832031,-7.382221543884277,2.0542250244140625
1789453370306920400,6.92292041015625,-3.8371570732116695,-7.673117045593261,1.7568951057434081
1789453370316861700,6.93286181640625,-3.923198695373535,-8.302343169403075,1.5493477493286132
1789453370326802400,6.942802490234375,-3.7023335922241207,-8.96374137802124,1.2648866645812988
1789453370336743700,6.95274365234375,-4.125359098052979,-9.420734619903564,1.1055226165771483
1789453370346684700,6.9626845703125,-4.001908074951172,-9.867702142333984,1.1385925270080566
1789453370356625700,6.972625732421875,-4.164713787841797,-9.796025730133056,1.3124714225769043
1789453370366566700,6.982566650390625,-4.409520907592773,-8.56181477432251,2.027739168548584
1789453370376507600,6.992507568359375,-4.333654642486572,-7.910741560363769,2.156427507781982
1789453370386447600,7.002447509765625,-4.401739752197265,-8.156147230529784,2.1583727966308595
1789453370396388600,7.012388671875,-4.918139122772216,-8.434622811126708,2.9076082786560056
1789453370406329600,7.02232958984375,-5.411494302368164,-8.913612780761719,3.408744613647461
1789453370416270600,7.0322705078125,-5.785588311767578,-9.62139864654541,3.2932243835449215
1789453370426211600,7.042211669921875,-5.657947435760498,-9.68409680252075,2.945765867614746
1789453370436152600,7.052152587890625,-5.278466472625732,-9.346664006042479,2.348861466217041
1789453370446093600,7.062093505859375,-5.332036734771728,-9.055469229125976,1.7881693649291992
1789453370456034600,7.07203466796875,-5.2816088623046875,-8.21016640548706,1.7286135986328124
1789453370465974500,7.081974609375,-5.244648374176025,-7.822305736541748,1.8287211555480956
1789453370475915800,7.091915771484375,-4.885218849945068,-7.647828290557861,1.9623475357055662
1789453370485856500,7.1018564453125,-4.707299739074707,-7.128436167907714,2.20895030670166
1789453370495797800,7.1117978515625,-5.344456655883789,-6.468235060119628,3.0110078628540036
1789453370505738500,7.121738525390625,-5.872527759552002,-6.702567547607422,3.463362339019775
1789453370515679500,7.131679443359375,-5.794416930389404,-7.110479655456542,3.556586566162109
1789453370525620500,7.141620361328125,-5.623680424499511,-7.286902390289306,3.3643022453308102
1789453370535561500,7.1515615234375,-5.4044613349914545,-7.955483203887939,2.8021137680053707
1789453370545501400,7.16150146484375,-5.388599748992919,-8.008454915618897,2.559551212310791
1789453370555442700,7.171442626953125,-5.22190345840454,-8.008155640411376,2.3139959045410157
1789453370565383700,7.1813837890625,-5.36959577331543,-7.594407666015624,2.505831312561035
1789453370575324400,7.191324462890625,-5.992237842559814,-6.932111631774902,2.9486089820861814
1789453370585265700,7.201265625,-6.654084963989257,-6.579565437316894,3.6170401580810543
1789453370595206400,7.211206298828125,-7.032219188690185,-6.54395168762207,4.164564150238037
1789453370605147600,7.221147705078125,-6.853851165008544,-7.030722812652588,3.974823668670654
1789453370615088400,7.23108837890625,-7.004087319183349,-7.5822870201110835,3.406051136779785
1789453370625028600,7.241028564453125,-7.429806301879882,-7.59740041809082,3.3737294143676757
1789453370634969600,7.250969482421875,-7.537844651794433,-7.128436167907714,3.679887951660156
1789453370644910600,7.26091064453125,-6.81853669052124,-7.757363016510009,3.8817490791320797
1789453370654851600,7.2708515625,-6.372616631317138,-7.34166975326538,3.991433442687988
1789453370664792600,7.28079248046875,-5.8092310531616205,-7.107337265777588,3.872770822906494
1789453370674733600,7.290733642578125,-4.940884038543701,-6.979995664978027,3.393182302856445
1789453370684674600,7.300674560546875,-4.783315641784668,-6.723666449737548,2.5764602615356442
1789453370694615600,7.310615478515625,-5.56711741027832,-6.800430540466309,1.8710685974121093
1789453370704556500,7.320556640625,-5.630264479064941,-6.829160960388183,1.6071078643798826
1789453370714496500,7.33049658203125,-6.271311973571777,-6.945279740905761,1.886630908203125
1789453370724437500,7.3404375,-7.155969486999512,-7.016956153106689,2.8036101440429686
1789453370734378500,7.35037841796875,-7.970297326660156,-7.38641139678955,3.9529765785217283
1789453370744319700,7.36031982421875,-8.081777341461182,-7.728931871795654,4.825812721252441
1789453370754260500,7.370260498046875,-7.209988661956786,-7.720851441192626,4.8421232200622555
1789453370764202800,7.38020263671875,-6.800430540466309,-7.637503295898437,4.045452617645264
1789453370774144000,7.39014404296875,-6.65902300491333,-7.1224506637573235,2.9863176582336424
1789453370784085000,7.4000849609375,-6.95844785003662,-6.608894407653808,2.525583476257324
1789453370794026000,7.41002587890625,-7.040000344085693,-5.9397150436401365,2.524236737823486
1789453370803966000,7.419966064453125,-7.301566875457763,-5.547215608978271,2.837428242492676
1789453370813907000,7.429906982421875,-7.704989855194091,-5.508908382415771,3.342904067993164
1789453370823848000,7.439847900390625,-7.8058456001281735,-5.81626402053833,3.787627026367187
1789453370833789000,7.449788818359375,-7.6485764785766595,-6.056582012176514,4.044405154418945
1789453370843730000,7.45972998046875,-7.283161450195312,-6.151452252960205,4.050091383361816
1789453370853671000,7.4696708984375,-7.004386594390868,-6.229712719726562,3.660285425567627
1789453370863612000,7.47961181640625,-7.138611524963379,-5.9862523384094235,3.556586566162109
1789453370873553200,7.48955322265625,-6.887220350646972,-5.798307508087158,3.1362545372009274
1789453370883494000,7.499493896484375,-7.060500695800781,-5.834220532989502,2.6216508178710938
1789453370893434000,7.50943408203125,-7.165247018432617,-5.682338365173339,2.4753052413940426
1789453370903374800,7.519374755859375,-6.955305460357666,-5.517886638641357,2.699312734222412
1789453370913316000,7.529316162109375,-6.93345837020874,-5.411643939971923,3.123684978485107
1789453370923256800,7.5392568359375,-6.685059947967529,-5.5452703201293945,3.3988685317993164
1789453370933198000,7.549197998046875,-6.728454853057861,-5.525368518829345,3.2606033859252928
1789453370943138800,7.559138916015625,-6.6708443756103515,-5.372887800598145,2.739565249633789
1789453370953080000,7.569080078125,-6.7639189651489255,-5.111919819641113,2.5661352668762207
1789453370963021000,7.57902099609375,-6.679523356628418,-5.071966579437255,2.661604058074951
1789453370972961800,7.5889619140625,-7.053767003631592,-4.997895965576172,2.7468974922180176
1789453370982903000,7.598903076171875,-6.8496613121032714,-5.0017865432739255,2.834734765625
1789453370992843000,7.608843017578125,-7.288548403930664,-5.36929649810791,3.2878374298095703
1789453371002784000,7.618783935546875,-7.987505651092529,-5.548861622619628,3.284844677734375
1789453371012725000,7.62872509765625,-8.43342571029663,-5.530156922149658,2.929156093597412
1789453371022666000,7.638666015625,-7.04149672012329,-5.341613541412353,3.130867583465576
1789453371032606700,7.648606689453125,-6.019322248840331,-5.201702381896973,2.72609786529541
1789453371042548000,7.6585478515625,-5.875819786834716,-4.555866484069824,1.711554911804199
1789453371052489000,7.668489013671875,-6.182726512145996,-4.230105420684814,1.2472294273376463
1789453371062430000,7.678429931640625,-7.035062303161621,-4.397549899291992,1.2925696212768554
1789453371072371000,7.688370849609375,-7.345261055755615,-4.168604365539551,1.9340660285949707
1789453371082312000,7.69831201171875,-7.09970574798584,-4.080467816925049,2.4971523315429685
1789453371092252000,7.708251953125,-6.865373260498046,-4.165761251068115,2.7609634269714354
1789453371102193000,7.71819287109375,-6.884526873779296,-4.118475768280029,3.319111688995361
1789453371112134000,7.7281337890625,-7.385663208770752,-4.084059119415283,3.2146646415710447
1789453371122075000,7.738074951171875,-7.830685442352294,-4.0620623916625975,2.6405051559448243
1789453371132015900,7.748015869140625,-8.011298030090332,-4.011035968780518,2.912097406768799
1789453371141957000,7.75795703125,-7.903110042572021,-3.930830213165283,3.5883097381591793
1789453371151897900,7.76789794921875,-7.626729388427734,-3.9181110168457027,3.343053705596924
1789453371161839000,7.777839111328125,-7.733869912719726,-3.8892309593200682,3.1988030555725095
1789453371171779800,7.78777978515625,-7.101950312042236,-3.907337109375,3.252074042510986
1789453371181721000,7.79772119140625,-6.944830828094482,-3.873369373321533,2.3933038345336914
1789453371191661800,7.807661865234375,-7.898471276855468,-3.857507787322998,2.3732523956298825
1789453371201602000,7.81760205078125,-7.676259435272216,-3.826682440948486,2.9396307258605954
1789453371211542800,7.827542724609375,-7.7328224494934075,-3.925143984222412,3.405901499176025
1789453371221484000,7.837484130859375,-7.762151419830322,-4.051887034606933,3.676745561981201
1789453371231425000,7.847425048828125,-7.2343795913696285,-4.382137226104736,3.49852717590332
1789453371241366000,7.857365966796875,-7.311442957305908,-4.64101028060913,3.158700177764892
1789453371251307000,7.86730712890625,-7.028478248596191,-4.574720822143554,3.3979707061767574
1789453371261248000,7.877248046875,-6.734290719604492,-4.471919788360595,3.4452561889648434
1789453371271189000,7.88718896484375,-7.095964807891845,-4.404582866668701,2.9575872383117674
1789453371281129700,7.897129638671875,-7.259817984008788,-4.286967710113525,2.820968106079101
1789453371291071000,7.907071044921875,-6.854150440216064,-4.2402807777404785,3.0986954986572264
1789453371301012000,7.917011962890625,-6.9150529449462885,-4.387524179840088,3.256712808227539
1789453371310952000,7.926951904296875,-7.3265563552856445,-4.712088142395019,3.3755250656127926
1789453371320893000,7.936892822265625,-6.809109521484374,-5.044433260345459,3.4873043556213377
1789453371330834000,7.946833984375,-7.043442008972168,-5.500977589416504,3.436128295135498
1789453371340775000,7.95677490234375,-7.109881105041503,-5.833023432159424,3.251475492095947
1789453371350716000,7.9667158203125,-6.843226895141601,-6.093392862701416,3.068169427490234
1789453371360657000,7.976656982421875,-7.047781499481201,-6.425289067840576,3.093757457733154
1789453371370598000,7.986597900390625,-7.265653850555419,-6.555773058319091,3.187580235290527
1789453371380539000,7.996538818359375,-7.22106184463501,-6.472724188232421,3.1884780609130856
1789453371390480100,8.006480224609374,-7.3274541809082026,-6.486790122985839,3.0775965965270995
1789453371400420900,8.0164208984375,-7.611316715240478,-6.684012484741211,2.895786907958984
1789453371410362000,8.026362060546875,-7.5439797935485835,-6.993911962127685,2.882020248413086
1789453371420302800,8.036302734375,-6.9630866157531734,-6.87584789276123,3.1850363960266113
1789453371430243000,8.0462431640625,-6.330269189453125,-6.821828717803955,3.0385411819458006
1789453371440183800,8.056183837890625,-6.51881257019043,-7.06723438796997,2.2303484840393066
1789453371450125000,8.066125,-6.179434484863281,-7.24620096206665,1.597979970550537
1789453371460065800,8.076065673828126,-5.4701522430419915,-7.454496506500243,1.6539444343566894
1789453371470007000,8.086007080078126,-6.247669232177734,-6.977302188110351,2.053776111602783
1789453371479948000,8.095947998046874,-6.947374667358398,-6.854300077819824,2.360682836914062
1789453371489889000,8.105888916015624,-6.415113710784912,-7.161655715942382,2.7067946144104003
1789453371499830000,8.115830078125,-6.548141540527343,-7.6461822769165035,2.363525951385498
1789453371509770800,8.125770751953125,-6.296900003814697,-7.7605054061889645,2.1160253547668457
1789453371519712000,8.1357119140625,-5.72663109588623,-7.727285858154296,2.1676503280639645
1789453371529652700,8.14565283203125,-5.443816024780273,-8.1081135597229,2.0976199295043942
1789453371539594000,8.155593994140625,-5.693860460662841,-8.377012333679199,1.9611504348754882
1789453371549534000,8.165533935546875,-5.839607486724853,-8.232761683654784,2.211494145965576
1789453371559475000,8.175474853515626,-6.280739142608642,-8.023418675994872,2.620902629852295
1789453371569416000,8.185416015625,-6.411223133087158,-7.860463325500488,2.663399709320068
1789453371579357000,8.19535693359375,-6.345083312225341,-7.675810522460937,3.0322564025878904
1789453371589298000,8.2052978515625,-6.5601125488281244,-7.7507789619445795,3.3502363105773925
1789453371599239000,8.215239013671875,-6.298097104644775,-7.800309008789062,3.4754829849243163
1789453371609180000,8.225179931640625,-6.217442436218262,-8.234856610107421,3.0238766967773434
1789453371619121000,8.235120849609375,-5.960813945770263,-8.604162216186523,2.3220763351440428
1789453371629062000,8.245061767578125,-5.631611217498779,-8.627356044769286,2.3487118286132813
1789453371639003100,8.255003173828126,-5.3490954216003415,-8.489839086914062,2.198774949645996
1789453371648943900,8.26494384765625,-5.12000025024414,-8.670601312255858,1.886630908203125
1789453371658885000,8.274885009765624,-4.818779753875732,-8.352022853851318,1.8640356300354002
1789453371668825900,8.284825927734374,-4.689343226623535,-8.189217140960693,1.6346411834716796
1789453371678766000,8.29476611328125,-5.122244814300537,-8.259846089935301,1.7600374954223632
1789453371688706800,8.304706787109374,-5.086182151794433,-8.455422438049316,2.2164321868896484
1789453371698648000,8.31464794921875,-4.918887310791015,-8.64381618118286,2.6420015319824217
1789453371708588800,8.3245888671875,-5.344606293487549,-9.178620977020262,2.543390351104736
1789453371718530000,8.334530029296875,-5.625775350952148,-9.498845449066161,2.128445275878906
1789453371728471000,8.344470947265625,-5.685331117248535,-9.458742571258544,2.0540753868103026
1789453371738411800,8.354411865234376,-5.220855995178223,-9.131634769439696,2.3427263244628906
1789453371748353000,8.36435302734375,-4.591929146575928,-8.972420359039306,2.160617360687256
1789453371758293800,8.374293701171876,-4.427776695251465,-8.690353475952149,1.9575591323852537
1789453371768234000,8.38423388671875,-4.967818807220459,-8.238747187805176,2.10674782333374
1789453371778175200,8.39417529296875,-4.884769937133789,-8.600870188903809,1.7682675636291503
1789453371788116000,8.404115966796875,-5.06283868560791,-8.839242891693115,2.0784663162231443
1789453371798057000,8.414056884765625,-5.212177014160156,-8.945784865570069,2.357091534423828
1789453371807998200,8.423998291015625,-5.249137502288818,-9.145551066589356,2.518101596069336
1789453371817938200,8.433938232421875,-4.923376438903809,-8.89326206665039,2.216132911682129
1789453371827879200,8.443879150390625,-4.58354944076538,-8.881889608764649,1.3223475044250488
1789453371837820200,8.453820068359375,-4.727949728393554,-9.037512716674804,1.1475707832336426
1789453371847761200,8.46376123046875,-4.566640391540527,-8.922291761779785,1.1900678627014158
1789453371857702100,8.4737021484375,-4.494066153717041,-8.66326906967163,1.357362703704834
1789453371867643100,8.48364306640625,-4.2986394432067865,-8.447042732238769,1.4591162742614745
1789453371877584000,8.493583984375,-4.3640310760498044,-8.307281210327147,1.6626234153747557
1789453371887525000,8.503525146484375,-4.707150101470947,-8.633191911315917,1.7087117973327637
1789453371897466000,8.513466064453125,-4.895394207000732,-9.121758687591552,1.8263269538879394
1789453371907407000,8.523406982421875,-4.8132431625366205,-9.297882147216797,2.118120281219482
1789453371917348000,8.53334814453125,-4.714781619262695,-9.534758473968505,1.9645920997619628
1789453371927289000,8.5432890625,-4.780173252105713,-9.574562076568602,1.6029180114746093
1789453371937230000,8.55322998046875,-4.9729064857482905,-9.418938968658447,1.3739724777221678
1789453371947171000,8.563171142578126,-5.0388966690063475,-9.125050714874266,1.4390648353576658
1789453371957111000,8.573111083984376,-5.015253927612305,-8.846575134277343,1.666962905883789
1789453371967052000,8.583052001953124,-4.771643908691406,-8.625710031127928,1.6880618080139158
1789453371976993000,8.592992919921874,-4.642805931854248,-8.404695290374756,1.7133505630493162
1789453371986934300,8.602934326171875,-4.853196402740478,-8.287529046630858,1.8628385292053222
1789453371996875000,8.612875,-5.015852478027344,-8.078186038970946,2.018760912322998
1789453372006816300,8.622816162109375,-5.256020832061767,-8.043919027709961,2.2828712829589843
1789453372016757000,8.632757080078125,-5.556642778015136,-8.01294404373169,2.652027251434326
1789453372026698200,8.6426982421875,-5.357175852203369,-7.887248456573486,2.6575638427734374
1789453372036639000,8.652638916015626,-5.021688344573974,-7.800009733581542,2.522889999389648
1789453372046580000,8.662580078125,-4.979640177917481,-7.706336593627929,2.498947982788086
1789453372056521200,8.672521240234374,-5.1243397407531734,-7.75676446609497,2.2876596862792966
1789453372066462000,8.6824619140625,-5.709572409057617,-7.736264114379883,2.5950153244018552
1789453372076403200,8.6924033203125,-6.13514175415039,-7.802403935241699,3.1578023521423337
1789453372086344000,8.702343994140625,-6.3052797096252435,-7.617751132202148,3.6542999214172363
1789453372096285200,8.71228515625,-6.0054059516906735,-8.084171543121338,3.4599206741333006
1789453372106225000,8.722224853515625,-5.745036521148681,-8.075642199707032,3.3750761528015136
1789453372116166100,8.732166259765625,-5.696703575134277,-7.5065703926086425,3.540126429748535
1789453372126107000,8.74210693359375,-5.631311942291259,-7.366210320281982,3.40949280166626
1789453372136048000,8.752048095703126,-5.6851814796447755,-6.836642840576172,3.3488895721435545
1789453372145989000,8.761989013671876,-5.662436563873291,-7.312191145324706,2.8583775070190427
1789453372155930000,8.77193017578125,-5.748478186035156,-7.398831317901611,2.65591782913208
1789453372165871000,8.78187109375,-6.345083312225341,-7.161655715942382,2.853289828491211
1789453372175812000,8.79181201171875,-6.726958477020263,-7.3557356880187985,3.1190462127685543
1789453372185753000,8.801753173828125,-7.019799267578125,-7.685237691497802,3.7030817802429197
1789453372195694000,8.811694091796875,-7.08698655166626,-7.828889791107177,4.285620971679688
1789453372205635000,8.821635009765625,-6.985681893920898,-7.539490665435791,4.659714981079102
1789453372215576000,8.831576171875,-6.399102487182617,-8.117540728759765,4.208856880950927
1789453372225517000,8.84151708984375,-6.069001933288574,-7.441029122161865,3.810671217346191
1789453372235458000,8.8514580078125,-5.769277812957763,-6.765564978790283,3.152714673614502
1789453372245399000,8.86139892578125,-5.706280381774902,-6.037578036499023,2.379387537384033
1789453372255340000,8.871340087890625,-6.056133099365234,-6.364536200714111,1.677736813354492
1789453372265281000,8.881281005859375,-6.720673697662353,-6.18003303527832,2.105700360107422
1789453372275221000,8.891220947265625,-7.040149981689453,-5.964105973052978,2.836530416870117
1789453372285162000,8.901161865234375,-6.969371395111083,-6.2310594581604,3.455132270812988
1789453372295103000,8.91110302734375,-6.666205609893798,-6.418256100463867,3.9228994201660154
1789453372305044200,8.921044189453125,-6.347028601074219,-6.402993064880371,3.6381390602111816
1789453372314985000,8.93098486328125,-6.253355461120605,-6.475567302703857,3.1446342430114744
1789453372324926200,8.94092626953125,-6.772298670959472,-6.510432864379882,3.1376012756347653
1789453372334867000,8.950866943359374,-6.791302646636963,-7.282562899780273,3.6655227416992187
1789453372344808200,8.96080810546875,-7.716511950683593,-6.842777982330322,3.8060324516296387
1789453372354749000,8.9707490234375,-7.266252400970458,-6.330718102264404,3.244592162322998
1789453372364690200,8.980690185546875,-7.095515895080566,-6.535123069000243,3.1153052726745605
1789453372374631200,8.990631103515625,-7.366509595489502,-6.502801346588134,3.09645093460083
1789453372384572000,9.000572021484375,-7.575852603149413,-6.535422344207763,3.2350153556823726
1789453372394513200,9.01051318359375,-7.440131296539306,-6.402544152069091,3.3910873764038083
1789453372404454000,9.020453857421876,-7.181707154846191,-6.235548586273193,3.3364696510314937
1789453372414395100,9.03039501953125,-7.742848168945312,-5.902904193115234,3.3152211112976073
1789453372424336100,9.040336181640624,-7.6279264892578125,-5.813420906066894,2.7439047401428223
1789453372434277000,9.050277099609374,-7.367108145904541,-4.981735104370117,2.128445275878906
1789453372444217000,9.060217041015624,-6.685957773590087,-4.83928010559082,2.1046528968811034
1789453372454158000,9.070157958984375,-6.595875936126709,-4.974253224182129,2.5303718795776367
1789453372464099000,9.08009912109375,-7.580790644073486,-5.270535679626464,3.0544027679443357
1789453372474040000,9.0900400390625,-8.431330783843993,-5.5659203094482415,3.434033368682861
1789453372483981000,9.09998095703125,-7.8523828948974606,-5.998971534729003,3.591751403045654
1789453372493922000,9.109922119140625,-7.138162612152099,-6.0902504730224605,3.172466837310791
1789453372503863000,9.119863037109376,-6.340145271301269,-5.772569840240478,2.392256371307373
1789453372513804000,9.129803955078126,-6.111648650360107,-5.223848747253418,1.7925088554382322
1789453372523745000,9.1397451171875,-6.447136157989502,-4.845265609741211,1.6792331893920898
1789453372533686300,9.149686279296875,-7.0084268096923825,-4.4187984390258785,1.568651000213623
1789453372543627000,9.159626953125,-7.3457099685668945,-4.056376162719726,2.0581156021118163
1789453372553568000,9.169568115234375,-7.474398307800293,-4.210802169799805,3.2981624244689938
1789453372563509000,9.179509033203125,-7.620294971466064,-4.488828837585449,4.211550357818603
1789453372573450000,9.189449951171875,-8.052747646331786,-5.015702840423583,3.7868788383483882
1789453372583391200,9.19939111328125,-7.189488310241699,-4.954800335693359,3.19850378036499
1789453372593332000,9.20933203125,-6.63957011642456,-4.489577025604248,2.720411636352539
1789453372603273200,9.219273193359374,-7.2717889923095695,-3.9737762054443357,2.607285607910156
1789453372613214000,9.2292138671875,-7.749731498718261,-3.8058828140258787,2.942473840332031
1789453372623154200,9.239154296875,-7.454646144104004,-4.030339219665527,3.088669779205322
1789453372633095000,9.249094970703124,-7.0920742301940916,-3.806780639648437,2.862716997528076
1789453372643036200,9.2590361328125,-7.784597060394287,-3.5927988662719725,2.7023054862976075
1789453372652977000,9.268976806640625,-8.015787158203125,-3.856759599304199,3.262847949981689
1789453372662918100,9.278918212890625,-7.763797433471679,-4.116081566619873,3.6783915756225585
1789453372672859100,9.288859130859375,-7.460182735443115,-4.047996456909179,3.2748189582824705
1789453372682800000,9.298800048828125,-7.069179676818847,-4.030788132476807,2.522441086578369
1789453372692741000,9.3087412109375,-6.994061599731445,-4.044854067230224,2.4232313552856444
1789453372702682000,9.31868212890625,-6.97805037612915,-4.128800762939453,3.0858266647338866
1789453372712623000,9.328623046875,-7.311742232513427,-4.34113652267456,3.3405098663330075
1789453372722564000,9.338564208984375,-7.400028418731689,-4.210502894592285,3.1100679565429687
1789453372732505000,9.348505126953125,-7.471704830932617,-4.151246403503418,3.1688755348205566
1789453372742446000,9.358446044921875,-6.984933705902099,-4.077923977661133,3.2722751190185546
1789453372752387000,9.368386962890625,-7.14399847869873,-4.018966761779785,3.1809961807250975
1789453372762328000,9.378328125,-7.377582778167724,-3.9867946769714355,2.8667572128295897
1789453372772269300,9.388269287109376,-6.931064168548583,-4.008941042327881,2.7446529281616208
1789453372782210000,9.3982099609375,-6.4363622505187985,-4.154688068389892,2.747645680236816
1789453372792151300,9.4081513671875,-6.542604949188232,-4.619312828063965,2.3906103576660156
1789453372802092300,9.41809228515625,-6.760327662658691,-4.761917464447021,2.470067925262451
1789453372812033300,9.428033203125,-6.772597946166992,-4.975300687408447,2.8028619560241697
1789453372821973000,9.437972900390625,-6.7106479782104484,-5.192873763275146,2.7247511268615723
1789453372831914200,9.447914306640625,-6.787262431335448,-5.008819510650635,2.5713725830078125
1789453372841855200,9.457855224609375,-7.077110469818114,-4.783166004180908,2.6497826873779293
1789453372851796200,9.467796142578125,-6.841880156707763,-4.745606965637207,3.001730331420898
1789453372861737200,9.4777373046875,-6.889165639495849,-5.366902296447754,3.1944635650634763
1789453372871678200,9.48767822265625,-6.928370691680907,-6.192153681182861,3.0238766967773434
1789453372881619200,9.497619140625,-7.5810899192810055,-6.32682752456665,2.629282335662842
1789453372891560200,9.507560302734374,-6.711096891021728,-6.315155791473388,2.7705402336120604
1789453372901501200,9.517501220703124,-6.3627405494689935,-6.301838044738769,2.589628370666504
1789453372911442200,9.527442138671875,-7.2060980842590325,-6.223427940368652,2.2890064247131345
1789453372921383200,9.537383056640625,-7.277475221252441,-6.204723239898681,2.15792388381958
1789453372931324200,9.54732421875,-7.20759446029663,-6.347327876281738,2.1965303855895995
1789453372941265200,9.55726513671875,-7.378630241394043,-6.829759510803222,2.7398645248413085
1789453372951206100,9.5672060546875,-7.089829666137695,-7.12529377822876,3.5550901901245116
1789453372961147400,9.5771474609375,-6.940640975189209,-7.645583726501465,3.6960488128662106
1789453372971088100,9.587088134765626,-6.828562409973144,-8.175600119018554,3.171120098876953
1789453372981029400,9.597029296875,-6.904727950286865,-8.260594277954102,2.4465748214721676
1789453372990970000,9.60697021484375,-7.097461183929443,-8.054094384765625,2.360233924102783
1789453373000911400,9.616911376953125,-6.865373260498046,-7.560589567565917,2.4787469062805174
1789453373010852000,9.62685205078125,-6.991966673278808,-7.442675135803222,2.599055539703369
1789453373020792300,9.636792236328125,-6.473173101043701,-7.487865692138671,2.971054622650146
1789453373030733000,9.646733154296875,-6.465391945648193,-7.79552060546875,2.8112416618347167
1789453373040674300,9.65667431640625,-6.689249800872802,-8.053346196746826,2.5438392639160154
1789453373050615300,9.666615234375,-6.452672749328613,-8.1464207862854,1.8248305778503418
1789453373060556300,9.676556396484376,-6.209362005615234,-8.314763090515136,1.4006079711914061
1789453373070497300,9.686497314453124,-5.923554182434081,-8.406341304016113,1.5981296081542968
1789453373080438000,9.69643798828125,-5.567715960693359,-8.350975390624999,2.1154268043518063
1789453373090379300,9.706379150390624,-5.438578708648682,-8.198045759582518,2.100911956787109
1789453373100320000,9.716320068359375,-5.167136095428466,-7.849240505218505,1.7886182777404784
1789453373110261200,9.72626123046875,-4.759523262786865,-7.5059718421936035,1.511788710784912
1789453373120202200,9.7362021484375,-4.949862294769287,-7.34810417022705,1.1222820281982422
1789453373130143200,9.746143310546875,-5.090820917510986,-7.826046676635742,0.8348281913757324
1789453373140084200,9.756084228515626,-5.349394696807861,-7.738508678436279,1.7386393180847166
1789453373150025200,9.766025146484376,-5.708524945831298,-7.765742722320557,2.696319982147217
1789453373159966200,9.77596630859375,-5.785289036560059,-7.7389575912475586,3.0927099945068357
1789453373169907200,9.7859072265625,-5.436483782196045,-7.785045973205566,2.9071593658447266
1789453373179848200,9.79584814453125,-5.098302797698974,-7.879317663574218,2.5380033973693847
1789453373189789200,9.8057890625,-5.3381718765258785,-8.109161022949218,1.9011457557678222
1789453373199730200,9.815730224609375,-5.828235028839111,-8.554183256530761,1.3657424095153807
1789453373209671200,9.825671142578125,-5.732466962432861,-8.450185121917723,1.7877204521179197
1789453373219611100,9.835611083984375,-5.439626171875,-8.672845876312255,2.990357873535156
1789453373229552400,9.845552490234375,-5.38201569442749,-9.144353965759278,3.2173581184387205
1789453373239493000,9.8554931640625,-5.374234539031982,-9.296834683990477,2.290053887939453
1789453373249434000,9.86543408203125,-4.924872814941406,-9.509768994140625,1.4241010749816894
1789453373259375000,9.875375,-4.80097287902832,-9.605686698150635,1.3492822731018066
1789453373269316000,9.885316162109374,-4.849305825042724,-9.702053314971923,1.39821376953125
1789453373279257300,9.89525732421875,-4.841674307250976,-9.860968450164794,1.1924620643615722
1789453373289198000,9.905197998046875,-5.468506229400634,-9.455450543975829,1.9723732551574706
1789453373299139300,9.915139404296875,-5.531802935791015,-9.826701438903807,2.0816087059020996
1789453373309080000,9.925080078125,-5.689969882965087,-9.683498252105712,2.1734861946105957
1789453373319021300,9.935021240234375,-5.377975479125976,-9.607332711791992,1.680430290222168
1789453373328962000,9.944962158203126,-5.204994409179688,-9.151835845947264,1.0666168395996094
1789453373338903300,9.9549033203125,-5.347449407958984,-8.997709114074706,1.2695254302978516
1789453373348844300,9.96484423828125,-5.0757075195312495,-8.780435313415527,1.860893240356445
1789453373358785300,9.974785400390624,-4.611082759857178,-8.690203838348388,1.9859902770996092
1789453373368726300,9.984726318359375,-4.121618157958984,-8.777442561340331,1.5206173294067382
1789453373378667000,9.9946669921875,-4.170400016784668,-8.82308203048706,0.9796773918151855
1789453373388608300,10.004608154296875,-4.725256251525878,-8.88009395751953,0.9515455223083495
1789453373398549200,10.01454931640625,-4.917839847564697,-8.78432589111328,1.2369044326782226
1789453373408490200,10.024490234375,-4.723610237884521,-8.917503358459472,1.2256816123962402
1789453373418431200,10.03443115234375,-4.44348864364624,-8.992322160339356,1.5164274765014647
1789453373428371200,10.04437109375,-4.425382493591308,-8.634987562561035,1.696291876220703
1789453373438312200,10.054312255859376,-4.383783239746093,-8.801384577941894,1.1704653366088866
1789453373448253200,10.064253173828124,-4.298789080810547,-8.49717132949829,1.055244381713867
1789453373458194200,10.074194091796874,-4.1946413085937495,-8.142380570983887,1.0727519813537596
1789453373468135200,10.08413525390625,-4.078971440887451,-8.010400204467773,0.9834183319091796
1789453373478076200,10.094076171875,-4.144811986541748,-7.900266928100585,1.1124059463500975
1789453373488017400,10.104017333984375,-4.3254245742797846,-7.943362557983398,1.3527239379882812
1789453373497958100,10.113958251953125,-4.531475554656982,-8.349479014587402,1.495777487182617
1789453373507899400,10.1238994140625,-5.17791000289917,-8.74616830215454,1.839345425415039
1789453373517840100,10.133840087890626,-5.830928505706787,-8.75888749847412,2.366219428253174
1789453373527781400,10.143781494140624,-6.215497147369384,-8.74646757736206,2.5948656867980957
1789453373537722000,10.15372216796875,-6.511629965209961,-8.610746270751953,2.9114988563537594
1789453373547663000,10.1636630859375,-6.662165394592285,-8.410082244110107,2.9864672958374023
1789453373557604400,10.173604248046875,-6.271461611175536,-8.227823642730712,2.7424083641052244
1789453373567545000,10.183545166015625,-5.663932939910889,-7.779210106658935,2.7398645248413085
1789453373577486300,10.193486328125,-5.301809938812256,-7.595155854034424,2.7129297561645505
1789453373587427000,10.203427001953125,-4.988917709350585,-7.928847710418701,2.4384943908691405
1789453373597368300,10.213368408203126,-5.01151298751831,-7.461230198669433,2.3617303001403807
1789453373607309000,10.22330908203125,-5.378723667144775,-7.520337052154541,2.4670751731872556
1789453373617250300,10.233250244140624,-6.015581308746338,-7.676857985687255,2.8980314720153806
1789453373627191300,10.24319140625,-6.3147068786621094,-7.945307846832275,3.2980127868652342
1789453373637132300,10.25313232421875,-6.3709706176757805,-8.262090653991699,3.2881367050170898
1789453373647072300,10.263072265625,-6.416909362030029,-7.873631434631347,3.2845454025268555
1789453373657013200,10.27301318359375,-6.342240197753906,-8.64486364440918,2.653822902679443
1789453373666954200,10.282954345703125,-6.821828717803955,-8.035090409088134,2.71352830657959
1789453373676895200,10.292895263671875,-6.824222919464111,-7.415441091918945,2.8679543136596677
1789453373686836200,10.302836181640625,-6.5224038726806635,-7.102848137664795,3.0904654304504393
1789453373696777200,10.312777099609375,-6.395810459899902,-6.939144599151611,3.2619501243591307
1789453373706718200,10.32271826171875,-6.17344898071289,-6.9916673980712885,3.137302000427246
1789453373716659200,10.3326591796875,-6.058377663421631,-6.843077257537842,3.183988932800293
1789453373726600200,10.34260009765625,-5.814019456481933,-7.6659344406127925,2.840121719360351
1789453373736541200,10.352541259765625,-5.963657060241699,-7.8447513771057125,2.976441576385498
1789453373746482200,10.362482177734375,-6.788459532165527,-7.486369316101074,3.183240744781494
1789453373756423200,10.372423095703125,-6.998251452636718,-7.357381701660156,3.4567782844543453
1789453373766364000,10.382364013671875,-7.15671767501831,-7.349450908660888,3.6272155151367187
1789453373776304600,10.3923046875,-7.114519870758056,-7.160009702301025,3.720739017486572
1789453373786246000,10.402245849609375,-6.703914286041259,-6.686855599212646,3.453186981964111
1789453373796187000,10.412186767578126,-6.679523356628418,-6.5756748596191406,3.4112884529113767
1789453373806127900,10.4221279296875,-6.791452284240722,-6.833201175689696,3.7503672630310056
1789453373816068900,10.43206884765625,-7.097610821533203,-6.768557730865478,3.743783208465576
1789453373826009900,10.442009765625,-7.500435250854491,-6.516418368530273,4.049941745758057
1789453373835950800,10.451950927734375,-7.3383777259826655,-6.460154629516601,3.8673838691711424
1789453373845891800,10.461891845703125,-6.995557975769042,-6.5677440666198725,3.2392052085876464
1789453373855832800,10.471832763671875,-7.122001750946045,-6.338050344848632,2.843713021850586
1789453373865772800,10.481772705078125,-7.075464456176757,-5.977573357391357,2.5770588119506836
1789453373875713800,10.4917138671875,-7.727884408569335,-5.70119270324707,2.9798832412719727
1789453373885655000,10.501655029296876,-8.04421830291748,-5.922955632019042,3.6629789024353023
1789453373895595800,10.511595703125,-8.54281079864502,-6.536320169830322,4.384082514953613
1789453373905536800,10.521536865234374,-7.824251025390624,-6.896946794891357,3.7892730400085446
1789453373915477800,10.531477783203124,-6.838588129425048,-6.64600453338623,2.6235961067199707
1789453373925418800,10.541418701171875,-5.824494088745117,-5.855618710327148,1.7322049011230467
1789453373935359700,10.55135986328125,-5.26095887298584,-5.023184720611572,1.1795932304382324
1789453373945300700,10.56130078125,-5.55439821395874,-4.38587816619873,1.3482348098754882
1789453373955242000,10.571241943359375,-6.340444546508789,-4.238036213684082,1.8652327308654784
1789453373965182700,10.5811826171875,-7.179761865997314,-4.383633602142334,2.6645968101501465
1789453373975124000,10.5911240234375,-7.604283747863769,-4.821922143554687,3.3367689262390137
1789453373985064700,10.601064697265626,-7.707683332061767,-5.190629199218749,3.466055815887451
1789453373995006000,10.611005859375,-7.321019763946532,-5.527463445281982,2.644994284057617
1789453374004946700,10.62094677734375,-6.973261972808838,-5.423166035461425,2.22166950302124
1789453374014888000,10.630887939453125,-7.001393842315673,-5.17776036529541,2.3663690658569334
1789453374024829000,10.640828857421875,-7.672069582366943,-4.795885200500488,2.947112606048584
1789453374034769700,10.650769775390625,-7.350797647094726,-4.908711953735351,3.0412346588134764
1789453374044711000,10.6607109375,-6.369174966430664,-4.942679689788818,2.4179940391540526
1789453374054651600,10.670651611328125,-5.778555344390869,-4.22636448059082,2.2629694816589354
1789453374064593000,10.680593017578126,-6.366481489562988,-3.9845501129150387,2.572120771026611
1789453374074534000,10.690533935546876,-7.6187985954284665,-4.010736693572998,2.4779987182617185
1789453374084475000,10.700474853515624,-7.324311791229247,-4.096778315734863,2.736871772766113
1789453374094414600,10.71041455078125,-6.5668462409973145,-4.1241619972229,2.9478607940673824
1789453374104355800,10.72035595703125,-7.056610118103027,-3.991583080291748,2.6599580444335937
1789453374114296800,10.730296875,-7.262212185668945,-3.937563905334472,2.3464672645568845
1789453374124237800,10.74023779296875,-7.433547241973876,-3.873967923736572,2.3108535148620604
1789453374134178800,10.7501787109375,-7.653664157104492,-3.6728549842834473,2.7913398605346678
1789453374144119800,10.760119873046875,-7.828440878295898,-3.4802713882446286,3.05170929107666
1789453374154060800,10.770060791015625,-8.224980528259277,-3.815160345458984,3.2468367263793945
1789453374164002000,10.780001953125,-7.894281423950195,-4.154388793182373,3.6336499320983884
1789453374173942800,10.78994287109375,-7.194426351165771,-4.646247596740722,3.2002994316101074
1789453374183884000,10.799884033203124,-7.18200643005371,-4.6359226020812985,2.681954772186279
1789453374193824800,10.80982470703125,-7.199364392089843,-4.524292949676513,2.5055320373535155
1789453374203765800,10.819765869140625,-7.000645654296875,-4.4279263328552245,2.6789620201110838
1789453374213706800,10.829706787109375,-7.072770979309082,-4.039018200683594,2.7424083641052244
1789453374223647700,10.839647705078125,-7.161356440734862,-3.770418701934814,2.4998458084106443
1789453374233589000,10.849589111328125,-7.560439929962158,-3.7829882606506344,2.4685715492248534
1789453374243529700,10.85952978515625,-7.977479931640625,-3.9010523300170896,2.679410932922363
1789453374253471000,10.869470947265626,-7.921665105438232,-4.2220249900817866,3.006369097137451
1789453374263411700,10.87941162109375,-7.394491827392578,-4.496909268188476,3.31985987701416
1789453374273353000,10.88935302734375,-7.5822870201110835,-4.837933367156982,2.8565818557739258
1789453374283293700,10.899293701171874,-7.596652230072021,-5.128978506469727,2.554463533782959
1789453374293235000,10.90923486328125,-6.649296560668945,-5.36316135635376,2.5197476097106932
1789453374303176000,10.919176025390625,-6.50579409866333,-5.513247872924804,2.161814461517334
1789453374313116000,10.929115966796875,-6.688351975250244,-5.537638802337646,1.6675614562988281
1789453374323057000,10.939056884765625,-6.798036338806152,-5.284900889587402,1.6448165405273436
1789453374332998000,10.948997802734375,-7.024737308502197,-4.92876339263916,2.086397109222412
1789453374342939000,10.95893896484375,-7.186196282958984,-4.735431608581543,2.6116250984191893
1789453374352879900,10.9688798828125,-6.99735362701416,-4.848707274627685,2.831891651153564
1789453374362820900,10.97882080078125,-6.723816087341308,-5.326500143432617,2.5980080764770506
1789453374372761600,10.98876171875,-6.8128504615783685,-5.852027407836914,2.5041852989196776
1789453374382702800,10.998702880859375,-6.919242797851562,-6.194847158050536,2.714725407409668
1789453374392643800,11.008643798828125,-7.123198851776123,-6.160280871582031,2.8479028747558592
1789453374402584800,11.018584716796875,-7.391199800109863,-6.1924529563903805,2.8808231475830075
1789453374412525800,11.02852587890625,-7.396137841033935,-6.222829389953613,3.2152631919860837
1789453374422466800,11.038466796875,-7.098807922363281,-6.222380477142334,3.5708021385192867
1789453374432407800,11.04840771484375,-7.0555626548767085,-6.332214478302002,3.349039209747314
1789453374442348800,11.058348876953126,-6.931213806152344,-6.508038662719726,3.176806327819824
1789453374452289800,11.068289794921874,-6.814197200012207,-6.735038907623291,3.1842882080078123
1789453374462231000,11.07823095703125,-6.815543938446044,-6.993463049316406,2.89219560546875
1789453374472171800,11.088171875,-6.736236008453369,-7.580790644073486,2.3068132995605466
1789453374482112800,11.09811279296875,-6.798036338806152,-8.000673760223389,2.256235789489746
1789453374492053800,11.1080537109375,-6.602759265899658,-8.114996889495849,2.475754154205322
1789453374501994800,11.117994873046875,-6.52464843673706,-8.259696452331543,2.497002693939209
1789453374511935700,11.127935791015625,-6.4743702018737785,-8.30518628387451,2.7359739471435547
1789453374521876700,11.137876708984376,-6.024110652160644,-8.134300140380859,2.466177347564697
1789453374531818000,11.14781787109375,-6.227617793273925,-7.979125945281982,1.96638775100708
1789453374541757700,11.1577578125,-6.1842228881835934,-8.110058848571777,2.0094833808898924
1789453374551699000,11.167698974609374,-5.66917025604248,-8.028356716918944,2.117072817993164
1789453374561639700,11.1776396484375,-4.891653266906738,-7.799111907958984,2.0316297462463377
1789453374571581000,11.187580810546875,-4.895693482208252,-7.996483907318114,1.7847277000427244
1789453374581521700,11.197521728515625,-5.498284112548828,-8.31880330581665,1.0109516510009764
1789453374591463000,11.207462890625,-5.629067378234863,-8.149563175964355,0.9084498924255371
1789453374601403600,11.217403564453125,-5.710619872283935,-7.768585836791992,1.8189947113037108
1789453374611345000,11.227344970703125,-5.869834282684326,-7.917175977325439,2.777872476196289
1789453374621286000,11.237285888671876,-5.416282705688476,-8.540865509796141,2.9219734886169433
1789453374631227000,11.247226806640626,-5.166986457824707,-8.66282015686035,2.29199917678833
1789453374641168000,11.25716796875,-5.1399020515441896,-8.903587061309814,1.7536030784606933
1789453374651108900,11.26710888671875,-4.909609779357909,-8.716839331817626,1.4592659118652342
1789453374661049900,11.2770498046875,-4.729895017242431,-8.4911858253479,1.3013982398986816
1789453374670990800,11.286990966796875,-4.696376194000244,-8.148515712738037,1.259050798034668
1789453374680931800,11.296931884765625,-4.576666110992432,-7.766341272735596,1.3979144943237305
1789453374690872800,11.306872802734375,-4.711190316772461,-8.3762641456604,1.4592659118652342
1789453374700813800,11.316813720703125,-5.2073886108398435,-8.826822970581054,1.8870798210144042
1789453374710754800,11.3267548828125,-5.724835444641113,-9.460538222503661,2.1128829650878904
1789453374720695800,11.33669580078125,-5.9193643295288085,-9.97125136413574,2.418442951965332
1789453374730636800,11.34663671875,-5.702240166473389,-10.171167202758788,2.6282348724365234
1789453374740578000,11.356578125,-5.640589473724365,-10.224737464904784,2.5043349365234375
1789453374750518800,11.366518798828125,-5.185391883087158,-9.816077169036864,1.9508254402160643
1789453374760459000,11.376458984375,-4.869656539154052,-9.407716148376464,1.6660650802612305
1789453374770400000,11.38639990234375,-4.94133295135498,-9.16784706954956,1.8511667961120604
1789453374780341000,11.396341064453125,-5.175665438842773,-9.024344607543945,2.1627122871398923
1789453374790282000,11.406281982421875,-5.446060588836669,-9.098864134216308,2.4245780937194823
1789453374800223000,11.416222900390625,-5.440972910308838,-9.42911432571411,2.3427263244628906
1789453374810164000,11.4261640625,-5.177012177276611,-9.638756608581543,2.16405902557373
1789453374820105000,11.43610498046875,-4.933252520751953,-9.179518802642821,1.966986301422119
1789453374830046000,11.4460458984375,-4.70505517501831,-9.179369165039063,1.1552023010253905
1789453374839987000,11.455987060546875,-4.460397692871093,-8.830713548278808,1.0263643241882323
1789453374849928000,11.465927978515625,-4.2509050476074215,-8.321945695495605,1.1013327636718748
1789453374859869000,11.475868896484375,-4.0714895606994626,-8.090755597686767,0.9765350021362305
1789453374869810000,11.485809814453125,-3.9374142677307127,-7.97403826675415,0.9546879119873046
1789453374879751000,11.4957509765625,-4.04784681930542,-8.251915296936035,1.2023381462097167
1789453374889692200,11.505692138671876,-4.193893120574951,-8.634688287353516,1.4080898513793945
1789453374899633000,11.5156328125,-4.560954162597656,-9.013121787261962,1.4226046989440917
1789453374909574100,11.52557421875,-4.793042086029052,-9.192986186981202,1.1873743858337402
1789453374919515000,11.535514892578124,-4.979340902709961,-9.35249987258911,1.0990881996154784
1789453374929455900,11.545455810546875,-5.089324541473388,-9.070732264709472,1.2065279991149902
1789453374939396900,11.55539697265625,-5.050718039703368,-8.825176956939696,1.4103344154357909
1789453374949337900,11.565337890625,-4.758625437164306,-8.804078054809569,1.6668132682800292
1789453374959279000,11.575279052734375,-4.442890093231201,-8.94443812713623,1.424998900604248
1789453374969219800,11.5852197265625,-4.7010149597167965,-9.002796792602538,1.368735161590576
1789453374979160000,11.59516015625,-4.905569564056396,-8.902838873291016,1.5343839889526367
1789453374989101000,11.60510107421875,-5.304054502868652,-8.936956246948242,1.8691233085632324
1789453374999042000,11.6150419921875,-5.50965657043457,-8.729708165740966,2.2985832313537595
1789453375008982800,11.624982666015624,-5.342062454223632,-8.398260873413085,2.4742577781677246
1789453375018924000,11.634924072265624,-5.306149429321289,-7.883956429290771,2.4441806198120117
1789453375028864800,11.64486474609375,-5.47763412322998,-8.233509871673583,2.357839722442627
1789453375038806000,11.654805908203125,-5.539883366394043,-7.953388277435303,2.299032144165039
1789453375048747000,11.6647470703125,-5.745485433959961,-7.800907559204101,2.6262895835876465
1789453375058688000,11.67468798828125,-5.664681127929687,-7.566575071716308,3.11545491027832
1789453375068629000,11.68462890625,-5.601683696746826,-7.267299864196777,3.0151977157592773
1789453375078570000,11.694570068359376,-5.905148757171631,-7.820210810089111,2.880074959564209
1789453375088511000,11.704510986328126,-6.257096401214599,-8.001870861053467,3.0493150894165035
1789453375098452000,11.714451904296874,-6.417507912445068,-7.920318367004394,3.234267167663574
1789453375108393000,11.72439306640625,-6.3323641159057615,-7.777115180206298,3.2601544731140133
1789453375118334000,11.734333984375,-6.3347583175659175,-7.602488096618652,3.309684519958496
1789453375128275000,11.74427490234375,-6.17374825592041,-7.821407910919189,3.4659061782836913
1789453375138216000,11.7542158203125,-5.941510694885253,-7.410353413391113,3.481917401885986
1789453375148157000,11.764156982421875,-5.801599535369872,-7.2997712242126465,3.2908301818847656
1789453375158098000,11.774097900390625,-5.792022728729248,-7.398232767486572,3.0687679779052734
1789453375168039000,11.784038818359376,-6.019022973632812,-7.294833183288574,2.8407202697753906
1789453375177980000,11.79397998046875,-6.132149002075195,-7.402721895599365,3.0072669227600097
1789453375187921200,11.803921142578124,-6.310965938568115,-7.601590270996093,3.1727661125183104
1789453375197860900,11.81386083984375,-6.672041476440429,-7.278821959686279,3.5544916397094726
1789453375207802000,11.823802001953124,-6.750451580810546,-6.986430081939697,3.7030817802429197
1789453375217742800,11.833742919921875,-6.537816545867919,-7.287650578308105,3.650558981323242
1789453375227684000,11.84368408203125,-6.932261269378662,-7.15701695022583,3.7485716117858883
1789453375237624800,11.853624755859375,-7.353640761566162,-7.132925296020507,3.997867859649658
1789453375247566000,11.863566162109375,-7.259817984008788,-7.211784313201904,4.125957648468018
1789453375257506800,11.8735068359375,-7.219864743804931,-7.062595622253418,3.7571009552001953
1789453375267448000,11.883447998046876,-7.001543479919433,-7.174823825073242,3.582922784423828
1789453375277389000,11.89338916015625,-6.458957528686523,-7.094169156646728,3.167678433990478
1789453375287329800,11.903329833984374,-6.649296560668945,-6.344484761810302,2.825606871795654
1789453375297271000,11.91327099609375,-6.809408796691894,-5.992986030578613,2.9575872383117674
1789453375307211800,11.923211669921875,-6.630891135406494,-6.081870767211914,3.0750527572631836
1789453375317153000,11.933153076171875,-7.3274541809082026,-6.079775840759277,2.983923456573486
1789453375327093800,11.94309375,-7.569717461395263,-5.672611920928955,3.0442274108886718
1789453375337035000,11.953034912109375,-7.343465404510497,-5.6574985229492185,3.360710942840576
1789453375346976000,11.96297607421875,-7.4025722579956055,-5.442618923950195,3.488351818847656
1789453375356917000,11.9729169921875,-7.5737576766967765,-5.572354726409912,3.377769629669189
1789453375366858000,11.98285791015625,-7.461679111480713,-6.0407204261779786,3.0743045692443847
1789453375376799000,11.992799072265624,-8.04975489425659,-5.966799449920654,2.804059056854248
1789453375386740000,12.002739990234375,-7.325957804870605,-5.691316621398926,2.3344962562561036
1789453375396681000,12.012680908203125,-6.69104545211792,-5.334131661224365,2.4730606773376462
1789453375406621000,12.022620849609375,-5.9187657791137696,-5.579088418579102,2.638559867095947
1789453375416562000,12.03256201171875,-6.284779357910156,-5.706729294586181,2.6816554969787596
1789453375426503000,12.0425029296875,-6.8673185493469235,-5.201403106689453,2.406322306060791
1789453375436444200,12.052444091796875,-7.027131510162353,-4.774187747955322,2.2034137153625486
1789453375446385000,12.062385009765626,-7.685237691497802,-4.914098907470703,2.620154441833496
1789453375456326000,12.072325927734376,-8.303240995025634,-5.215319403839111,3.047220162963867
1789453375466267000,12.082266845703124,-7.804798136901855,-5.128230318450927,3.413533016967773
1789453375476207900,12.092207763671874,-7.018003616333007,-5.207238973236084,2.854337291717529
1789453375486148900,12.10214892578125,-6.624905631256103,-4.780322889709472,2.0540753868103026
1789453375496089900,12.11208984375,-6.310367388153076,-4.149151477050781,2.250549560546875
1789453375506031000,12.122031005859375,-5.9968766082763665,-3.7759552932739258,2.50238964767456
1789453375515971800,12.131971923828125,-6.065260993194579,-3.732859663391113,2.513313192749023
1789453375525913000,12.1419130859375,-6.521954959869384,-3.7762545684814453,2.2198738517761227
1789453375535853800,12.151853759765626,-7.284059275817871,-3.7045781562805176,2.0618565422058106
1789453375545795000,12.161795166015626,-7.3861121215820305,-3.622427111816406,2.928407905578613
1789453375555736000,12.171736083984374,-6.497564030456543,-3.820996212005615,3.257311358642578
1789453375565676800,12.1816767578125,-6.297947467041015,-3.8997055915832517,2.5598504875183106
1789453375575618000,12.1916181640625,-6.840383780670166,-3.8394016372680664,2.3508067550659177
1789453375585558800,12.201558837890625,-7.151480358886718,-4.3531075309753415,2.587383806610107
1789453375595500000,12.2115,-7.331793671417236,-4.457255303192138,2.549675130462646
1789453375605440800,12.221440673828125,-8.02566324005127,-4.405779967498779,2.839672806549072
1789453375615382000,12.231382080078125,-8.156895418548583,-4.304026396942138,3.2597055603027343
1789453375625322000,12.241322021484375,-8.090456322479248,-4.374655345916747,3.3924341148376462
1789453375635263000,12.251262939453126,-7.879317663574218,-4.441842630004882,3.3078888687133787
1789453375645204000,12.261203857421876,-7.977629569244384,-4.288763361358642,3.0564976943969726
1789453375655145000,12.27114501953125,-8.29336491317749,-4.08600440826416,3.1305683082580567
1789453375665086000,12.2810859375,-7.656656909179687,-4.134636629486084,3.206883486175537
1789453375675027000,12.29102685546875,-7.075464456176757,-4.119672869110107,2.927958992767334
1789453375684968000,12.300968017578125,-7.172279985809325,-4.093486288452148,2.497002693939209
1789453375694909000,12.310908935546875,-6.900388459777831,-4.16306777420044,2.307262212371826
1789453375704850000,12.320849853515625,-6.814496475219726,-4.082263468170166,2.1459528755187987
1789453375714791200,12.330791259765626,-6.815543938446044,-3.9613562843322754,2.1588217094421385
1789453375724732000,12.34073193359375,-6.675932054138183,-3.9878421401977535,2.570175482177734
1789453375734673000,12.3506728515625,-6.7182794960021965,-4.280533293151855,2.6300305236816404
1789453375744614000,12.36061376953125,-6.765564978790283,-4.806210195159911,2.315641918182373
1789453375754555000,12.370554931640624,-6.973561248016357,-5.334580574035644,1.9660884757995605
1789453375764496000,12.380495849609375,-7.08055213470459,-5.6304141166687005,1.9053356086730955
1789453375774436600,12.3904365234375,-7.505822204589843,-5.679345613098144,2.2909517135620114
1789453375784377900,12.4003779296875,-7.481131999969482,-5.645677152252197,2.966864769744873
1789453375794318600,12.410318603515625,-7.36770669631958,-5.607669200897217,3.070114716339111
1789453375804259800,12.420259765625,-7.686883705139159,-5.588814862823486,2.6330232757568357
1789453375814200600,12.43020068359375,-7.334636785888671,-5.403862784576416,2.288856787109375
1789453375824141800,12.440141845703126,-7.184699906921386,-5.46461565170288,2.336142269897461
1789453375834081500,12.45008154296875,-6.985831531524658,-5.569212336730956,2.710685192108154
1789453375844022800,12.460022705078124,-6.430227108764648,-5.780201358032226,3.0084640235900877
1789453375853963500,12.469963623046874,-6.711396166229248,-5.989095452880859,3.0234277839660644
1789453375863904800,12.47990478515625,-6.528090101623535,-5.927893672943115,2.5393501358032227
1789453375873845800,12.489845703125,-6.43531478729248,-5.961412496185303,2.0106804817199704
1789453375883786800,12.499786865234375,-6.91430475692749,-6.344933674621582,2.1294927391052245
1789453375893727700,12.509727783203125,-6.600065789031982,-6.64630380859375,2.826504697418213
1789453375903668700,12.519668701171875,-6.874501154327392,-7.0078282592773435,3.390788101196289
1789453375913609700,12.529609619140626,-7.1224506637573235,-7.456142520141601,3.4434605377197265
1789453375923550700,12.53955078125,-7.093720243835449,-7.719953615570068,3.328688495635986
1789453375933491700,12.54949169921875,-6.770203744506835,-7.8238021125793455,3.0852281143188476
1789453375943432700,12.5594326171875,-6.620865415954589,-7.695861961364746,2.5329157188415525
1789453375953373700,12.569373779296875,-6.456862602233886,-7.315932085418701,1.628655679321289
1789453375963314700,12.579314697265625,-6.328323900604247,-7.438335645294189,1.2336124053955078
1789453375973255700,12.589255615234375,-6.638373015594482,-7.976881381225586,1.5919944664001464
1789453375983196700,12.59919677734375,-6.259640240478515,-8.223633789825438,2.5535657081604004
1789453375993137700,12.6091376953125,-5.987000526428222,-8.339752570343016,3.2570120834350584
1789453376003078700,12.61907861328125,-6.138284143829345,-8.591592657470702,3.0138509773254394
1789453376013020000,12.62902001953125,-5.8226984375,-8.787318643188476,2.2186767509460448
1789453376022960600,12.638960693359374,-5.620837310028076,-8.950124356079101,1.3002011390686035
1789453376032900900,12.64890087890625,-5.867290443420409,-8.973767097473145,1.0863690032958984
1789453376042841600,12.658841552734375,-5.472247169494628,-8.921992486572265,1.4267945518493652
1789453376052782800,12.668782958984375,-5.165340444183349,-8.607005330657959,2.0561703132629394
1789453376062723600,12.6787236328125,-5.139752413940429,-8.323890984344482,2.13248549118042
1789453376072664800,12.688664794921875,-5.0471267372131345,-8.507496324157714,1.7253215713500976
1789453376082605600,12.69860546875,-5.231779540252686,-8.643516905975341,1.1052233413696289
1789453376092546800,12.708546875,-5.250783515930175,-8.643067993164061,0.9853636207580566
1789453376102487800,12.71848779296875,-5.138405675506592,-8.957755873870848,1.1673229469299315
1789453376112428500,12.728428466796874,-5.409100100708008,-9.356390450286865,1.449838742828369
1789453376122369800,12.738369873046874,-5.265896913909912,-9.325714741516112,1.9282301620483397
1789453376132310500,12.748310546875,-5.088426715850829,-9.184157568359375,2.1312883903503415
1789453376142251800,12.758251708984375,-5.271583142852783,-9.166201055908203,2.0943279022216794
