time,seconds_elapsed,z,y,x
1789453363445275400,0.061275390625,0.0990881507396698,-0.34237492905557154,0.10825498833991587
1789453363455216000,0.071216064453125,0.047779988306760786,-0.3193833450466394,0.3775418117657304
1789453363465157400,0.081157470703125,-0.30767011089921,-0.34316286456286904,0.4658903956957161
1789453363475098000,0.09109814453125,-0.6472095242679119,-0.20639935542345045,0.5461381638217717
1789453363485038300,0.101038330078125,-0.7476198635220527,-0.02652443431019783,0.5319536441899836
1789453363494979000,0.11097900390625,-0.8317313944041729,-0.30686288616955276,0.3329357773199677
1789453363504920300,0.12092041015625,-0.8795791872501373,-0.7532283510535955,0.0449352664001286
1789453363514861000,0.130861083984375,-0.9074357469469309,-0.9444593634396791,-0.2448756549425423
1789453363524802300,0.14080224609375,-1.0009680171251296,-1.0016495696485042,-0.4222957302495837
1789453363534742000,0.150741943359375,-1.1856471236497164,-0.8542647132515907,-0.4664033867191523
1789453363544683300,0.160683349609375,-1.2364713019579647,-0.7011316685914993,-0.46004400775507087
1789453363554624300,0.170624267578125,-1.218337679374218,-0.6956628817915916,-0.5309492163877934
1789453363564565200,0.180565185546875,-1.1485679775774478,-0.69691551220119,-0.6690615828529
1789453363574505200,0.190505126953125,-0.9731219788223504,-0.610989040851593,-0.7509759690169244
1789453363584446200,0.2004462890625,-0.6510054094195366,-0.41548984962701796,-0.7204114655356854
1789453363594387200,0.21038720703125,-0.1362888773649931,-0.11188801108002662,-0.49875462748669086
1789453363604328200,0.220328125,0.5549965199947356,0.02300035183727741,-0.21788711025193333
1789453363614268400,0.230268310546875,1.061608071526885,-0.07150865441858768,-0.05032645791918039
1789453363624209200,0.240209228515625,1.238091596636176,-0.12105506787598132,-0.03804280347265303
1789453363634150100,0.250150146484375,1.1998089199930428,-0.16844167295098303,-0.07414214472733438
1789453363644091100,0.260091064453125,1.130586915206909,-0.15599427931010723,-0.0872330239035189
1789453363654031400,0.27003125,1.0447679958850145,-0.04214811989963054,0.06490655273981392
1789453363663972000,0.27997216796875,0.7466361131817102,-0.01311433311700821,0.27561821840442713
1789453363673913300,0.289913330078125,0.5142167658388614,-0.0491734884917736,0.40278614313751454
1789453363683854000,0.29985400390625,0.27864216933548447,-0.10690963814556598,0.4200688479803502
1789453363693794300,0.309794189453125,-0.07396189278960227,-0.14989362434744835,0.40799693658836184
1789453363703735000,0.319735107421875,-0.31821488578915597,-0.19394377847611902,0.29719270215705035
1789453363713676300,0.32967626953125,-0.36921032901108264,-0.22536241456866263,0.1408302471216768
1789453363723617300,0.3396171875,-0.19543664738237856,-0.4228980800569057,0.019769187896326184
1789453363733558300,0.349558349609375,0.21715338914990423,-0.6467500900626182,-0.08090586670860647
1789453363743498000,0.359498046875,0.6032458793789148,-0.8349953646361827,-0.16083879673182963
1789453363753439200,0.369439208984375,0.7958966954350472,-0.9487538457632064,-0.16471541896946726
1789453363763380200,0.379380126953125,0.6949047569006681,-0.8971744651734829,-0.14973368454538286
1789453363773321500,0.389321533203125,0.3273053702175617,-0.659255351370573,-0.1504172098301351
1789453363783261200,0.39926123046875,-0.11002221720814705,-0.35777240467369553,-0.1428792155407369
1789453363793202400,0.409202392578125,-0.48213411287963387,-0.09121639445126056,-0.12148812553100287
1789453363803143200,0.41914306640625,-0.7640864296764135,0.13090484623908996,-0.06982113972306252
1789453363813084400,0.42908447265625,-0.7858592855453491,0.33519700025022026,0.01604746395945549
1789453363823024400,0.4390244140625,-0.6389420466601848,0.36028526427745816,0.07112425821088254
1789453363832965400,0.44896533203125,-0.3511240527004003,0.23159224886894225,0.0907812179043889
1789453363842906400,0.45890625,0.04567804759144783,0.060713119637966155,0.06401296490095555
1789453363852847400,0.468847412109375,0.2757780120760202,-0.0900818374633789,-0.006026932139322161
1789453363862787600,0.47878759765625,0.3452992920696735,-0.16697335396409033,-0.09586020166911184
1789453363872728300,0.488728271484375,0.3796861303180456,-0.2217296110242605,-0.17840141449458896
1789453363882669600,0.498669677734375,0.3567442306697368,-0.24764029735028742,-0.1550475730445236
1789453363892610300,0.5086103515625,0.302751943719387,-0.22624036644697187,-0.04800765958279371
1789453363902551300,0.51855126953125,0.1825736586779356,-0.1661082615673542,0.03451514080315828
1789453363912491300,0.5284912109375,0.17149989147782324,-0.04305763595998287,0.18051570323482155
1789453363922432500,0.5384326171875,0.244830500626564,0.02897124294042587,0.3689042587365955
1789453363932373200,0.548373291015625,0.40159167265594004,0.01254091714322567,0.5642693021874875
1789453363942314500,0.558314453125,0.6682827074348926,-0.0493044213950634,0.7638239793479442
1789453363952254200,0.568254150390625,0.8842471790611743,-0.16766659692525862,0.9333724444970488
1789453363962195500,0.578195556640625,0.9374117830157279,-0.2516132926344871,1.0721130989283323
1789453363972136200,0.58813623046875,0.9428542663305998,-0.2518517775654793,1.1559116914037615
1789453363982077400,0.598077392578125,0.948993499737978,-0.3085083152890205,1.112615132121369
1789453363992017200,0.60801708984375,0.8895382712066173,-0.5102952084809541,0.9153439627882093
1789453364001958400,0.61795849609375,0.7588403457164764,-0.7462889071792363,0.7693829286493361
1789453364011899400,0.6278994140625,0.6534551406592131,-0.8980150076508522,0.6474576538100838
1789453364021840400,0.63784033203125,0.46191082454025745,-0.8312298746228217,0.5240403137821704
1789453364031781400,0.647781494140625,0.1474292800605297,-0.5886310785710811,0.47602410556674
1789453364041721300,0.657721435546875,-0.23356968642175197,-0.35241409251093864,0.47866519466005264
1789453364051662300,0.667662353515625,-0.4857990651279688,-0.1580775153249502,0.48345440169796344
1789453364061603300,0.677603271484375,-0.6949503496080637,-0.02355506311058998,0.5494729342676699
1789453364071544300,0.68754443359375,-0.7524895153850316,0.0899117415934801,0.618305866670981
1789453364081484300,0.697484375,-0.6003694471597671,0.1228074645012617,0.6879162862528115
1789453364091425500,0.707425537109375,-0.2150111164242029,0.07621931632757187,0.7785979893054813
1789453364101366300,0.7173662109375,0.29924773499071594,-0.07453881589472293,0.9123604899980128
1789453364111307300,0.727307373046875,0.7290472649991512,-0.29580548558235165,0.9922758843645453
1789453364121247200,0.737247314453125,0.8373837210774421,-0.3600087854236364,0.9773922034874558
1789453364131188500,0.7471884765625,0.6714157447636127,-0.29613164879679676,0.8471358842849731
1789453364141129200,0.757129150390625,0.46325230227708813,-0.24387013116180895,0.6640574909552931
1789453364151070500,0.767070556640625,0.16912790164947508,-0.25201719726026056,0.5375638852871955
1789453364161011500,0.777011474609375,-0.2000719059675932,-0.3967348802745342,0.37935163766667246
1789453364170951400,0.786951416015625,-0.6534522180497646,-0.45791678646802897,0.15363091117963193
1789453364180892400,0.796892333984375,-1.0247720865607262,-0.39966684207320213,0.024758301420509814
1789453364190833400,0.80683349609375,-1.220167232888937,-0.2929594485014677,0.00010199906975030899
1789453364200774400,0.8167744140625,-1.2160948688834905,-0.07984627465307712,0.018304595236480235
1789453364210714400,0.82671435546875,-0.9077952279090881,0.22028993360996246,0.24761954682320356
1789453364220655400,0.8366552734375,-0.3702560386717319,0.34152444970607754,0.5744775385994464
1789453364230596400,0.846596435546875,0.19320143567621706,0.2760930693745613,0.8139995575543493
1789453364240537300,0.856537353515625,0.508374469551444,0.05845628062188625,0.7377193048197775
1789453364250477300,0.866477294921875,0.42798575858473775,-0.19512217460572717,0.5123511911626905
1789453364260418300,0.876418212890625,0.1772492487847805,-0.26517595404088495,0.32066213281080125
1789453364270359300,0.886359375,-0.03617781331837177,-0.2544178286612034,0.21205153596624732
1789453364280300300,0.89630029296875,-0.25537293742895123,-0.2553781981259584,0.26989158438593147
1789453364290241500,0.906241455078125,-0.5794669443845749,-0.19864801064431667,0.35888358078598975
1789453364300181500,0.916181396484375,-0.8548924897611141,-0.14937573795318604,0.37974779737740755
1789453364310122200,0.926122314453125,-0.9744026662826537,-0.1335778648406267,0.3780927967119962
1789453364320063200,0.936063232421875,-0.8734533978462219,-0.09712766432166099,0.43463856753744184
1789453364330004500,0.94600439453125,-0.6523322741091251,-0.16826222473084926,0.437958432675153
1789453364339944400,0.9559443359375,-0.3648357671886682,-0.18069149819314478,0.3565905744779855
1789453364349885400,0.965885498046875,-0.015218027397990226,-0.12431027027964592,0.38153438853323457
1789453364359826400,0.975826416015625,0.22810265318751333,-0.09691080670058727,0.3828731628563255
1789453364369767400,0.985767333984375,0.2607575530767441,-0.1367892281025648,0.32841230854615566
1789453364379708400,0.99570849609375,0.13186696926951408,-0.10263502956628799,0.12518529954850674
1789453364389648400,1.0056484375,-0.1824468174278736,0.06683364834487437,-0.17386939708814023
1789453364399589400,1.01558935546875,-0.5530535692334175,0.27386428740918634,-0.3737422002870589
1789453364409530400,1.0255302734375,-0.6943897931158542,0.3366553823649883,-0.4486573021482676
1789453364419471400,1.035471435546875,-0.5132213250607252,0.38741175613403317,-0.37672881488241255
1789453364429411300,1.045411376953125,-0.1940846482515335,0.4433282891452312,-0.16784926001578568
1789453364439352300,1.055352294921875,0.029617724150419234,0.4595592929780483,0.10014657375141978
1789453364449293300,1.065293212890625,0.15163959123194218,0.47709845679998397,0.32840668252296745
1789453364459234600,1.075234619140625,0.24240707287192342,0.4775578910052776,0.3464115641605109
1789453364469174300,1.08517431640625,0.33000761491358277,0.4480307677477598,0.3117028004813939
1789453364479115500,1.095115478515625,0.3584294072777033,0.25897593035697936,0.1449124018687755
1789453364489056300,1.10505615234375,0.3474550087988376,-0.0373790058016777,-0.08444843468628824
1789453364498997500,1.11499755859375,0.23032851254343986,-0.3158586780518293,-0.30225575770027935
1789453364508938200,1.124938232421875,0.07501637027859688,-0.39723698457777495,-0.4442838363043964
1789453364518878500,1.13487841796875,-0.03129471745193004,-0.31988018865287304,-0.45139052650444206
1789453364528819200,1.144819091796875,-0.09294248759150504,-0.17046528773307798,-0.2846349800094962
1789453364538760400,1.154760498046875,-0.07157645895779133,0.03579495148062706,-0.13620828640945254
1789453364548701200,1.164701171875,0.005698503902554512,0.18673837714195252,-0.231217862598598
1789453364558641400,1.174641357421875,0.04808277064561844,0.16618892558813095,-0.3803296158533543
1789453364568582400,1.18458251953125,0.08857494003176689,-0.019688450810313222,-0.682718571479246
1789453364578523400,1.1945234375,0.20970658027529715,-0.18265490722060201,-0.9802928933650255
1789453364588464400,1.20446435546875,0.35093291404247284,-0.27205402311682697,-1.111750405050814
1789453364598405400,1.2144052734375,0.413731023260951,-0.25851591162979604,-1.1205156030476093
1789453364608345300,1.224345458984375,0.40467444110214706,-0.1786608691483736,-1.099305641758442
1789453364618286300,1.234286376953125,0.2834609677940607,0.0005044423907995223,-1.0447707723639905
1789453364628227600,1.2442275390625,0.24563188013732432,0.25317279703617096,-0.8106740663934499
1789453364638168300,1.254168212890625,0.32529987561404705,0.5429197132319211,-0.47800176231525837
1789453364648108500,1.264108642578125,0.3273895413696766,0.7797288199663162,-0.13307495681978762
1789453364658049300,1.27404931640625,0.4052525332510471,0.7589180871278047,0.11311543398313223
1789453364667990500,1.283990478515625,0.655422641339898,0.4982850372135639,-0.07372947227321565
1789453364677931300,1.29393115234375,0.6826970172345638,0.22491116366982458,-0.4188469049699604
1789453364687872500,1.30387255859375,0.6074684655100107,0.12643909900188446,-0.5895064001008868
1789453364697812200,1.313812255859375,0.7075812831223011,0.09103811527490616,-0.5474433281362057
1789453364707753500,1.32375341796875,0.8078618585169315,0.007581833431124687,-0.5024919143188744
1789453364717694200,1.333694091796875,0.7466150703936815,-0.10229834495782851,-0.3858302590962499
1789453364727635500,1.343635498046875,0.6669295392602682,0.004093406793475151,-0.3222246328871697
1789453364737575200,1.3535751953125,0.572543867123127,0.1504401523143053,-0.1637495696119964
1789453364747516400,1.363516357421875,0.11296353135704994,0.04170037613213062,0.008487769294902681
1789453364757457000,1.373456787109375,-0.14411387190222738,-0.006516250026226043,0.09105148621313273
1789453364767398000,1.38339794921875,-0.2470002458810806,-0.10620119761526584,0.023807138175517318
1789453364777339000,1.3933388671875,-0.5553530783474445,-0.30496494359374043,-0.10091032466553151
1789453364787278800,1.40327880859375,-0.8084569018006325,-0.3670762395918369,-0.22130817074179648
1789453364797220000,1.41322021484375,-0.9559019639521836,-0.5301993478685617,-0.35123839979507027
1789453364807161000,1.4231611328125,-0.9121978467822074,-0.7976186969220638,-0.562856512780115
1789453364817102000,1.43310205078125,-0.7765618803679942,-0.8176338954687118,-0.43692076019048687
1789453364827043000,1.44304296875,-0.3104039197772741,-0.584841623160243,-0.17056830971613526
1789453364836983000,1.452983154296875,-0.13822422934174536,-0.3111374947488308,0.07224252165108919
1789453364846924000,1.462924072265625,-0.18890052361190318,0.020415011519193647,0.21005641662627458
1789453364856865000,1.472864990234375,-0.39155718537569045,0.24016660046875477,0.1563821826491505
1789453364866806000,1.482805908203125,-0.4967945063948631,0.23369945028126238,-0.055723604254983364
1789453364876746000,1.49274609375,-0.21303426339328288,0.1944756933957338,-0.22331969322729855
1789453364886687000,1.50268701171875,0.09331599707901478,0.09144377346634865,-0.22935305510740725
1789453364896628000,1.5126279296875,0.19482640652954578,-0.028361586609482764,-0.23718462551590053
1789453364906569000,1.52256884765625,0.1534416722178459,-0.06289280176460743,-0.21982607895787803
1789453364916510200,1.53251025390625,0.07965688956081866,-0.12858312529325486,-0.14389938890133053
1789453364926450000,1.542449951171875,-0.23019933320581912,-0.2165226900309324,-0.12615019905790686
1789453364936391000,1.552390869140625,-0.34525486840605735,-0.13832184449732302,0.08453118106629699
1789453364946332000,1.562331787109375,-0.19852175391614435,-0.06450432861447333,0.3005013883136213
1789453364956273200,1.572273193359375,-0.12371990317106246,-0.10080313796401023,0.3916758067866787
1789453364966214000,1.5822138671875,-0.07107318561077118,-0.21676818922460078,0.30995011159516866
1789453364976154000,1.592154052734375,-0.012583002719283103,-0.32098961119949815,-0.06066487831575796
1789453364986094800,1.6020947265625,-0.11658405994176864,-0.440915382784605,-0.24481144886622203
1789453364996036000,1.6120361328125,-0.2928840451776981,-0.6307803675144911,-0.1992483511576429
1789453365005976800,1.621976806640625,-0.09470365204513072,-0.7711877861142158,-0.019831640406977383
1789453365015918000,1.63191796875,0.2600555422872305,-0.8328039920717477,0.20591789204943925
1789453365025858000,1.641858154296875,0.3907955533534288,-0.8801888435810804,0.5226887895753607
1789453365035799000,1.651799072265625,0.3671452131748199,-0.8623053963661194,0.6912439693707972
1789453365045739800,1.66173974609375,-0.19990005653202533,-0.6647101096451282,0.32357710694205016
1789453365055681000,1.671680908203125,-0.9133768274337053,-0.602792290392518,0.006146827625366859
1789453365065621000,1.68162109375,-1.0667881045132874,-0.6825900497287511,-0.20139139106832443
1789453365075562000,1.69156201171875,-0.632492432129383,-0.8000725198149681,-0.27731481145555154
1789453365085503000,1.7015029296875,-0.08862462439239024,-0.78511168204844,-0.18564988778550176
1789453365095444000,1.71144384765625,0.30218145035505295,-0.655320350009203,0.031427385654579844
1789453365105385000,1.721385009765625,0.48136838920414443,-0.32218671202957627,0.29114045291338114
1789453365115325000,1.731324951171875,0.2333195110529661,0.13081249178051949,0.46397214098423717
1789453365125266200,1.74126611328125,-0.28326164582967756,0.6085983463227749,0.4663082192489877
1789453365135207000,1.75120703125,-0.7054723281443118,0.8981225596785545,0.3492518290877342
1789453365145148200,1.761148193359375,-0.7853700407236814,0.9010007454633713,0.072325633357279
1789453365155089000,1.7710888671875,-0.6429805083960294,0.7029927862882613,-0.27098938955999907
1789453365165029000,1.781029052734375,-0.4773907177448272,0.3608510814666748,-0.5514177481925114
1789453365174969900,1.790969970703125,-0.09823474878072738,-0.042942485147714614,-0.7313098031036556
1789453365184911000,1.8009111328125,0.39266777696609495,-0.42966333640813825,-0.8401899376045912
1789453365194851800,1.810851806640625,0.8092121040821075,-0.6694348000794649,-0.6306560835476964
1789453365204793000,1.82079296875,1.2454121487826109,-0.6468740087032318,-0.28948110486641526
1789453365214732800,1.83073291015625,1.3607821567595004,-0.43771629448235033,0.027278029156476258
1789453365224674000,1.840674072265625,1.1561515645742415,-0.17930501227080822,0.3219943677952513
1789453365234615000,1.850614990234375,0.652711044293642,-0.050154900744557376,0.37378494345024227
1789453365244556000,1.86055615234375,0.08711714243888855,0.051513329616189,0.31004955338165163
1789453365254497000,1.8704970703125,-0.4433130915760994,0.04771510637700557,0.1831359687358141
1789453365264437000,1.88043701171875,-0.920333806964755,0.06048223349153995,0.12883293533585966
1789453365274378000,1.8903779296875,-1.3802531654268502,0.06602583909332752,0.0759387458205223
1789453365284319000,1.900319091796875,-1.533534678646922,0.056231005787849425,-0.028307006878033277
1789453365294260000,1.910260009765625,-1.1059247676372528,0.03032850276827812,-0.03350304115116596
1789453365304201000,1.920200927734375,-0.5422697248905897,-0.07002922951579094,-0.06123560914210975
1789453365314141000,1.930140869140625,-0.3752922792732715,-0.12517244006693362,-0.11668145590163767
1789453365324082000,1.94008203125,-0.4786123684942722,-0.13549451211690902,-0.21621851945258674
1789453365334023000,1.95002294921875,-0.6345657312721014,-0.10399170487225055,-0.4952631321091205
1789453365343964200,1.959964111328125,-0.8458674717843532,-0.0415489849627018,-0.7195123247388749
1789453365353905000,1.96990478515625,-0.8967793283760547,0.09815876093506812,-0.8409706396535038
1789453365363845000,1.97984521484375,-0.6599392419815063,0.28472587316334247,-0.7068845330297947
1789453365373785900,1.989785888671875,-0.07096855619251728,0.4961532858818769,-0.33498540332615373
1789453365383727000,1.99972705078125,0.6556412525266408,0.6259492940962315,0.08428191901296377
1789453365393667800,2.009667724609375,1.2646329820811748,0.638350510507822,0.41134931575618683
1789453365403609000,2.019609130859375,1.5929232716828583,0.4861556234806776,0.4573183821834624
1789453365413549000,2.029549072265625,1.3073890047460794,0.2638596107453108,0.12562486000955103
1789453365423490000,2.039489990234375,0.631328649047017,0.056331543552875514,-0.351203986068815
1789453365433430800,2.0494306640625,0.023684826970100402,0.018088614398241044,-0.6907468335036188
1789453365443372000,2.0593720703125,-0.34003859506249423,0.09013269086778164,-0.6980223043993115
1789453365453313000,2.06931298828125,-0.5344026447772979,0.22793664897084234,-0.6365362276274711
1789453365463253000,2.0792529296875,-0.5987199263870716,0.35501404587626456,-0.5767240754172206
1789453365473194000,2.089194091796875,-0.233306651571393,0.4046463840514421,-0.22359935041889548
1789453365483135000,2.099135009765625,0.44048225206434727,0.38509880301654337,0.25156068566441536
1789453365493076000,2.109075927734375,0.8386907120227813,0.30837153716683385,0.45280017410665746
1789453365503017000,2.119016845703125,1.037040031981468,0.2643418413043022,0.5558521139107644
1789453365512957200,2.128957275390625,0.8727297597467899,0.17743395770192144,0.539553743930161
1789453365522898000,2.13889794921875,0.3550082006573677,0.0888444046229124,0.23719964042194186
1789453365532839200,2.148839111328125,-0.22638182074427604,-0.005343699115514755,-0.16946469585578888
1789453365542780000,2.15877978515625,-0.820106423062086,-0.08273264374434948,-0.4955226232955232
1789453365552721000,2.168720947265625,-1.366916713991761,-0.047778819262981415,-0.7294820031546055
1789453365562660900,2.178660888671875,-1.578791285955906,0.027047581401467322,-0.8444296210009604
1789453365572602000,2.18860205078125,-1.378424196434021,0.02577449272572994,-0.822871357730776
1789453365582542800,2.19854296875,-0.7972095315992832,-0.03155599873661995,-0.637268852750957
1789453365592484000,2.208484130859375,0.11558102037906647,-0.0438011478036642,-0.36111539495866746
1789453365602425000,2.218425048828125,0.9132359576582908,-0.13099778521955013,-0.1263018094230443
1789453365612366000,2.228365966796875,1.2786544931709765,-0.089380411195755,0.010950652277097106
1789453365622306000,2.23830615234375,1.2807979349404572,0.03597264613509178,-0.08814462232310324
1789453365632247000,2.2482470703125,0.9022498687416315,0.09214227712452411,-0.2896922268664464
1789453365642188000,2.25818798828125,0.5623182411849499,0.05447919368445873,-0.3537277689253911
1789453365652129000,2.26812890625,0.3035287733107805,0.056738370788097375,-0.40309601280428464
1789453365662070000,2.278070068359375,0.014130232161283493,0.13387012578547,-0.29607052972670644
1789453365672010000,2.288010009765625,-0.2123848595738411,0.16805881111323834,-0.1370234387172386
1789453365681951000,2.297950927734375,-0.2833078230589628,0.06355448054373264,-0.21448362195137888
1789453365691892000,2.30789208984375,-0.17403028673827647,-0.03601297814548016,-0.23230057980138807
1789453365701833000,2.3178330078125,0.041459553113579746,-0.09112228642702103,-0.037513043977506454
1789453365711774200,2.327774169921875,0.38837738629579543,-0.11412906800508499,0.15254395619314162
1789453365721714000,2.3377138671875,0.7085492513716221,-0.09128186090290547,0.1399053873617202
1789453365731655000,2.347655029296875,0.6241548118948936,-0.003859598037600517,-0.002483377780951559
1789453365741596000,2.357595947265625,0.2803881362199783,0.12952829718887804,-0.1687863947354257
1789453365751537200,2.367537109375,-0.018864859467744827,0.2272241167873144,-0.35888756284136325
1789453365761477600,2.3774775390625,-0.17794716792106627,0.3118815911144018,-0.38214389873370525
1789453365771417600,2.38741748046875,-0.20483926649987697,0.39014322692453857,-0.3330989685250446
1789453365781358600,2.397358642578125,-0.11203998677134513,0.43110184477865693,-0.16983166600465774
1789453365791299800,2.4072998046875,-0.08350012098550796,0.40774610363245006,-0.02760810136105865
1789453365801240600,2.417240478515625,-0.17531915750503538,0.33147359581291674,-0.11137907517720014
1789453365811181800,2.427181884765625,-0.2654237913221121,0.18215221839547155,-0.31138434564936907
1789453365821122600,2.43712255859375,-0.14639584535956382,-0.02616495334804058,-0.44697797075919804
1789453365831062800,2.447062744140625,0.16341887635290622,-0.14259119237959383,-0.35838819848448034
1789453365841003800,2.457003662109375,0.3852028479129076,-0.2103366948723793,-0.29610605769781395
1789453365850944800,2.46694482421875,0.40839667649567124,-0.2440343818128109,-0.253912746949587
1789453365860885500,2.476885498046875,0.4599439083814621,-0.29076632237136363,-0.21989251352390274
1789453365870826800,2.48682666015625,0.6596668547809124,-0.38138299736380576,-0.16174244930697604
1789453365880766700,2.4967666015625,0.8937439062029123,-0.44603696358203887,0.028722474077437072
1789453365890707700,2.506707763671875,1.2154454650640487,-0.35254385637044905,0.34674565495308485
1789453365900648700,2.516648681640625,1.5074877987205981,-0.3105535573810339,0.6110559686079621
1789453365910589700,2.526589599609375,1.4389356560200453,-0.19823826079964638,0.661172583168745
1789453365920530700,2.53653076171875,1.0640782610327004,-0.012920271849632263,0.7362517895504832
1789453365930470700,2.546470703125,0.636670010074973,0.04468494490087032,0.7375054428733885
1789453365940412000,2.556411865234375,0.08470072894692421,-0.051099488118290896,0.61627947540991
1789453365950352600,2.5663525390625,-0.44693478920459745,-0.054396191576123236,0.4914851479403674
1789453365960294000,2.5762939453125,-0.6075082129985093,-0.07526537660360336,0.5057146026924252
1789453365970234600,2.586234619140625,-0.5382610737711191,-0.14659399828016756,0.6175338593851775
1789453365980175600,2.596175537109375,-0.5656535230875015,-0.31568741313815113,0.5431994800213724
1789453365990115600,2.606115478515625,-0.7040460947334766,-0.49123453418016433,0.392176011393778
1789453366000056800,2.616056884765625,-1.0057149193912744,-0.5278220973432064,0.4027561863906681
1789453366009997600,2.62599755859375,-1.1108639776051044,-0.4604243853747844,0.45376894607357676
1789453366019938800,2.635938720703125,-1.103317215487361,-0.4528583340346813,0.3573986394578591
1789453366029879800,2.6458798828125,-1.2700930010527371,-0.564839284095168,0.21425501909358427
1789453366039819800,2.65581982421875,-1.2077227618575095,-0.5844400566220284,0.04677238216679543
1789453366049760800,2.6657607421875,-1.3109586799263953,-0.5249883352220058,0.13696991843171416
1789453366059701800,2.67570166015625,-1.3213526481688023,-0.6132938106626272,0.2653247879270464
1789453366069642800,2.685642822265625,-1.0720441253453492,-0.6724696377307177,0.24094434337560086
1789453366079583700,2.695583740234375,-0.8380249415904283,-0.6503320402026176,0.27716749367304144
1789453366089523700,2.705523681640625,-0.5256845007926225,-0.6568459521412849,0.2869280959153548
1789453366099464700,2.715464599609375,-0.3763450031965971,-0.6647580404400825,0.1775328514991328
1789453366109405700,2.72540576171875,-0.4561515303611755,-0.6197972012072801,-0.12553217675741762
1789453366119346700,2.7353466796875,-0.6113724872112274,-0.6340671341001987,-0.4498817293766886
1789453366129287700,2.74528759765625,-0.627483079534769,-0.5717798970133066,-0.6409217492353171
1789453366139229000,2.75522900390625,-0.41176936779916284,-0.4757230767935514,-0.6154256350595504
1789453366149168600,2.765168701171875,-0.13030337321460247,-0.3557569731980562,-0.5345573604149744
1789453366159109600,2.775109619140625,-0.04301788847148418,-0.14071838424503802,-0.526722976994887
1789453366169050600,2.785050537109375,-0.013961305335164069,-0.056982116416096684,-0.6827649679042399
1789453366178991900,2.794991943359375,0.15733809513449667,-0.17941256429851055,-0.8986135580658912
1789453366188932600,2.8049326171875,0.3740396488636732,-0.23449907622635363,-1.1130527198210358
1789453366198872800,2.814872802734375,0.4291682463675737,-0.09546528406739234,-1.0259842388294638
1789453366208813600,2.8248134765625,0.6033043315678834,0.005671615895628929,-0.6900628698274492
1789453366218754800,2.8347548828125,0.6083411566913127,0.15334873323738574,-0.3295621727010235
1789453366228695600,2.844695556640625,0.4301771311491728,0.3776999249368906,-0.04409669668413698
1789453366238636800,2.85463671875,0.2689110489159822,0.5259872831314801,0.10269870591964572
1789453366248577500,2.86457763671875,0.008484335228800773,0.4142617691367864,0.0846297826025635
1789453366258517800,2.874517822265625,-0.4442746300846338,0.3185235133469105,-0.11965860854890197
1789453366268458500,2.88445849609375,-0.7901216191649436,0.18985212524831294,-0.37126364481169727
1789453366278399700,2.894399658203125,-0.7405623462259769,0.018553893822431562,-0.49761506553012874
1789453366288340700,2.9043408203125,-0.44901334904432294,0.007705167549848556,-0.3901685440288856
1789453366298281700,2.91428173828125,-0.034196284112334246,0.19219079732894898,-0.07984178114105016
1789453366308221700,2.9242216796875,0.46108547963201996,0.37534430172145367,0.28061726880073545
1789453366318162700,2.93416259765625,0.8738999725699425,0.4089817829072475,0.4465064807899296
1789453366328103700,2.944103759765625,0.9759411278963088,0.26956454438865185,0.4816571430176496
1789453366338044700,2.954044677734375,0.627393647685647,0.18071897072196005,0.2676039118401706
1789453366347985700,2.963985595703125,-0.09827157365977764,0.2281868243396282,0.005607135824672878
1789453366357926700,2.9739267578125,-0.9192267225056886,0.3711503571629524,-0.20780290207844226
1789453366367867000,2.983866943359375,-1.3940221630603074,0.42670624016821385,-0.383680168390274
1789453366377807600,2.9938076171875,-1.5887001010298727,0.4528618411660194,-0.5406059198642149
1789453366387748600,3.00374853515625,-1.4958768559038638,0.42339784627258775,-0.6597758681133389
1789453366397689900,3.01368994140625,-0.968363386118412,0.2455664136856794,-0.7837213236685842
1789453366407630600,3.023630615234375,-0.31472879723906516,0.0988309611082077,-0.7213906858313829
1789453366417570600,3.033570556640625,0.3680214114874601,0.1318698918789625,-0.46660227029211815
1789453366427511800,3.04351171875,1.0741302839696407,0.05842530096173286,-0.3817646901577711
1789453366437452800,3.053452880859375,1.4340642505913972,-0.12831833687722682,-0.5216769821843132
1789453366447393500,3.0633935546875,1.4895266100943088,-0.2880582324564457,-0.7564668215181678
1789453366457334800,3.073334716796875,1.2299562209755182,-0.31186522450149057,-0.9000078619685024
1789453366467275500,3.083275634765625,0.7084978134453296,-0.1548755044132471,-0.9577269143570214
1789453366477215700,3.0932158203125,0.21347440837621687,-0.03858838159143924,-0.9926064314931631
1789453366487156700,3.10315673828125,-0.05557283414006233,0.07171615968942642,-0.8659380537800491
1789453366497097700,3.11309765625,0.05443126288950443,0.19252806645929813,-0.5586897484894842
1789453366507038700,3.123038818359375,0.10670447096228598,0.2053700123757124,-0.3248010227138176
1789453366516979700,3.132979736328125,0.08209025418758392,0.11921440844535827,-0.32324699820484964
1789453366526919700,3.142919677734375,-0.11888532262146473,0.0520581040173769,-0.563834198705852
1789453366536860700,3.152860595703125,-0.1142027177631855,-0.02798573903441429,-0.7604325102787465
1789453366546802000,3.162802001953125,0.3055594023555517,-0.013681903871893882,-0.5354901112204418
1789453366556742700,3.17274267578125,1.0412357301056385,0.36581893300712104,0.04104104000714141
1789453366566683600,3.18268359375,1.727053509709239,0.7084972289234399,0.4615101713174954
1789453366576624600,3.192624755859375,2.0865748038768768,0.6714893945217132,0.4887883831370622
1789453366586564900,3.20256494140625,1.9961130271852014,0.5016179810285568,0.35668687445931135
1789453366596505600,3.212505615234375,1.4811048187077045,0.4346849639624357,0.2269488435098901
1789453366606446800,3.22244677734375,0.6482230852246285,0.3550070316135883,-0.024620861144619994
1789453366616387600,3.2323876953125,-0.1562561451166868,0.30671558665335175,-0.25185243515260514
1789453366626328800,3.242328857421875,-0.5432569823622703,0.19704174449145792,-0.45682270762100813
1789453366636269800,3.252269775390625,-0.7316618314117193,0.03067103259563446,-0.4844216758275404
1789453366646209800,3.262209716796875,-0.7701397383660078,-0.07024491809308528,-0.34664336362238973
1789453366656150800,3.27215087890625,-0.7951888394266367,-0.04930734400451183,-0.25713985576992854
1789453366666091800,3.282091796875,-0.6437006393641234,0.06083996088802814,-0.005006101191602647
1789453366676032800,3.29203271484375,-0.19456512524485586,-0.032441549399495125,0.16976450078627095
1789453366685973800,3.301973876953125,0.18558686901926993,-0.2901870611786842,-0.040329471371416
1789453366695913700,3.311913818359375,0.5676794759571552,-0.5738216319739818,-0.28976394039578734
1789453366705854700,3.321854736328125,0.7138409280389547,-0.7063362514972686,-0.44457039816081523
1789453366715795700,3.331795654296875,0.6316583193928003,-0.7354045250713824,-0.5622773611852899
1789453366725736700,3.34173681640625,0.34418753143548964,-0.6455483130574226,-0.6158217217050492
1789453366735677700,3.351677734375,-0.13843348817825316,-0.4330038790076971,-0.6618374037530272
1789453366745619000,3.361618896484375,-0.4172743949562311,-0.2997457476407289,-0.6922950858589262
1789453366755558700,3.37155859375,-0.39647067638039585,-0.26901158668100833,-0.6331184550732374
1789453366765500700,3.381500732421875,-0.0928442879140377,-0.21204583687782286,-0.35752756306715305
1789453366775441700,3.391441650390625,0.14987667321264742,-0.18947803123891352,-0.2236480118662119
1789453366785382400,3.40138232421875,0.18020400693714617,-0.17709435048401354,-0.11829948555752634
1789453366795323600,3.41132373046875,0.1869353610187769,-0.250093535721302,-0.07871431148108095
1789453366805263600,3.421263671875,-0.04336334090828895,-0.19944763658940792,-0.13545154975801704
1789453366815204600,3.43120458984375,-0.41867374036014077,-0.2557365100443363,-0.38695984764806923
1789453366825145600,3.4411455078125,-0.6513619677722454,-0.53564826092422,-0.6752407098792493
1789453366835086600,3.451086669921875,-0.9749240598082541,-0.7147866844564675,-0.7942943748049438
1789453366845027600,3.461027587890625,-1.2113608260989188,-0.8955085777878761,-0.6144120010375976
1789453366854968600,3.470968505859375,-1.3050912491977213,-1.139600827267766,-0.5221984853077679
1789453366864908800,3.48090869140625,-0.7272253102689981,-1.5439292314112185,-0.311754457603395
1789453366874849500,3.490849609375,-0.2943500260770321,-1.703979508113861,-0.2443774230968207
1789453366884790800,3.500790771484375,-0.3440682889699936,-1.859312108644843,0.024723010911419985
1789453366894731500,3.5107314453125,0.33781858092546463,-2.0132120460242033,0.4607892731644213
1789453366904672500,3.520672607421875,-0.05523030431270599,-1.4322341125547886,0.07316760060675442
1789453366914613800,3.53061376953125,-0.6418319228827953,-1.3900211107254028,-0.06203333539105951
1789453366924553700,3.5405537109375,-0.9222492851972579,-1.422898713454604,0.0051044835321605204
1789453366934494700,3.55049462890625,-1.739748156109452,-1.2691735481202602,0.1825716859165579
1789453366944435700,3.560435791015625,-2.359036823272705,-1.1007277835160494,0.1650059263486415
1789453366954376700,3.570376708984375,-2.7634119891673325,-1.0868109018445014,-0.031046295648813244
1789453366964317400,3.5803173828125,-3.4071529605418442,-1.097968255674839,-0.33422742456570265
1789453366974257700,3.590257568359375,-3.4293870041817422,-1.0748124210149048,-0.4640689524222165
1789453366984198700,3.60019873046875,-2.4162112473905086,-1.1802712758302687,-0.16482479762807487
1789453366994139600,3.6101396484375,-1.8726158268541095,-1.4669289938390253,-0.23952947160899637
1789453367004080600,3.62008056640625,-2.7324574634552,-1.9876140789091585,-1.4208721760630607
1789453367014021600,3.630021728515625,-3.899035144975781,-2.864069581180811,-2.6085715560674667
1789453367023962600,3.639962646484375,-4.322719991496205,-3.520063884928822,-2.6882448122411966
1789453367033902600,3.649902587890625,-4.013234940129518,-3.6620880910754203,-1.9755644524142144
1789453367043843600,3.659843505859375,-4.027984765493869,-4.1047617157042025,-1.8216465409867464
1789453367053784600,3.66978466796875,-4.0276188547909255,-4.96977403294146,-2.410252046725154
1789453367063725800,3.679725830078125,-3.2790234242349863,-7.063798568302393,1.0426302532039582
1789453367073666600,3.68966650390625,-1.970703276118636,-8.263568325328826,1.1703761970207094
1789453367083607600,3.699607666015625,-4.782784895908832,-7.479400061610341,2.6391227616757154
1789453367093547500,3.709547607421875,-7.21572749786973,-4.71463168939799,2.137554465007782
1789453367103488800,3.71948876953125,-6.562025688973069,-3.3529055297866464,-2.455731649135053
1789453367113429500,3.729429443359375,-5.193943438333273,-5.640820359870791,-5.914232811859249
1789453367123370800,3.739370849609375,-4.334183050274849,-9.668812724149227,-6.177780287915468
1789453367133311500,3.7493115234375,-3.966198463666439,-12.394356462693214,-4.757791616688668
1789453367143252700,3.759252685546875,-4.342599580964446,-13.606229329967498,-4.202468933479488
1789453367153192400,3.7691923828125,-2.0468612176477907,-11.624672066879272,-3.7901615132808684
1789453367163133700,3.7791337890625,-1.4659797302901745,-8.487928869378566,-0.6517746402263641
1789453367173074700,3.78907470703125,-1.992184455564618,-6.658540774354338,4.564306980156898
1789453367183015700,3.799015625,-0.5397480974584817,-5.050741420578956,8.053199481752515
1789453367192956700,3.808956787109375,-0.007183774024248123,-5.337452914601564,9.927903220796585
1789453367202897700,3.818897705078125,1.373485570988059,-4.55228248810321,9.773277891752123
1789453367212837600,3.828837646484375,2.5336773508638144,-3.487475912795961,9.49334802069366
1789453367222778600,3.838778564453125,4.390798086944222,-3.0539708062678574,9.582351999792456
1789453367232719600,3.8487197265625,3.8879450111627576,-2.8322195679336786,8.582934134718775
1789453367242660600,3.85866064453125,1.7567799549311398,-3.0836621801763773,7.0568731529533855
1789453367252601600,3.8686015625,2.8705674187675116,-3.4900028009250756,7.172151390993594
1789453367262542800,3.87854296875,3.419170146071911,-2.6140473571300507,8.167596845304965
1789453367272482600,3.888482666015625,1.5146829709216951,-1.6127344720900059,7.905071698033809
1789453367282423800,3.898423828125,-1.2137066585727034,-1.1057241304986178,6.703698012942075
1789453367292364500,3.908364501953125,-2.522183312425017,-1.2582855127505956,5.068351311549544
1789453367302305800,3.918305908203125,-2.796516386389732,-0.8281039976872503,3.993255397418141
1789453367312246500,3.92824658203125,-3.4609131923019882,-0.2680238908179104,3.1536364646345376
1789453367322187800,3.938187744140625,-4.0773371176838875,-0.18900369172543285,2.629598562005162
1789453367332127500,3.94812744140625,-3.9601100836634635,2.766908306850493,4.992305598223209
1789453367342068700,3.95806884765625,-3.4630163020610807,7.145929154500365,10.960145497107504
1789453367352009500,3.968009521484375,-4.501193813639879,14.964312164640425,17.583965086692572
1789453367361950700,3.97795068359375,-10.029482603830099,17.047306187421082,23.949033202326298
1789453367371891700,3.9878916015625,-13.312827398395537,9.98789153329134,21.843131766688824
1789453367381832700,3.997832763671875,-14.36713069986701,9.973439814090728,17.193426138448714
1789453367391772400,4.0077724609375,-13.624099333178997,2.8304531427830457,6.4303644714087245
1789453367401713700,4.017713623046875,-8.911474599689244,-1.3901359692767261,-2.3387919076234103
1789453367411654700,4.027654541015625,-5.039530290734768,-2.9026211378932,-4.297209118142724
1789453367421595600,4.037595703125,-0.8112835035286843,-4.983507374739647,-3.8332337622880934
1789453367431536600,4.04753662109375,2.257105411931127,-7.512092370900511,-4.345259740084409
1789453367441477600,4.0574775390625,7.652464718186855,-8.696178236582874,-5.542609576487541
1789453367451417600,4.06741748046875,11.007269651854038,-10.35531497888565,-7.48415690074861
1789453367461358600,4.077358642578125,8.394677169707418,-10.53530797342062,-10.873063425981998
1789453367471299600,4.087299560546875,7.241380994564294,-12.780794405359028,-14.006375479990243
1789453367481240600,4.097240478515625,8.228805639505385,-12.24818390469551,-13.863678489148615
1789453367491181600,4.107181640625,5.91874590536952,-9.79637176709175,-10.114779545104502
1789453367501122800,4.117122802734375,5.249899718832969,-8.435838032135367,-7.48665573182702
1789453367511062500,4.1270625,2.0814124526776374,-5.153239087501168,-3.003706015408039
1789453367521003800,4.137003662109375,-5.098593889600038,1.2175333772540091,6.30784283811152
1789453367530944500,4.146944580078125,-11.563525231999158,3.0708789787098763,15.41289530557394
1789453367540885800,4.1568857421875,6.327987215995789,-3.2969995181694625,-4.479572348940372
1789453367550826500,4.166826416015625,2.5395406899392605,-5.095079159477353,-1.970102972137928
1789453367560766700,4.1767666015625,-5.725822117590904,10.993659644174576,24.274834013199804
1789453367570707500,4.18670751953125,-10.65196334503293,18.57176382564306,21.439224802827834
1789453367580648700,4.196648681640625,1.8687305098533629,12.130655257380008,8.46645704228282
1789453367590589400,4.20658935546875,10.011455948752165,-16.547739878225325,-18.197379893386362
1789453367600530700,4.21653076171875,3.5495816558361053,-15.788698456978796,-11.059369256925581
1789453367610471700,4.2264716796875,8.921932865339517,-6.646167030471563,-3.9936669008284804
1789453367620411600,4.23641162109375,9.453176753824948,-4.247452276805043,-4.811850831395387
1789453367630352600,4.2463525390625,8.24994779625535,-5.955230592679977,-5.026292038977146
1789453367640293600,4.256293701171875,11.684518925076722,-4.363735307973623,-3.44343481875658
1789453367650234600,4.266234619140625,7.033582878258824,-2.0064900442928075,-0.25311492936909197
1789453367660175600,4.276175537109375,3.2754888203680514,1.3846686437815428,2.952694790095091
1789453367670116600,4.28611669921875,1.912703507092595,3.0739240454941985,5.656289147159457
1789453367680056600,4.296056640625,1.250171326008439,3.6604718880504366,9.921987859272956
1789453367689997600,4.30599755859375,0.8255177805863321,5.417759792503714,14.344971475028991
1789453367699938600,4.3159384765625,-0.6083635146535933,7.978654236117005,16.259378863430022
1789453367709879600,4.325879638671875,-2.3904830780245363,8.177971524325013,15.816099674123524
1789453367719820800,4.33582080078125,-2.4228889715887605,6.5949494689315555,15.469173073112964
1789453367729761500,4.345761474609375,-3.254430250248313,6.848628461924195,14.67338159161806
1789453367739701500,4.355701416015625,-2.8687276361197234,7.376156544756889,12.32524727063179
1789453367749642500,4.365642578125,-3.314760508048534,7.041600765019655,7.942525522637367
1789453367759583000,4.3755830078125,-6.710275053244829,5.369437367883324,2.789629549485445
1789453367769524200,4.385524169921875,-6.293402224826813,4.788841127207875,0.6607827070683241
1789453367779465000,4.39546484375,-6.2179328500837086,2.646119488695264,-2.039389858853817
1789453367789406000,4.405406005859375,-5.949746608310938,0.46112171998918056,-3.834168412789702
1789453367799346000,4.415345947265625,-5.207061278581619,-1.0290531248807906,-5.333925909519195
1789453367809287200,4.425287109375,-3.844554782247543,-1.3228127838492392,-5.274612135285139
1789453367819228200,4.435228271484375,-3.896829159364104,-0.707822106140852,-2.50252116509974
1789453367829169200,4.445169189453125,-3.947987684193253,-0.07797638912796974,-0.43280572608709333
1789453367839110100,4.455110107421875,-3.030968116343021,-0.3888882584273815,-0.9210656283706427
1789453367849050000,4.465050048828125,-3.2421026835948226,-0.8143360229671001,-1.244570437261462
1789453367858991000,4.4749912109375,-5.867039099007845,-0.23087328694462775,-0.5914800382614135
1789453367868932000,4.48493212890625,-7.294797527453303,0.3926046486020088,-0.11355565203130244
1789453367878873000,4.494873046875,-7.5492925130039445,0.7423872235655784,0.9125590813100337
1789453367888814000,4.50481396484375,-5.078230900529027,0.778902890536189,2.2742986849248408
1789453367898755000,4.514755126953125,-1.7978981472611426,-0.13583704194426535,2.596856568354368
1789453367908695000,4.524695068359375,-0.6741267572879791,-0.025955694511532783,3.3336914184898134
1789453367918636000,4.534635986328125,0.37119594987034793,0.9781763396024703,4.810157471480966
1789453367928577300,4.544577392578125,1.7026713481247424,3.4013667783558366,7.118719076013565
1789453367938518000,4.55451806640625,1.5066577776372432,4.674657698667049,8.199621046075224
1789453367948459300,4.564459228515625,0.5929473343349992,4.596273313260078,8.350375086644291
1789453367958400000,4.57439990234375,-0.39712066472172736,-0.7555372125178575,5.070712779983878
1789453367968340200,4.58434033203125,0.8698772929251194,-0.26927345248758794,3.8132150566101073
1789453367978281000,4.594281005859375,3.3659470899283885,-2.3356723142981526,0.17572306213080882
1789453367988222200,4.60422216796875,3.902174612045288,-3.021835254077613,-3.5173505343168974
1789453367998163000,4.614162841796875,4.142236583095789,-3.1656402061611413,-6.0893883032351726
1789453368008104200,4.624104248046875,1.7456886520743369,1.5231471401453018,-3.9583933428734537
1789453368018045200,4.634045166015625,0.9297536694779992,4.649012677539885,0.8247329138189554
1789453368027985200,4.643985107421875,1.819642215427011,3.8840287145018575,2.089127995491028
1789453368037926000,4.65392578125,0.8307318619728088,2.7299761680334806,0.0667021309196949
1789453368047867100,4.6638671875,-3.8989083037257193,-4.724006835986674,-7.314699328753352
1789453368057808100,4.67380810546875,-2.8282655696108936,-7.379976395305991,-11.296645396649836
1789453368067749000,4.6837490234375,-3.1871713622286912,-3.2328432723402973,-4.730235793504119
1789453368077689000,4.693689208984375,-3.592684299981594,-0.5538409202188254,-0.5271645102173089
1789453368087630000,4.703630126953125,-4.466356309014558,3.0304172044619917,3.4186756405532357
1789453368097571000,4.713571044921875,-1.5682707687243818,5.074216988712549,5.255371428242325
1789453368107512000,4.723511962890625,1.4537261056557298,5.75872777737081,5.010952431026101
1789453368117453000,4.733453125,4.037427132099866,6.298869842582941,7.339716865631938
1789453368127394000,4.74339404296875,2.9996614161923527,7.574540936028957,6.920196153053641
1789453368137334000,4.753333984375,2.515857324273884,6.734271430382132,3.9373271739691496
1789453368147275000,4.76327490234375,4.943282331857085,1.6274848819762466,1.088050088250637
1789453368157216000,4.773216064453125,1.2239619489967821,-5.833040967816114,-11.593911017912626
1789453368167157200,4.7831572265625,-2.671507904712856,-9.95805052177906,-16.770310616248846
1789453368177098000,4.793097900390625,0.881981864477694,-2.2670343930102885,-9.634870122537016
1789453368187039200,4.803039306640625,-1.0338833215162158,-0.9956580741487443,1.1175386330634356
1789453368196979000,4.81297900390625,-0.46941316299438474,-2.925058595150709,-3.967775503724813
1789453368206920200,4.822920166015625,-2.7134651782155035,3.2797225124150513,0.42674014243781566
1789453368216861000,4.83286083984375,-3.87670377844125,10.770766250067949,10.808974107909203
1789453368226802200,4.84280224609375,1.5968915907919405,2.148852396352589,5.293416788998246
1789453368236743000,4.852742919921875,0.11680033304095268,-5.281676082322001,-4.891951957592368
1789453368246684200,4.86268408203125,-3.6508266923487183,-6.04616407853663,-8.437577569279075
1789453368256623900,4.872623779296875,-4.169257568751275,-0.6455139723964035,-3.154502726075053
1789453368266565000,4.882565185546875,0.22664251750707626,0.9195794814661145,-0.4327519500732422
1789453368276506000,4.892506103515625,2.5135773966431616,-2.50251210501045,-2.3244196833997965
1789453368286446000,4.902446044921875,1.245540159076452,-2.4446917842045424,-1.2384744584739207
1789453368296387000,4.912386962890625,0.5476131317451596,-1.6314052702903747,-0.08426759822666645
1789453368306328000,4.922328125,-0.6890338190406561,-3.039874184115231,0.5718307504177094
1789453368316269000,4.93226904296875,-0.2111117708981037,-6.68755644095838,-1.2341045728266238
1789453368326210000,4.9422099609375,1.6266615828946231,-8.753977514600754,-2.885093664509058
1789453368336150300,4.952150390625,-0.663046852608025,-8.335616493451594,-0.9684873047590256
1789453368346091000,4.962091064453125,-0.47820115734487767,-5.809996192315221,3.411293713608384
1789453368356032300,4.9720322265625,-4.3103734278813,-4.328237878134846,5.581750331264734
1789453368365973000,4.981972900390625,-2.966444790767133,-2.0551782334856687,0.8762544267416
1789453368375914000,4.9919140625,1.6759528525471685,-1.5524400162555276,-4.134500435885787
1789453368385854000,5.00185400390625,4.171109918619692,-0.6731869922198355,-3.147371559020877
1789453368395795200,5.011795166015625,2.496821492153406,-0.5016553904294967,-0.7475286781072616
1789453368405736000,5.02173583984375,1.1174150066837667,-2.9168428477302193,-0.40395723274350165
1789453368415677200,5.03167724609375,3.0813632555842396,-2.961166558103263,2.6539322082728147
1789453368425618200,5.0416181640625,0.8985074673429131,-0.07110884144604206,7.125109653833508
1789453368435559000,5.051558837890625,0.7726236641362308,2.9652292774975297,7.063600415381789
1789453368445499100,5.0614990234375,-1.2399041990160942,2.7359122800841926,5.225999203285575
1789453368455440100,5.071440185546875,-1.8433134522631762,5.140991600346565,7.753535567176342
1789453368465381000,5.081381103515625,-1.7395105479612945,6.057186992332339,8.487596860945224
1789453368475322000,5.091322021484375,-0.8722142114400863,2.674900177499652,4.783699088144302
1789453368485263000,5.10126318359375,0.7142834111094475,-0.7514923210412263,2.1756500946462154
1789453368495204000,5.1112041015625,1.619464657127857,-1.117787347127497,2.0335469780445097
1789453368505144000,5.12114404296875,1.3672460920765994,-1.5956497740373015,0.5499743079185485
1789453368515085000,5.1310849609375,-0.4671789742015302,-1.0936346103847026,-1.6809312254816293
1789453368525026000,5.141026123046875,-2.27441208217144,-1.2237018367558716,-3.7793537035405635
1789453368534967300,5.15096728515625,-1.7771251160845158,-0.15075228700339793,-3.7558898258447644
1789453368544908000,5.160907958984375,1.9419129427030681,3.3955998853921887,-1.8756810596436262
1789453368554848300,5.17084814453125,0.30921091060042377,4.789594575923681,-1.4630828398048876
1789453368564789000,5.1807890625,-1.6412987416647373,3.345786929953098,-1.4806272643238305
1789453368574730200,5.190730224609375,-1.6876980892680584,3.456894604310393,-0.29471769034564493
1789453368584671000,5.2006708984375,0.08922390545979142,1.188166997516155,0.5335889903068542
1789453368594612200,5.2106123046875,8.8305440369308,-3.4089556260496376,2.1166800192832946
1789453368604553000,5.220552978515625,1.1207412284970282,-4.4648722079366445,3.1723610388487575
1789453368614493200,5.2304931640625,-6.715213094168901,-2.2652631455540657,0.9888356807827949
1789453368624434000,5.240433837890625,0.9386671899043023,-3.183801885795593,-1.1878647996991871
1789453368634375200,5.250375244140625,5.285238743239641,-2.81798645991981,-1.5249159033834934
1789453368644316200,5.260316162109375,1.851300067102909,-1.3577666083306072,-1.9541069461047649
1789453368654257200,5.270257080078125,0.4923536013379693,-0.2862608276456594,-1.8475450984835624
1789453368664198100,5.2801982421875,0.9813364110685885,0.444652815747261,-0.9986860436677932
1789453368674138000,5.29013818359375,0.8274705220893025,0.9413117130637169,-0.32718086705505844
1789453368684079000,5.3000791015625,-1.4070268983229994,2.1190631150275467,0.7890472679316997
1789453368694020000,5.31002001953125,-0.6185898712441324,2.3184978921353814,1.0076035096168519
1789453368703961000,5.319961181640625,0.3054676324188709,0.4081108452916145,-0.1756149255812168
1789453368713902000,5.329902099609375,0.9978852486789226,0.04136369152367115,-0.36499300357699394
1789453368723842000,5.339842041015625,0.7171101589679718,0.2564355982244015,-0.492076245701313
1789453368733783000,5.349782958984375,-0.3054370911501348,-0.01745090101659298,-1.2618021425694226
1789453368743724000,5.35972412109375,-0.434302102124691,1.2808815215706824,-1.3945447256296872
1789453368753665000,5.3696650390625,-0.7501359379962086,1.8312889602094888,-1.3693985939353703
1789453368763605500,5.37960546875,-1.6168322627976537,4.3152205756515265,-1.2453659715533256
1789453368773546500,5.38954638671875,-0.5995449790343642,7.0467059792041775,-2.13276489264369
1789453368783486700,5.39948681640625,-0.2886228806018829,9.379193233725427,-2.238767937338352
1789453368793427500,5.409427490234375,-0.6918281259343028,10.914503689873218,-3.1864456783026456
1789453368803368400,5.419368408203125,-1.841503187970817,9.131299253875017,-5.431041298881173
1789453368813309400,5.429309326171875,-2.3381758215516806,6.06729396032691,-5.749865256479382
1789453368823250400,5.43925048828125,-0.2779059640154242,6.87040248683691,0.7942512663155794
1789453368833191400,5.44919140625,2.91340995067209,5.6527703253835435,1.6491694750398396
1789453368843131600,5.459131591796875,-2.1492411034092305,3.4965807180106636,3.3755776725828643
1789453368853072400,5.469072265625,-1.9055425294220447,7.724826774564385,2.9230770659446716
1789453368863013600,5.479013671875,4.7699052483305335,21.56646118968725,6.1417299003690475
1789453368872954600,5.48895458984375,-10.69245083824396,4.578200480952859,0.33002631961405277
1789453368882895400,5.498895263671875,-6.408989090424775,-15.227348184043167,-2.8179636635661125
1789453368892835300,5.50883544921875,6.083322719585895,-33.730148948097224,4.269993194437027
1789453368902776600,5.518776611328125,5.620172124117612,-18.06519143707752,4.312140729814767
1789453368912717600,5.528717529296875,5.4709787569940085,6.5359811471343034,1.9450994637846946
1789453368922658600,5.538658447265625,-4.167152120904624,-1.5862784268409014,2.816698758196831
1789453368932599600,5.548599609375,-2.0711127385899424,-8.090634017133713,1.5846756678193807
1789453368942540300,5.558540283203125,2.647230664807558,-10.783749650281667,4.112936838853359
1789453368952480500,5.56848046875,-4.529172246150672,-6.394238096016645,5.379613893982768
1789453368962421500,5.57842138671875,-4.321289666432142,-9.955523049128056,0.20361995383799075
1789453368972362500,5.588362548828125,0.03599690379351377,-5.827964395204186,1.621481257647276
1789453368982303500,5.598303466796875,-2.602251705396175,2.6638614816129205,-0.9540981294006109
1789453368992244500,5.608244384765625,-1.3263187461435795,1.8115630999982355,-2.885888029757142
1789453369002185500,5.618185546875,-0.5395394231438636,1.239195758485794,-1.9415899943590162
1789453369012125400,5.62812548828125,0.045748190218210215,-1.576196593287587,-1.4591285492211579
1789453369022066700,5.638066650390625,0.7968205322816968,-3.4193232908070086,0.06773731918632983
1789453369032007400,5.64800732421875,0.5613800835520029,-3.486373212251067,0.7180512392103672
1789453369041948700,5.65794873046875,-0.5057476281791925,-4.3999721580028535,0.28863106390833854
1789453369051889400,5.667889404296875,0.10668751982748508,-4.300776455235481,2.5627520541787145
1789453369061830400,5.677830322265625,0.5712877295821904,-5.061164030393958,2.6665771703124044
1789453369071770400,5.687770263671875,1.4958771481648088,-6.18385522391498,1.4561615161091088
1789453369081711600,5.697711669921875,1.6551096787437796,-5.3454380681365725,-0.7092427865937352
1789453369091652400,5.70765234375,1.480342602163553,-1.7932412613660096,-0.8226657521560787
1789453369101593600,5.717593505859375,-0.7393968095779418,2.6173113273620605,0.403014691196382
1789453369111534600,5.72753466796875,-3.125660077950358,2.5054314995884894,0.949485667169094
1789453369121474600,5.737474609375,-1.1474106242358684,1.2460223896354437,1.0088847815990447
1789453369131415600,5.74741552734375,-5.450410016217828,-2.0214894605040548,2.274253092217445
1789453369141356500,5.7573564453125,1.64480485008955,1.8980881217628716,0.6176213184729218
1789453369151297500,5.767297607421875,13.242516429328917,13.72657186565995,1.5370654831215738
1789453369161238500,5.777238525390625,14.237241752672194,10.123723899060487,0.30202362944483757
1789453369171179500,5.787179443359375,-11.788165177512168,-1.100724860906601,-0.9291624255865811
1789453369181119500,5.797119384765625,-3.2465970724046227,-2.836215944093466,-0.5436167555853724
1789453369191060500,5.807060546875,12.830470582675932,2.677148833209276,1.8113985570862887
1789453369201001500,5.81700146484375,1.198475041040778,2.516068628937006,1.5557313128858803
1789453369210942500,5.8269423828125,-9.051019848501682,-1.8525100274145603,-1.4305521508172154
1789453369220883700,5.8368837890625,-3.081049367329478,-1.4348475099235771,-2.2638597084969283
1789453369230824400,5.846824462890625,1.3261930739372967,0.8054425224155187,-1.2702327017843722
1789453369240764400,5.856764404296875,-0.5495785865992308,-0.16034429121315477,-1.2527321164071559
1789453369250705400,5.866705322265625,-0.8937024051487445,-1.4827847346186638,-1.0488502967625857
1789453369260646700,5.876646728515625,0.3511392502695322,-1.396865277531743,-0.4495855959743261
1789453369270587400,5.88658740234375,0.5490116003662348,0.6380120723336935,0.4806695932850241
1789453369280528600,5.896528564453125,0.30763445506393905,1.396574185630679,0.12437106055617332
1789453369290469400,5.906469482421875,0.4623036232501268,0.7297030985593795,-0.6388286494135856
1789453369300409600,5.91640966796875,-0.17243337293565272,-0.34190380441248414,-1.330553314973414
1789453369310350300,5.926350341796875,-0.8370435293376445,-0.7494160992890596,-1.298741880171001
1789453369320291600,5.93629150390625,0.06608604484796524,-0.314361717492342,-0.5221051810011267
1789453369330232300,5.946232421875,0.711844785785675,-1.7698305751621721,-0.967473743802309
1789453369340173600,5.956173583984375,0.5131576121747493,-2.562514738291502,-1.0758096153587102
1789453369350114600,5.966114501953125,0.14393793081343173,2.469185881730914,-0.8599459737583994
1789453369360054500,5.976054443359375,0.9572393500357865,12.14219605756998,0.37786622141450643
1789453369369995500,5.98599560546875,4.602689610043168,2.7311513492926953,0.42398441398888825
1789453369379936500,5.9959365234375,-1.3069137884497641,-2.352058216431737,0.9470233687087893
1789453369389877500,6.00587744140625,-0.391768782299757,-4.19178825725019,1.2653422993943095
1789453369399818500,6.015818603515625,-1.6178344255775212,-4.457948253892362,1.421117967517674
1789453369409759500,6.025759521484375,-0.7553782225638628,-2.9295389554351567,0.6308572321429848
1789453369419700500,6.035700439453125,3.3850562795460224,0.06674100162535905,-0.5443813102170825
1789453369429640400,6.045640380859375,5.170103713062406,1.6047081097617744,-1.9092521975949406
1789453369439581400,6.05558154296875,2.3407097239434718,0.2541717449456453,-1.8883467722102998
1789453369449522400,6.0655224609375,-1.741027674525976,-2.410255846117437,-0.6726026164606214
1789453369459463700,6.075463623046875,-1.1544582046598195,-2.9920193770065904,-0.5504001321151852
1789453369469404400,6.085404296875,1.8847627762436865,-1.2519605475127695,-1.2498723430618643
1789453369479345700,6.095345703125,1.602691216981411,-0.4095993302837014,-1.6477809432908892
1789453369489285400,6.105285400390625,-0.20269465568661688,-0.7098667637109756,-1.1594380388990044
1789453369499226600,6.1152265625,-0.4095101906955242,-1.099857138161361,-0.6566700110524892
1789453369509167400,6.12516748046875,-0.43438978040814397,-0.6496461037650704,-0.7811296266749501
1789453369519108600,6.135108642578125,-0.1880547204375267,-1.4980059768870473,-1.4951649082422256
1789453369529049300,6.14504931640625,0.6006283903568983,-1.9332567580386995,-1.16957306394428
1789453369538990600,6.154990478515625,0.34378538037538525,-1.2984873208880423,-1.4056407046616077
1789453369548930300,6.164930419921875,-0.3936065191209316,-1.5602335927411912,-1.2824608997166156
1789453369558871600,6.17487158203125,-0.43916941590011116,-1.6954519182652235,-1.9686577417656779
1789453369568812500,6.1848125,-0.21865619492828844,-1.6336521724343298,-2.4224773220479485
1789453369578753500,6.19475341796875,0.09849193841218948,-1.9169208325266838,-2.304548569498956
1789453369588694500,6.204694580078125,0.14268296231627464,-1.875267218145728,-2.290550147023797
1789453369598635500,6.214635498046875,-1.263396133762598,-1.8082310329660771,-1.8112167707785962
1789453369608575500,6.224575439453125,-1.6627724684566259,-1.1937228780776261,-2.0533222303554415
1789453369618516500,6.2345166015625,-0.8661579801410436,-0.9421066628336906,-2.912988802650571
1789453369628457500,6.24445751953125,-0.6010790567338467,2.9625913302093743,-3.051547378513217
1789453369638398500,6.2543984375,-1.0859715284109115,3.8734225648134943,-2.7698925833582875
1789453369648339500,6.26433935546875,-1.6603174765199422,2.2284131320625544,-2.0638708046376704
1789453369658280700,6.27428076171875,-2.9476521197527643,2.1138205381989477,-1.4235118769168853
1789453369668220400,6.284220458984375,-2.7771049989551306,2.0424656130373475,-3.3004557961031793
1789453369678161400,6.294161376953125,4.108891947376728,3.111673638173938,-0.9808926128238439
1789453369688102400,6.304102294921875,5.64201512261331,5.7397109422117465,1.019941889925301
1789453369698043600,6.314043701171875,7.220010289755463,9.47939665223062,1.552927361381054
1789453369707984400,6.323984375,-0.9439531674832105,4.057067652115226,2.2411998406603932
1789453369717925600,6.333925537109375,-6.088581663027405,-3.583165361008048,-0.7401055423691868
1789453369727866400,6.343866455078125,-0.8674854293525218,1.6108920590937137,-1.5855878142282367
1789453369737806600,6.353806640625,1.651059818831086,7.353223412936925,-1.597269191932678
1789453369747747300,6.363747314453125,1.0389695387393236,5.660560248607397,-1.5243214446216822
1789453369757688600,6.3736884765625,-0.2614268306404352,5.914161500188708,-1.2038678399950264
1789453369767629600,6.383629638671875,-0.05253156674802303,6.926622386708855,-0.02675795080512762
1789453369777570600,6.393570556640625,-0.8384569032669067,5.051757319623231,-0.268650352153182
1789453369787511600,6.403511474609375,-1.350372406426072,3.3807881007075307,-0.0422916200235486
1789453369797452800,6.413452880859375,-0.6566431230455637,2.2972481833577154,0.640668724322319
1789453369807392500,6.423392578125,0.4901017307579517,-0.08900865527391433,1.1186886798813938
1789453369817333500,6.43333349609375,0.6122568688303232,-3.0770126591593026,0.706686087848246
1789453369827274500,6.4432744140625,0.9207306973278522,-4.778343114069104,0.2708458163708448
1789453369837215700,6.4532158203125,1.222414135032892,-5.839301781776547,0.05804185460209846
1789453369847156500,6.463156494140625,-0.6264379543960094,-6.429118855261803,-0.6958943524599075
1789453369857097700,6.47309765625,-1.6934318106144666,-6.103584001848101,-0.4702843928709626
1789453369867037400,6.483037353515625,-1.0041904863029718,-4.273077716448903,0.041543724265694616
1789453369876978700,6.492978759765625,-0.41606092751324175,-2.480165540906787,0.05065788183063268
1789453369886919400,6.50291943359375,-0.5502618926882743,-1.4447685999572277,-0.38235096561312676
1789453369896860700,6.512860595703125,-1.7448422643780708,-1.6759452537626027,-0.5328679825559258
1789453369906801400,6.522801513671875,-1.9440438172519205,-2.7780314661502836,-0.07713643117249011
1789453369916742700,6.53274267578125,-1.689979039812088,-3.265884541198611,0.20959858985617755
1789453369926683600,6.54268359375,-1.5464175410956142,-2.0554192026346922,0.16719269580319523
1789453369936623600,6.55262353515625,-1.1008902806013823,1.1052888078212737,-0.1304055184148252
1789453369946564600,6.562564697265625,-1.612678357988596,2.299929385265708,-0.802365745318681
1789453369956505600,6.572505615234375,-1.1083663155704737,0.4367687844991684,-0.6079176705822348
1789453369966446600,6.582446533203125,-0.3636573710590601,-0.33469021977186203,-0.4056048538200557
1789453369976387600,6.5923876953125,-0.9936492185443639,-1.1332014816194773,-0.7198918986409902
1789453369986328600,6.60232861328125,-1.9690204375982283,-1.6427847424387931,-0.8194228247120976
1789453369996269600,6.61226953125,-1.5234534296154976,-1.7415958298027514,-1.6420220875032245
1789453370006209500,6.62220947265625,-0.2842126629441976,-2.228382152402401,-2.0165937974169847
1789453370016150500,6.632150634765625,0.14783786086142062,-2.818613067385554,-1.2643196783483028
1789453370026091500,6.642091552734375,-0.05996259353160858,-2.3831150334745645,-0.05837547047063708
1789453370036032800,6.65203271484375,-0.3433534186989069,-0.08219196099638938,0.9635876961492001
1789453370045973500,6.661973388671875,-1.065041553106904,3.3194612330853936,1.5100592566438018
1789453370055914800,6.671914794921875,-1.049371690288186,4.478687382799387,0.8385964578680694
1789453370065855500,6.68185546875,-0.7005760805353521,4.146240558040142,0.14310834812149403
1789453370075795700,6.691795654296875,-0.6761071174502372,3.4372318724632263,0.22943740892261266
1789453370085736400,6.701736328125,-0.8782277726411819,0.9051678020149468,0.2965742779977619
1789453370095677700,6.711677734375,-0.6545102026700973,-0.703911070176959,0.7374703715600073
1789453370105618400,6.721618408203125,-0.07225625791549682,-0.6168389359235763,0.7325147949792444
1789453370115559700,6.7315595703125,-0.3231649094119668,-1.1902794596254824,-0.16245850688815117
1789453370125500700,6.741500732421875,-0.5076309577077627,-0.5806728130429982,-0.3921671339675784
1789453370135441700,6.751441650390625,-0.6692512602061033,0.005381108516454697,0.07853942983821034
1789453370145381600,6.761381591796875,-0.590151420006156,-0.18370470853447912,-0.024570377632975576
1789453370155322600,6.771322509765625,-0.4043167137056589,-0.6106634621590376,-0.34773528704494233
1789453370165263600,6.781263671875,-0.3932102132797241,-0.8382833002656698,-0.10857070322558283
1789453370175204600,6.79120458984375,-0.05978080722391605,-0.8118284240603446,-0.08435995268523692
1789453370185145600,6.8011455078125,0.288344940443337,-0.7374398302912711,-0.0012894552886486053
1789453370195086600,6.811086669921875,-1.1942460251688956,0.34376901376247404,0.465543774215132
1789453370205027600,6.821027587890625,-0.841293003475666,0.7663087819010019,0.624739626045525
1789453370214967600,6.830967529296875,-0.885135652333498,0.3501408868819475,0.5998208733662963
1789453370224908500,6.840908447265625,-1.3075307513043284,-0.3363116834938526,0.4960026253648102
1789453370234849800,6.850849853515625,-1.6405325795978307,-0.9864140065938234,0.677649962978065
1789453370244790500,6.86079052734375,-1.3494114524394274,-1.3786843086749314,0.4140891890488565
1789453370254731800,6.870731689453125,-1.1336892651364208,-1.3039677981257438,0.4658832353025675
1789453370264672500,6.880672607421875,-0.737607880334556,-0.6129197166532278,0.8191884314343333
1789453370274613500,6.890613525390625,-0.6968816099315881,0.35488954271376133,0.5600502962529659
1789453370284554500,6.900554443359375,-0.2012143540009856,0.792774764022231,0.03360825509130955
1789453370294494700,6.91049462890625,0.3232245306447148,1.1290122132360934,-0.014793956767022609
1789453370304435500,6.920435546875,0.5243325016617775,1.0136825372695921,-0.36033363346382974
1789453370314376700,6.930376708984375,0.4161234713554382,0.4604921899139881,-0.6038087739586829
1789453370324317700,6.940317626953125,0.6923696854650974,-0.27282676105499265,-0.8744383172303438
1789453370334258400,6.950258544921875,0.4384855252891779,-0.8222510338753461,-1.1808747946813702
1789453370344199700,6.96019970703125,0.39158231981694697,-1.3155103518813849,-1.2169177295736968
1789453370354140400,6.970140380859375,0.4693377596706152,-1.616952966567874,-1.2287250717453657
1789453370364080600,6.98008056640625,0.21659984692037104,-0.7122340773642063,-0.6357001421295106
1789453370374021600,6.990021728515625,0.20805004523992537,0.2914396915882826,-0.23531433813199398
1789453370383962600,6.999962646484375,0.3720440911322832,0.254905319917202,-0.3796925600588322
1789453370393903600,7.009903564453125,-0.09316577495336532,-0.0961900912106037,0.11760463516116142
1789453370403844600,7.0198447265625,-0.36348435257971284,-0.4479033419758081,0.8270233628436923
1789453370413785600,7.02978564453125,-0.9925380424320697,-1.2341542571872473,0.8750511884316802
1789453370423726600,7.0397265625,-0.8598369604259729,-1.5765385385930537,0.6134814421892166
1789453370433667600,7.04966748046875,-0.58253451526165,-1.3856915570884942,0.03442833930253982
1789453370443607600,7.059607666015625,-0.2764332611143589,-1.0688812774002552,-0.572232316955924
1789453370453548500,7.069548583984375,-0.39024902538657186,-0.5678694455713034,-0.9036053750038147
1789453370463489500,7.079489501953125,-0.23669103331267832,0.20616554666757583,-0.7882870972141623
1789453370473430500,7.089430419921875,0.028613515543937682,0.12654489746391773,-0.7319698744475841
1789453370483371500,7.09937158203125,0.45638124746382236,0.6335878261506557,-0.5790273839235306
1789453370493312500,7.1093125,0.11786591644585132,1.1457792236417532,0.028701778349280355
1789453370503253500,7.11925341796875,-0.5090449161589146,1.3689128562450408,0.6773188313275575
1789453370513194500,7.129194580078125,-0.5800888756752014,0.7884335199475287,0.8816159537747502
1789453370523134500,7.139134521484375,-0.34915421393215657,0.614843962714076,0.804975781686604
1789453370533075500,7.149075439453125,-0.08275544009804725,0.008245850297808647,0.2828217931076884
1789453370543016700,7.1590166015625,0.03527998769581318,-0.348062327042222,-0.11047054549753665
1789453370552957400,7.16895751953125,0.2092991685181856,-0.3736298990190029,-0.39436289044618605
1789453370562898700,7.178898681640625,0.29963936465680596,-0.22901742994487284,-0.4205862959831953
1789453370572839400,7.18883935546875,-0.16976210789978502,0.3901198460489511,-0.05120031814426183
1789453370582780700,7.19878076171875,-0.7335042444080114,0.8245423596829176,0.4852984221294522
1789453370592721400,7.208721435546875,-1.295002401381731,0.9586246669143438,1.2052943656668067
1789453370602661600,7.21866162109375,-1.2158932088315486,0.5974819090247154,1.2189677939713
1789453370612602400,7.228602294921875,-1.0627104798108338,-0.006152092888951301,0.7328872815534472
1789453370622543600,7.238543701171875,-1.494871478253603,-0.46627486496865744,0.2958835192546248
1789453370632484600,7.248484619140625,-1.6986328863888978,0.21671850486397742,0.6657827073127031
1789453370642425600,7.258425537109375,-1.2091530869215725,-0.4061725707054138,0.7706044332683086
1789453370652366600,7.26836669921875,-0.5488800829410553,-0.3846042974978685,0.9437348485574125
1789453370662307600,7.2783076171875,-0.013151157996058463,-0.033817513927817344,0.8498761229038237
1789453370672248600,7.28824853515625,0.6572352437198161,-0.0124175830245018,0.4884530867680907
1789453370682189600,7.298189453125,1.6761112579792736,0.21075579706728456,-0.2382461538001895
1789453370692129500,7.308129638671875,0.6493892063945531,0.14394436055421828,-1.1566326260894537
1789453370702070500,7.318070556640625,0.6896043124049902,0.051344402790069577,-1.6064540766462683
1789453370712011500,7.328011474609375,0.23115678006112575,-0.10354103849530219,-1.5720535021334885
1789453370721952800,7.337952880859375,-0.49368718802928924,-0.19910744484961032,-0.9168529791116714
1789453370731893500,7.3478935546875,-1.3657190286397933,-0.525237926068902,0.23075725934952496
1789453370741834800,7.357834716796875,-1.7897779691696165,-0.9803577752947806,1.2440259551212192
1789453370751775500,7.367775390625,-1.059172368812561,-1.1829051314651966,1.59639854657799
1789453370761716500,7.377716552734375,-0.4104652994632721,-1.2316495808899401,1.028705626617372
1789453370771659000,7.387658935546875,-0.057228200131654736,-0.9168249220609664,-0.057716275909543036
1789453370781599000,7.397598876953125,-0.17856968373358248,-0.4808505028098821,-0.8247729535683989
1789453370791540000,7.4075400390625,-0.3151011376827955,0.0819517224997282,-0.9298936624705791
1789453370801481000,7.41748095703125,-0.3411252212554216,0.5346493130147457,-0.7323886843815446
1789453370811422000,7.427421875,-0.7101771448343992,0.6275257496327161,-0.25409458805620666
1789453370821363000,7.437363037109375,-0.8863672399550676,0.3750982180058956,0.25111323415786024
1789453370831304000,7.447303955078125,-0.7225485506296158,-0.016934183666110037,0.5651742151379585
1789453370841245000,7.457244873046875,-0.3873924669116735,-0.23724223745465278,0.7179445639654993
1789453370851186000,7.46718603515625,0.07858136928379535,-0.4185246872782707,0.3654480538681149
1789453370861127000,7.477126953125,0.10287351449728012,-0.40854397601187226,0.17289777557700872
1789453370871067100,7.487067138671875,0.2927759086281061,-0.16652444115281104,-0.05926087500303984
1789453370881007900,7.4970078125,0.41311026101410386,-0.2946072157084942,-0.6003431436747312
1789453370890949000,7.50694921875,0.21182781021296976,-0.30476328354179855,-0.8937623186424374
1789453370900889900,7.516889892578125,0.5161468571186065,-0.21545009236335752,-0.7536635276004672
1789453370910830800,7.526830810546875,0.591494066786766,-0.14584464121758936,-0.3531768935769796
1789453370920771800,7.536771728515625,0.8909615820080041,-0.29519992090463637,0.06150543905943632
1789453370930712800,7.546712890625,0.9866115749925375,-0.4536281493633985,0.12570581629127264
1789453370940654000,7.556654052734375,1.0740730008244515,-0.395084774979949,-0.32507863407880067
1789453370950594800,7.5665947265625,1.0845990710139275,-0.22845921154022217,-0.6435647380247712
1789453370960535000,7.57653515625,1.182697041672468,-0.16732319031506776,-0.5923144432589411
1789453370970476000,7.58647607421875,0.9505939206719398,-0.19376345347315072,-0.48782092634439467
1789453370980417000,7.5964169921875,1.0233856006383895,-0.18195786486715076,-0.4406044171392917
1789453370990357800,7.606357666015625,0.9307260216414928,-0.472090857771039,-0.09880407310128211
1789453371000299000,7.616299072265625,0.2530173142135143,-0.8504059919968247,0.13693448179215192
1789453371010239700,7.62623974609375,-0.4128863891303539,-0.9493059266880154,-0.2622539291143417
1789453371020181000,7.636180908203125,0.3096153997480869,-0.8398676468476652,-0.25290888540297746
1789453371030122000,7.6461220703125,1.8318296429574488,-0.769234898480773,-0.2942670239686966
1789453371040063000,7.65606298828125,2.142047100251913,-0.35319238340705633,-1.2892369697228074
1789453371050004000,7.66600390625,2.0951590923488137,0.21828063961416483,-1.9947914231926203
1789453371059945000,7.675945068359375,1.2887000863671303,0.09200432995855808,-2.1896762819111344
1789453371069885000,7.685885009765625,0.7790034283012152,0.1420759363338351,-1.7965280279517173
1789453371079826000,7.695825927734375,0.7825444619089365,0.33511312135905025,-1.0771402794405818
1789453371089767000,7.705766845703125,1.1798597724199293,0.26177199081629515,-0.8777364819929003
1789453371099708000,7.7157080078125,1.1437152768492698,0.25374592074900865,-0.3404775710016489
1789453371109649000,7.72564892578125,0.9084639209508896,0.2915551346614957,-0.18300766618102787
1789453371119590100,7.735590087890625,0.29682722984552384,0.3412386185020208,-0.6924409971356391
1789453371129531000,7.74553076171875,0.03648936348557472,0.3510819671243429,-0.8809843778729438
1789453371139472100,7.75547216796875,0.009132570004463195,0.4694789217069745,-0.1742100272193551
1789453371149412900,7.765412841796875,0.2793874347448349,0.5171180402383208,-0.014017419436573982
1789453371159353900,7.775353759765625,0.2753039648234844,0.5515533938035369,-0.44146074170768257
1789453371169293800,7.7852939453125,0.5051742122054099,0.602715718024969,-0.22047201217859982
1789453371179235000,7.795235107421875,1.1710545346736907,0.6242740543603896,-0.8556210962966084
1789453371189175800,7.80517578125,0.26416999186873436,0.7059893377557397,-1.3410031050562858
1789453371199117000,7.815116943359375,0.07188099486231804,0.7821618923321366,-0.845601222063601
1789453371209058000,7.82505810546875,0.20587387024462223,0.7919488345921039,-0.3260746593788266
1789453371218998800,7.834998779296875,-0.022768296647071837,0.7382982006862759,0.022584172251820564
1789453371228940000,7.84493994140625,0.35443069303035735,0.5460048197656869,0.0828165226355195
1789453371238880800,7.854880859375,0.49720250267386434,0.3202642195343971,-0.35548370921462774
1789453371248822000,7.864822021484375,0.4592015655815601,0.3056055795848369,-0.26135844157934185
1789453371258762800,7.8747626953125,0.8897095361202955,0.5489864659249782,-0.04032791873514652
1789453371268704000,7.8847041015625,0.6626935091257095,0.7017202821344137,-0.33193887523710724
1789453371278644000,7.89464404296875,0.2617319510668516,0.8887707939654588,-0.6987091176196932
1789453371288585000,7.9045849609375,0.4532067090809345,1.0944891813874245,-0.44465690740048885
1789453371298526000,7.91452587890625,0.6520008501976728,1.1258020190179348,-0.1932955437004566
1789453371308467000,7.924467041015625,0.08752221610844135,0.966220528870821,-0.045854573202133174
1789453371318408000,7.934407958984375,0.2537286773532629,0.7338467742353677,0.1107718665316701
1789453371328349000,7.944348876953125,0.36930209894776345,0.44819501839876175,0.19310732765197752
1789453371338290000,7.9542900390625,-0.043344051685929294,0.1365934132695198,0.06281885974556208
1789453371348231000,7.96423095703125,0.1853922232300043,0.00449906498491764,-0.08141045522987841
1789453371358172000,7.974171875,0.0730026923686266,-0.24398411293029784,-0.12068477325886487
1789453371368113200,7.984113037109375,-0.2758095762580633,-0.3374246131718159,0.03990530940890312
1789453371378054000,7.994053955078125,-0.3904880948394537,-0.23207506394982336,0.1180500408411026
1789453371387995000,8.003994873046874,-0.44640755046010017,-0.05144260246753692,0.12917261561900376
1789453371397934800,8.013934814453124,-0.7851976067662239,-0.1191255611181259,-0.027387773141264914
1789453371407876000,8.0238759765625,-0.9565659808188677,-0.2974304564356804,-0.024000761051476
1789453371417816800,8.03381689453125,-0.6620704087913036,-0.29872166528999805,0.20856296319812534
1789453371427758000,8.043758056640625,0.06499006630480289,-0.019017419680953024,0.43397126273512837
1789453371437698800,8.05369873046875,0.07858020024001598,-0.1517950740545988,-0.18139760063588617
1789453371447640000,8.06364013671875,-0.034812954705953594,-0.2435235096812248,-0.8911626575380563
1789453371457581000,8.0735810546875,0.7357195823699235,-0.4010667719990015,-1.0321499218523502
1789453371467521800,8.083521728515626,0.47195291060507294,-0.13123627015054226,-0.6382561102226376
1789453371477463000,8.093463134765624,-0.6821271083921193,0.3843663970887661,-0.2416100772753358
1789453371487403800,8.10340380859375,-0.4414221632629633,0.23944003975987432,0.24771292419508098
1789453371497345000,8.113344970703125,-0.3978776205688715,-0.15124036278128622,0.19107699086815116
1789453371507285800,8.12328564453125,-0.46189095079600806,-0.3458440664708614,-0.08894947243258357
1789453371517226000,8.13322607421875,0.016034019955992698,-0.22169804684221744,-0.07324073890820146
1789453371527166700,8.143166748046875,0.3699392278075218,-0.3805798642873764,0.035198739153146745
1789453371537108000,8.15310791015625,0.22140520137548445,-0.6670826839953661,-0.08822758789882064
1789453371547049000,8.163049072265625,-0.07457622529566288,-0.6105418816059828,0.028138299247622487
1789453371556990000,8.172989990234376,-0.47661505719721314,-0.34511750576198097,0.5149518021151424
1789453371566931000,8.182930908203126,-0.882858355051279,-0.05913198792636394,0.7254191376298665
1789453371576872000,8.192871826171874,-0.8085627002626657,0.18209318168461322,0.957525765761733
1789453371586813000,8.20281298828125,-1.1045359436273574,0.23163491896688937,1.4272608541868625
1789453371596754000,8.21275390625,-1.0350421361625195,0.28888182379901406,1.6308428141020237
1789453371606695000,8.22269482421875,-0.9839145909935235,-0.0069184010863304135,1.544343949691951
1789453371616636200,8.23263623046875,-0.8497896136641502,-0.3400666521131992,0.7871252138279378
1789453371626577000,8.242576904296875,-0.5899971062272786,-0.5221557421445846,0.6021984161525964
1789453371636518000,8.252517822265625,-0.3582178103536367,-0.2913514287829399,0.6319806832149625
1789453371646457900,8.262457763671875,-0.19682313330471515,-0.3368687328547239,0.3391740871876478
1789453371656399000,8.272399169921876,0.014496142864227294,-0.22566052073240278,0.23433657914102077
1789453371666339800,8.28233984375,0.20597031635642052,0.17154314609766005,0.14512129537910223
1789453371676281000,8.292281005859374,-0.16153963847756383,0.1607271530508995,0.05274798597767949
1789453371686221800,8.302221923828125,-0.43957624313533306,0.04216565555632114,0.4649991459444165
1789453371696162800,8.312162841796875,-0.22570845152735708,-0.06381926895976066,0.95071462444216
1789453371706104000,8.32210400390625,-0.520741199171543,-0.46687224633991714,1.0706780976891517
1789453371716044800,8.332044921875,-0.9980939229935407,-0.8919804036617278,0.7288524730794131
1789453371725986000,8.341986083984375,-1.152044129255414,-0.9593173253536224,0.426334776507318
1789453371735926800,8.3519267578125,-0.9920441214352845,-0.688297321459651,0.7129433946773409
1789453371745868000,8.361867919921876,-0.33158465497195716,-0.3841086229354143,0.7291542325049638
1789453371755809000,8.37180908203125,0.05818915411829948,-0.320965645802021,0.3598801906079054
1789453371765749000,8.3817490234375,-0.38658991835713385,0.3565121754795313,0.5906652147471905
1789453371775689200,8.391689208984374,-0.5284557190716266,0.19519874697327613,0.3018200696967542
1789453371785630000,8.4016298828125,-0.5857116839930415,-0.1955529672384262,0.33711145556941624
1789453371795571200,8.4115712890625,-0.7951660430729389,-0.2140302886933088,0.7353186003535985
1789453371805512200,8.42151220703125,-0.8739508259743451,-0.5027461082756519,0.8747054437339306
1789453371815453000,8.431452880859375,-0.7383715581834316,-0.37657355125546454,0.857999808126688
1789453371825394200,8.441394287109375,-0.24095482823699713,-0.21483166820406913,-0.02052870102673769
1789453371835335000,8.4513349609375,-0.30210867737978697,-0.3943535380959511,-0.49574499734193084
1789453371845276200,8.461276123046876,-0.22422025879621504,-0.39697628781497474,-0.5100023630142212
1789453371855217000,8.471216796875,-0.09357084862291812,-0.18317980787754057,-0.41623394599258895
1789453371865158100,8.481158203125,0.06411883642822504,0.037513445836305614,-0.33758170342966914
1789453371875099100,8.49109912109375,0.197103119289875,0.22862755384445188,-0.18082886083722113
1789453371885040000,8.5010400390625,-0.08585223706960678,0.05576455731987953,-0.13562822149917483
1789453371894981000,8.510981201171875,-0.3421791142225265,-0.46600890750885005,-0.10688464983478188
1789453371904922000,8.520922119140625,-0.2957125466018915,-0.7643512180924416,0.11443258099630474
1789453371914863000,8.530863037109375,-0.1384714821010828,-1.0178758973062039,0.13354761583283542
1789453371924803000,8.540802978515625,-0.10565320834368466,-1.1716659445703028,-0.25593334779068827
1789453371934744000,8.550744140625,-0.22192513359636068,-1.1179472138643265,-0.5828361285567283
1789453371944685000,8.56068505859375,-0.31345892343372106,-0.8920721735984086,-0.6941030851289629
1789453371954626000,8.5706259765625,-0.27993717758208514,-0.6357230846136808,-0.5092851546555757
1789453371964567300,8.5805673828125,-0.07192074235081672,-0.43101708910465236,-0.4272583210930228
1789453371974508000,8.590508056640624,0.21184242326021194,-0.23818390221893787,-0.5068487212888896
1789453371984449000,8.600448974609375,0.1254910044968128,-0.1432072784513235,-0.4037780767843127
1789453371994390000,8.61039013671875,-0.004980711022019386,0.025296353819966314,-0.3143713621035218
1789453372004331000,8.6203310546875,-0.1618020888060331,0.07630641008913516,-0.0922374080620706
1789453372014272000,8.63027197265625,-0.42097441851794715,0.04814472996592521,0.19603461327552793
1789453372024213000,8.640212890625,-0.40368718363046646,0.10930383980572222,0.38945553692132234
1789453372034154200,8.650154296875,0.0848755009919405,0.15807283914983272,0.13775573504716157
1789453372044095000,8.660094970703126,0.20530922209918498,0.22808862466216087,0.15757351132556796
1789453372054036200,8.6700361328125,0.2664507962822914,0.17450258042514324,-0.10031988449171185
1789453372063977000,8.67997705078125,-0.17027414907515048,0.11102934842407702,-0.056147419157624244
1789453372073917200,8.689917236328125,-0.6263274797588586,0.05955810438394546,0.45314562654346224
1789453372083858000,8.69985791015625,-0.8459750238120556,0.018600071051716804,0.9504559735059738
1789453372093799200,8.709799072265625,-0.7116869648754597,-0.057086161312460894,1.081075280801952
1789453372103740000,8.719739990234375,-0.24247429288923739,-0.5804629696846008,0.739137281858921
1789453372113681200,8.72968115234375,-0.1614934612482786,-0.04253039721548557,0.8783791638106108
1789453372123622100,8.7396220703125,0.007301847445964813,0.2142488998800516,0.8310007420420646
1789453372133563100,8.749563232421876,0.017912088787555694,0.3551911560088396,0.6054366674214601
1789453372143504100,8.759504150390624,-0.012815057909488677,0.5246352840006351,0.3445817914500832
1789453372153445000,8.769445068359374,0.1986941878736019,-0.12509294508993624,-0.14864567011296748
1789453372163386000,8.77938623046875,-0.32639293154776094,0.15316285527646542,-0.07315496032088994
1789453372173326800,8.789326904296875,-0.6844792244762182,0.04292670305669308,0.11921382392346858
1789453372183268000,8.79926806640625,-1.021155649629235,-0.3084299893558025,0.5651143016442656
1789453372193209000,8.809208984375,-1.053221351453662,-0.6556441751360893,1.1701882732331752
1789453372203150000,8.819150146484375,-1.0387164407610892,-0.43429508786201476,1.6608318557828663
1789453372213091000,8.829091064453126,-0.47684652786552906,-0.9270055398136376,1.3621227577134967
1789453372223032000,8.839031982421876,-0.03437105615735054,-0.7926268799841404,0.9335469242811203
1789453372232972000,8.848971923828126,0.37892800542712207,-0.09572598083019256,0.33155338305085896
1789453372242913000,8.8589130859375,0.5976490822851658,0.5784639048218727,-0.45098990981429815
1789453372252854000,8.86885400390625,0.5076169291824102,0.5789373675525188,-1.3508297948047518
1789453372262795000,8.878794921875,-0.12209960849285124,0.3553109829962253,-1.3080316865637898
1789453372272736000,8.888736083984375,-0.4492033186584711,0.6618564737796783,-0.6662412647351622
1789453372282677200,8.89867724609375,-0.5010504102736711,0.460988448998332,0.030150808113813397
1789453372292618000,8.908617919921875,-0.16896540456414222,0.07744272064268588,0.5517562228992581
1789453372302559200,8.918559326171875,0.20510113230645655,0.021887422159314156,0.5669751270800829
1789453372312500000,8.9285,0.5178951620906591,-0.08317395777106285,0.001294131463766098
1789453372322441200,8.938441162109376,0.2057318314254284,-0.2940530889570713,-0.2975947070866823
1789453372332382000,8.9483818359375,0.08043956437110901,-0.7318652450293303,0.056085752098262304
1789453372342323000,8.958322998046874,-0.57440323125422,-1.121038165616989,0.5032806535437703
1789453372352264200,8.96826416015625,-0.5435913288831711,-0.34741993748545646,0.03474427338391542
1789453372362205000,8.978204833984375,-0.014754501539468765,-0.5806120227664708,-0.2734203430339694
1789453372372146200,8.988146240234375,-0.17634616246521473,-0.6434796900898218,-0.309876388771832
1789453372382087000,8.9980869140625,-0.26951310646235943,-0.8183066801637411,-0.2887134814947843
1789453372392027100,9.008027099609375,-0.36400106993019576,-0.7645172223091125,-0.02076221752166748
1789453372401968000,9.017968017578125,0.07843173168003559,-0.7509785263001918,-0.09426701419353485
1789453372411909000,9.0279091796875,-0.13359306240975857,-0.511336241966486,-0.09822305834293366
1789453372421849900,9.037849853515626,-0.3056523413360119,-0.510351322582364,-0.4156812805458903
1789453372431791000,9.047791015625,0.003215454915165901,0.0387210680603981,-1.1534332455262541
1789453372441732000,9.057732177734374,0.6060556761026382,0.37106969314217564,-1.393150056400895
1789453372451673000,9.067673095703125,1.1569885999202727,0.28177053048908707,-1.0566066099777818
1789453372461614000,9.077614013671875,0.592900426453352,-0.09613222354352474,-0.5584194801807403
1789453372471555000,9.08755517578125,-0.6235410639107227,-0.4344149148494005,-0.06391366924494504
1789453372481496000,9.09749609375,-0.3635562487721443,-0.9215344149261713,0.17677695509791372
1789453372491437000,9.10743701171875,0.39078561648130417,-1.273894439162314,0.011292378386855125
1789453372501378000,9.1173779296875,1.222645605701208,-1.1033178000092505,-0.6821820534497499
1789453372511319000,9.127319091796876,1.7922995966017246,-0.6691369861766696,-1.4248057161197065
1789453372521260000,9.137260009765624,1.6160919658243655,-0.28340543821454045,-1.6688532496750355
1789453372531201000,9.147200927734374,1.1523603555977344,0.07078209370970726,-1.798266980573535
1789453372541142000,9.15714208984375,0.7000549792706966,0.4440782307296991,-1.630083958558738
1789453372551083000,9.1670830078125,0.5435609337449073,0.46358372618854043,-0.6581164104685187
1789453372561024300,9.177024169921875,0.4352525347173214,0.14525924254506825,0.6013330314949155
1789453372570965000,9.186965087890625,0.1109083523929119,-0.34245004011839625,0.5374307604268193
1789453372580905000,9.196905029296875,0.27169337311089037,-0.5826902903452515,-0.07607318585515022
1789453372590846000,9.206845947265625,1.409936940550804,-0.27095424518138167,-0.6538295269295573
1789453372600787200,9.216787109375,0.9649696520268917,0.2758694897517562,-0.9571899579361081
1789453372610728000,9.22672802734375,0.38595863471627234,0.6057248367130756,-0.7717500961720943
1789453372620669200,9.236669189453124,0.3059638915032148,0.42628859927803275,-0.48071898538470265
1789453372630610000,9.24660986328125,0.9589736264824866,0.44202743567973374,-0.6591726415231823
1789453372640551200,9.25655126953125,0.4479097717165947,0.7395411864846945,-0.8742585767492651
1789453372650492200,9.2664921875,-0.02069207489490509,0.6862482799753546,-0.673989102382958
1789453372660433200,9.27643310546875,0.13264029172956943,0.3150888627231121,-0.01597995168119669
1789453372670374100,9.2863740234375,0.35004444077014923,0.3416735027879476,-0.15107903473973272
1789453372680315100,9.296315185546876,0.7622387559831142,0.38155601584315296,-0.8447574647158383
1789453372690256100,9.306256103515626,0.9413830247342586,0.42956542899161576,-1.348774031318724
1789453372700196900,9.31619677734375,0.9451415004849434,0.40994536724239583,-0.8049263895869254
1789453372710138000,9.32613818359375,0.7121481526464224,0.2457423547744751,-0.3177528212353587
1789453372720079000,9.3360791015625,0.5011316588163376,0.30140403624176976,-0.440695310293138
1789453372730020000,9.34602001953125,0.326081381380558,0.48626083742082116,-0.5170774159669875
1789453372739961000,9.355961181640625,0.6526128446161746,0.5770943700343371,-0.3539265429005027
1789453372749902000,9.365902099609375,0.7957762839257717,0.7483478855356573,-0.3330772316172719
1789453372759843000,9.375843017578125,0.366725526458025,0.8454264500185846,-0.572991318629682
1789453372769783300,9.385783203125,0.5632885475218296,0.9533435116410255,-0.7941276399359106
1789453372779724000,9.39572412109375,1.0654653314769267,0.9594552725195884,-0.725584265063703
1789453372789665300,9.405665283203126,1.1672153949022293,0.6747329064875841,-0.9779752640724182
1789453372799606000,9.41560595703125,0.8255021446257829,0.4921680156379938,-1.1209832205593586
1789453372809547300,9.42554736328125,0.6775719293057918,0.49466509315073487,-0.7359180275514722
1789453372819488300,9.43548828125,0.646401715016365,0.2696884630292654,-0.6383350206777453
1789453372829429200,9.44542919921875,0.6171802967071532,0.4711480239629745,-0.8045970115020871
1789453372839370200,9.455370361328125,0.2576274383574724,0.8151344798684119,-0.8087269509136676
1789453372849311200,9.465311279296875,0.19869594143927097,1.067870639052987,-0.48920682774484153
1789453372859252200,9.475252197265625,0.2060270149797201,0.920923005029559,-0.16816548635810613
1789453372869193200,9.485193115234376,0.29520635064542294,0.044350598379969595,-0.08230360467731952
1789453372879134200,9.49513427734375,-0.6060398940116166,-0.1891922000348568,-0.5304831332460046
1789453372889075200,9.5050751953125,-0.23951836569309234,-0.06649404112696647,-0.47370209235996
1789453372899016200,9.51501611328125,0.4508183526396751,0.04280570702552795,-0.41796325400322676
1789453372908957200,9.524957275390625,-0.16327040779292581,0.22152619740664958,-0.698467125557363
1789453372918898200,9.534898193359375,-0.7977443691283463,0.36142975813746453,-0.838769622477889
1789453372928839200,9.544839111328125,-0.5865075105458498,0.4454460119515657,-0.8046627702146768
1789453372938780400,9.554780517578125,-0.9128858290463685,0.10270224958360194,-0.4551061129614711
1789453372948721200,9.56472119140625,-0.8180968368053436,-0.12019289808869361,0.46344227189123627
1789453372958662100,9.574662109375,-0.645413288500905,-0.4525274946451187,0.9624240591973066
1789453372968602000,9.58460205078125,-0.6124170278280973,-0.9662468323558568,0.7118979772776365
1789453372978543400,9.59454345703125,-0.6900929727047681,-1.1440291651040315,0.005823883847892284
1789453372988484000,9.604484130859374,-0.9093149848222732,-0.9565063595861196,-0.27373130867928264
1789453372998425300,9.61442529296875,-0.9239666105091571,-0.4768324993401766,-0.11060498553216457
1789453373008366000,9.624365966796875,-0.9360282197028398,-0.07312661100924014,0.037113048341870306
1789453373018307300,9.634307373046875,-0.7941331928938626,-0.05230477225482463,0.41363808428049087
1789453373028248300,9.644248291015625,-0.47402270261645313,-0.16642331886589526,0.5555718356646597
1789453373038189000,9.65418896484375,-0.8281570430487394,-0.4546452174514532,0.36988720535933967
1789453373048130300,9.66413037109375,-0.8013415168374777,-0.4749345567643642,-0.07501973127946257
1789453373058071000,9.674071044921876,-0.5858054997563362,-0.5928571718335152,-0.6680452454172074
1789453373068012300,9.68401220703125,-0.3631681262373924,-0.647535687482357,-0.5714768224135041
1789453373077953000,9.693953125,-0.08519874159693717,-0.5992974340140819,-0.0882780029118061
1789453373087894300,9.703894287109375,0.05353986700773239,-0.4073837000608444,0.26695494641214607
1789453373097835300,9.713835205078125,0.16002338869571686,-0.10379179838597774,-0.016943828277289866
1789453373107776300,9.7237763671875,0.5421481443375349,0.363155851277709,-0.22554668509438633
1789453373117717200,9.73371728515625,0.471162052488327,0.7086211475640535,-0.5000213594868779
1789453373127658200,9.743658203125,0.18712708419859408,0.4154091856062412,-0.9247532308422028
1789453373137599200,9.75359912109375,-0.0640004707455635,0.4266150547534227,-0.3818905084945261
1789453373147540000,9.7635400390625,-0.5352192218571901,0.4187918137818575,0.7303913730844855
1789453373157481200,9.773481201171874,-0.8265484388083219,0.6489981612503528,1.4711474883168936
1789453373167421200,9.783421142578124,-0.6959218249887228,0.504413164705038,1.427332311987877
1789453373177362200,9.793362060546874,-0.3608449439868331,0.6078945819675922,1.150327242334932
1789453373187303400,9.803303466796875,-0.4653852226525545,0.4315519266337156,0.6372286668710411
1789453373197244200,9.813244140625,-0.9990028545320033,0.13770517390370368,0.005822130282223224
1789453373207185200,9.82318505859375,-1.276063307633996,-0.033193829071521755,-0.025426994462311267
1789453373217126100,9.833126220703125,-1.0100625932067633,0.09595745149850844,1.105858278272301
1789453373227067100,9.843067138671875,-0.8826473426491022,-0.4201449819564819,1.8168309573985635
1789453373237008100,9.853008056640626,-1.0506605610549449,-0.5893430262327194,1.274177640017867
1789453373246949000,9.86294921875,-0.7248702715754508,-0.7743254996180534,0.14779489850252867
1789453373256890400,9.872890380859374,-0.4892389764487743,-0.9151327311903238,-0.16059943501800297
1789453373266831000,9.8828310546875,-0.5661404298216104,-0.9696808984577655,-0.05319558361470699
1789453373276772400,9.8927724609375,-0.4971703539699316,-1.1712000806242227,-0.345648105507344
1789453373286713000,9.902713134765625,-1.0086696775436401,-0.797321759802103,0.26770050408244134
1789453373296654300,9.912654296875,-1.2735054398447274,-1.0294763187289238,0.5693941709205508
1789453373306595000,9.922594970703125,-1.41022394079864,-1.0052741898864508,0.7027246368713677
1789453373316536000,9.9325361328125,-1.2898819896280764,-0.9909230084508657,0.4436299024403095
1789453373326477300,9.942477294921876,-0.9156263599261641,-0.5916168163836002,-0.28195260905772446
1789453373336418000,9.95241796875,-1.0492676453918217,-0.37760230978131293,-0.4435322872847318
1789453373346359300,9.962359375,-0.8945826951146125,-0.18698095372617243,0.08094970585033297
1789453373356300000,9.972300048828124,-0.44158933652341364,-0.055092357146739955,0.4110746635332703
1789453373366241300,9.9822412109375,0.08926730621010065,-0.14140402842164038,0.06977408571094273
1789453373376181200,9.99218115234375,0.3460653080061078,-0.19410744460523127,-0.5398310995668173
1789453373386122200,10.002122314453125,-0.09513035302460193,-0.32078912019133565,-0.8894751428425312
1789453373396063000,10.01206298828125,-0.4599550142973661,-0.2605406954556703,-0.6322052857510745
1789453373406004200,10.022004150390625,-0.3083995942175388,-0.3358142553657293,-0.6219384510196745
1789453373415945200,10.0319453125,-0.0132040572270751,-0.5498889677226543,-0.5154086059719324
1789453373425886200,10.04188623046875,0.16201310120820997,-0.2585778709501028,-0.17818462993875145
1789453373435827200,10.0518271484375,0.1774815962359309,-0.29877368773818014,-0.5575298378646374
1789453373445768200,10.061768310546874,0.3265145121008158,-0.2678197465479374,-0.9559251986972988
1789453373455709200,10.071709228515624,0.4377499044910073,0.14231646709144113,-0.9129865129418671
1789453373465650400,10.081650390625,0.6221241828501224,0.2809481081902981,-1.0347592275679112
1789453373475591200,10.091591064453125,0.6880635127037763,0.37244098149538035,-1.0344111447826028
1789453373485532200,10.1015322265625,0.5540647921025753,0.39163960296213624,-0.8601625391185284
1789453373495473200,10.11147314453125,0.4440010738402605,0.08524374978244305,-0.6705638041093945
1789453373505414100,10.1214140625,0.021243279036879538,-0.43407121597826476,-0.5227037314161658
1789453373515355100,10.131355224609376,-0.698735713365674,-0.60353463319242,0.0048385260723531245
1789453373525296000,10.141296142578126,-1.1070008724361657,-0.5956038401931524,0.31830081050693987
1789453373535237400,10.1512373046875,-1.360534904000163,-0.5844353804469108,0.4961652685806155
1789453373545178000,10.16117822265625,-1.5860913798362015,-0.3970394161790609,0.7452860137470066
1789453373555119400,10.171119384765625,-1.3445295256167649,-0.2963368159800768,0.4870347444027662
1789453373565060000,10.18106005859375,-0.6751315504163503,-0.06151099201738834,0.2971989857673645
1789453373575001300,10.19100146484375,-0.1897410660892725,0.4677198030799627,0.3885924903512001
1789453373584941000,10.200941162109375,0.23452421066761014,-0.08177461236715317,0.04383972624838352
1789453373594882300,10.21088232421875,0.40355040550827975,0.2071381910920143,-0.12524813565164802
1789453373604823000,10.220822998046875,0.2028904705196619,0.30333003586828705,-0.13643909949064253
1789453373614764300,10.230764404296876,-0.2971820346325636,0.13875380617380143,0.15541443359553814
1789453373624705300,10.240705322265624,-0.7833587009012699,-0.1585176603078842,0.6358744757831096
1789453373634646300,10.250646240234374,-0.7730588406831026,-0.5352355884701013,0.6844663649946451
1789453373644587300,10.260587158203125,-0.7876140202581882,-0.3314151436239481,0.7523290641263127
1789453373654528300,10.2705283203125,-0.6643781012117862,-0.8730787193149327,0.16052812334746122
1789453373664469200,10.28046923828125,-0.8850339455246925,-0.9252771085858345,-0.13050269517898558
1789453373674410000,10.290409912109375,-1.140811372101307,-0.17768647115826605,0.039023558138310904
1789453373684351200,10.300351318359375,-0.7268366032123565,0.11273264521062373,0.13077742046713828
1789453373694292200,10.310292236328126,-0.5313666380822658,0.29294425093233584,0.3654197045564651
1789453373704233200,10.320233154296876,-0.2899567595541477,0.22938626325726508,0.2737614115566015
1789453373714174200,10.33017431640625,-0.016354337951540947,0.2786842549115419,0.22760317923277615
1789453373724115200,10.340115234375,0.14441314710974693,-0.2621720960497856,-0.059789575052261346
1789453373734056200,10.35005615234375,0.39192777225375175,-0.9407096555173396,-0.16140987461805342
1789453373743997200,10.3599970703125,-0.309667422196269,-0.661526803433895,0.01064385135024786
1789453373753938200,10.369938232421875,-0.6767687962293625,-0.5168073668539523,0.26596184372156856
1789453373763879400,10.37987939453125,-0.7069552601784467,-0.6187912390351296,0.41531215497255325
1789453373773820000,10.38981982421875,-0.7588461909353733,-0.572689413073659,0.5785702878057957
1789453373783761000,10.399760986328126,-0.3242693635225296,-0.29436463912427424,0.3849216928839683
1789453373793702000,10.409701904296876,-0.044323710373044015,-0.027972879552841185,0.1291276074334979
1789453373803641900,10.419641845703126,-0.1184855096489191,-0.31603111200928685,0.39827363414913414
1789453373813582800,10.429582763671876,-0.18231062382757662,-0.4891694183439016,0.4294806733176112
1789453373823523800,10.43952392578125,-0.6457774456381797,-0.36973464514613147,0.6089876379013062
1789453373833464800,10.44946484375,-0.5974889232873917,-0.29733517936766146,0.6447144925817847
1789453373843405800,10.45940576171875,-0.17718962755203246,-0.42093525555133815,0.1151303540021181
1789453373853346800,10.469346923828125,-0.054281625285744664,-0.5283060814678668,-0.4104749440744519
1789453373863287800,10.479287841796875,0.004549333867430686,-0.16047580863833427,-0.7702890837088227
1789453373873228800,10.489228759765625,-0.31679508211910723,0.01680032815337181,-0.6121317811459303
1789453373883169800,10.499169677734375,-0.7240402504920959,0.006271335354447364,-0.006605389614403248
1789453373893110800,10.50911083984375,-1.1585562876284121,-0.717742027130723,0.8306170034214854
1789453373903051800,10.5190517578125,-0.7703776387751102,-1.244134383931756,0.8006278156101703
1789453373912992800,10.52899267578125,0.14914543632864952,-1.4086755423128603,-0.30933278341442344
1789453373922933800,10.538933837890625,1.4077929142594336,-0.845390501922369,-1.3087079783901572
1789453373932875000,10.548875,2.1952789242237807,-0.08078092515468598,-2.00158970503062
1789453373942815700,10.558815673828125,2.334836447995901,0.5333809005141258,-2.096887523576617
1789453373952757000,10.568757080078125,1.7192904744923114,0.7814017216145992,-1.6667898874044418
1789453373962697700,10.57869775390625,0.9041367054015398,0.7222539515972137,-0.8925091037109494
1789453373972638700,10.588638671875,0.36822891675829883,0.2177101462498307,-0.16357757404595613
1789453373982579700,10.598579833984376,0.11238427016437053,-0.21078122376948594,0.2747226578041911
1789453373992520700,10.608520751953124,0.46962592896223065,-0.7035615260869265,-0.29047201559990643
1789453374002462000,10.6184619140625,0.8375859656512736,-0.7917632488921285,-0.979814462198317
1789453374012402700,10.628402587890625,1.1512076784312724,-0.6717065444037318,-1.0215770899116992
1789453374022344000,10.638343994140625,0.5937579200655222,-0.3809998432651162,-0.6029556642606854
1789453374032284000,10.648283935546875,0.3594400456249714,-0.3250552532032132,-0.20793226407915352
1789453374042225000,10.658224853515625,1.4555162039428948,-0.6165384916722774,-0.7253150927335024
1789453374052165600,10.66816552734375,2.1175585556834933,-0.11228782405257225,-1.1961360766991973
1789453374062107000,10.67810693359375,2.124388693964481,0.35109511886686084,-0.9511936401307582
1789453374072047600,10.688047607421876,0.8663292450547218,0.3387804116949439,-0.950272725893557
1789453374081988900,10.69798876953125,0.39778234350085256,0.2281827326864004,-0.9292948197945952
1789453374091929900,10.707929931640624,1.3746394171983003,0.2042129512950778,-0.5773737714976072
1789453374101870800,10.717870849609374,1.2497037084966898,0.23092706295847892,-0.8001549374014139
1789453374111811800,10.727811767578125,0.7817454204857349,0.38026977542489765,-1.090099714256823
1789453374121752800,10.7377529296875,0.7394663676828146,0.38674130952656266,-1.3543182214424014
1789453374131693800,10.74769384765625,0.4015092550694942,0.5744225204765796,-0.9812941793620585
1789453374141634800,10.757634765625,0.33538580082058905,0.7823951165661215,-0.6517521361336112
1789453374151575800,10.767575927734375,-0.13545944080352781,0.7736255346551537,-0.41632162427604197
1789453374161516800,10.777516845703126,-0.13373393218517302,0.2983081160530448,-0.12529197479337453
1789453374171457800,10.787457763671876,0.5917734682500362,0.000005552957952022552,-0.19888766461908816
1789453374181398800,10.797398681640624,0.7085714632034301,-0.16868746440559626,-0.6856386236444115
1789453374191339800,10.80733984375,0.7533797422230243,-0.06563450168818236,-1.2227329917237162
1789453374201280800,10.81728076171875,0.7462900762230157,0.17319325139224528,-0.9351911843568086
1789453374211222000,10.827221923828125,0.831462514334917,0.43964580124020575,-0.9027920127943158
1789453374221162800,10.837162841796875,0.6723983260601759,0.9346054934233426,-0.9840674434676766
1789453374231104000,10.84710400390625,0.37726445612907406,1.0154209053695202,-1.1853095622584222
1789453374241044700,10.857044677734375,-0.1674848106175661,1.1177256800681352,-0.9771376442044972
1789453374250986000,10.866986083984376,-0.35072365520596505,0.8592834181964397,-0.7361874921426177
1789453374260925700,10.87692578125,-0.023904607200622558,0.7164221767038107,-0.26037878289222716
1789453374270867000,10.886866943359376,0.14732348159849643,0.4684089543879032,-0.46779491414278745
1789453374280807700,10.8968076171875,-0.2710246800690889,0.2677051802575588,-0.8965113250896334
1789453374290749000,10.9067490234375,0.4216261604249477,0.09307926571369171,-0.9232140385761857
1789453374300690000,10.91668994140625,0.9418231697171926,0.015030395871400832,-1.0980381060406565
1789453374310631000,10.926630859375,0.6522434267818927,0.01996492966413498,-1.5957783688530325
1789453374320572000,10.936572021484375,0.4945201317220926,0.2676975814729929,-1.7983613808587193
1789453374330512600,10.9465126953125,0.25376433318853375,0.715084206098318,-1.4533525961682199
1789453374340454000,10.956453857421875,-0.020767478218674657,1.10932434694767,-0.8926482199206948
1789453374350394600,10.96639453125,-0.08070669087469577,1.2014806525975466,-0.4534887408927083
1789453374360336000,10.9763359375,0.21023381901979446,0.9773901576608419,-0.5231497216179967
1789453374370276900,10.98627685546875,0.15158990687131882,0.5410059885650873,-0.7106868479222059
1789453374380217900,10.9962177734375,-0.0753945559412241,0.179210319724679,-0.5127978389516472
1789453374390158800,11.006158935546875,-0.2608124981343746,0.21427286527752876,-0.2878358218774199
1789453374400099800,11.016099853515625,-0.6419926664024591,0.34118016631305215,-0.190411512696743
1789453374410040800,11.026040771484375,-0.8666139072149992,0.3938064256072044,0.037293373344838614
1789453374419981800,11.03598193359375,-0.6713882722347975,0.5384340922504663,0.570568767657876
1789453374429922800,11.0459228515625,-0.6695107879251241,0.5147036725729703,0.5867693763524293
1789453374439863800,11.05586376953125,-0.5908668747991324,0.5194067356973886,0.3929799116551876
1789453374449804800,11.0658046875,-0.6244137550920248,0.36628245886564254,0.47483957195729015
1789453374459745800,11.075745849609374,-0.603036620542407,0.2531751351237297,0.3877411342188716
1789453374469686800,11.085686767578125,-0.6168798524558544,-0.13425941736400127,-0.051477673780918116
1789453374479627000,11.095626953125,-0.7409224117100238,-0.5816507181644439,-0.3243146639689803
1789453374489567700,11.105567626953125,-0.7262672788918018,-0.7002472869724035,0.01614157198369503
1789453374499508700,11.1155087890625,-0.5584837775886059,-0.7217652912974357,0.12184651051461697
1789453374509449700,11.12544970703125,-0.7643009492099284,-0.7850754416912794,0.3762731070041656
1789453374519390700,11.135390625,-0.3920785789012909,-0.5977887830168008,0.4326329998686909
1789453374529332000,11.14533203125,-0.4585492391526699,-0.3059568772405386,-0.0714662765815854
1789453374539272700,11.155272705078126,-0.6054495269030332,-0.2877215478479862,-0.13621186660602688
1789453374549214000,11.1652138671875,-0.405131537219882,-0.26847090393304823,0.07297156657800077
1789453374559154700,11.17515478515625,0.28786592475473877,0.06006488486230373,0.1008177510112524
1789453374569096000,11.185095947265625,0.6103706166923045,0.059413142955303186,-0.010865239015966654
1789453374579036700,11.19503662109375,0.00023906945288181304,-0.13211305298507212,-0.5562378983579576
1789453374588978000,11.20497802734375,-0.4593517877072096,-0.23164836297035216,-1.0279388800285756
1789453374598919000,11.2149189453125,-0.5119079043745994,0.3456587730318308,-0.36183833893835543
1789453374608860000,11.22485986328125,-0.8276812422305345,0.4600122974425554,0.7788469225652516
1789453374618801000,11.23480078125,-0.6754758338093757,-0.04987900641262531,1.3048802367955445
1789453374628741600,11.24474169921875,-0.3561106089413166,-0.2867594248175621,0.9274408624909818
1789453374638683000,11.254682861328124,-0.35549744547903533,-0.4029080159515142,0.2803799529135227
1789453374648623900,11.264623779296874,-0.3239326789140701,-0.38757366869747634,-0.019477000016719103
1789453374658564900,11.27456494140625,-0.12193477331995964,-0.0783048904299736,-0.2564072489127517
1789453374668505900,11.284505859375,-0.17469138099551199,0.20266659863591194,-0.305456234242022
1789453374678446800,11.29444677734375,-0.09253566035628319,0.8032458891540766,-0.18662059598118066
1789453374688387800,11.304387939453125,-0.17611001562178133,0.47359249450564384,-0.10236571110561489
1789453374698327800,11.314327880859375,-0.5747644657820463,-0.03078384532034397,0.1434286661170423
1789453374708268800,11.324268798828125,-1.2816606892496347,-0.5331143585324287,0.591025864753127
1789453374718209800,11.334209716796876,-1.605113475692272,-1.1393991672158241,0.7039981639385223
1789453374728150800,11.34415087890625,-1.5563614274829625,-1.3950848238557576,1.0805996261142194
1789453374738092000,11.354092041015624,-1.4835454898580909,-1.5272709420770405,1.0677937744244932
1789453374748032800,11.36403271484375,-1.1902613394469022,-1.2803624661326407,0.6396062096573412
1789453374757974000,11.37397412109375,-0.775159904615581,-0.7774526917278766,0.15570260288715362
1789453374767915000,11.3839150390625,-0.7164052255690098,-0.5095283157616853,0.18772241974323986
1789453374777856000,11.39385595703125,-0.8913017737478017,-0.35709260571599005,0.4428953045554459
1789453374787797000,11.403796875,-1.2003449265658854,-0.2974988454967737,0.737063398194313
1789453374797737700,11.41373779296875,-1.2679045510977507,-0.6064437986373901,0.7688222260266542
1789453374807679000,11.423678955078126,-1.1033008488744496,-0.9128799838274717,0.5190937242254614
1789453374817620000,11.433619873046876,-0.781278972017765,-0.6699257984668016,0.43835166977643963
1789453374827561000,11.44356103515625,-0.5537029730528593,-0.503618799456954,-0.32791809528842564
1789453374837502000,11.453501953125,-0.271242706733942,-0.3791162214756012,-0.7897277975417674
1789453374847443000,11.46344287109375,-0.008884148201346398,0.12705284698605537,-0.7359159817248583
1789453374857384000,11.473384033203125,0.18611644585132597,0.4403109871506691,-0.8534894910953938
1789453374867325200,11.4833251953125,0.4390048729881644,0.5712351226121187,-1.0004109677642583
1789453374877266000,11.493265869140625,0.38714346058666704,0.4080202443987131,-0.9049940528832375
1789453374887207000,11.50320703125,0.32960780194103717,0.033974165794253344,-0.6596985650934278
1789453374897148000,11.51314794921875,0.042054011875391005,-0.4244762891590595,-0.6372057243868708
1789453374907089000,11.5230888671875,-0.22719196808338163,-0.6576017389446497,-0.7983436501957476
1789453374917030000,11.53302978515625,-0.3695604576230049,-0.8915776680797338,-1.045038483389467
1789453374926970000,11.54297021484375,-0.4849480012565851,-0.8422475277215242,-1.0140015400908886
1789453374936910800,11.552910888671875,-0.46861938226819033,-0.5029015910983086,-0.9012724020116031
1789453374946852000,11.56285205078125,-0.2519061381012201,-0.46644086918532845,-0.6131801211550831
1789453374956793000,11.57279296875,0.21303660148084164,-0.5836895305156707,-0.7486400003500282
1789453374966733800,11.58273388671875,0.16777064182162285,-0.745347826936841,-0.9443116255320608
1789453374976675000,11.592675048828125,-0.04249707946777344,-0.699226127231121,-0.8915038721911609
1789453374986615800,11.60261572265625,-0.30752982564568515,-0.7504922040879726,-0.6794090816050767
1789453374996557000,11.61255712890625,-0.598292056363821,-0.6685130090594291,-0.242491828545928
1789453375006497800,11.622497802734374,-0.4818751696825027,-0.43600189177989956,0.000876636704057455
1789453375016439000,11.63243896484375,-0.2859662286132574,0.09108195441663265,0.008532266023755073
1789453375026380000,11.642380126953125,-0.4010913219183683,-0.1078629933476448,-0.15235767637342212
1789453375036321000,11.652321044921875,-0.40863340786099434,-0.11707096667587756,-0.2378697217032313
1789453375046262000,11.662261962890625,-0.5372966126531362,0.11241875695586204,-0.1489759249806404
1789453375056203000,11.672203125,-0.5065963539630174,0.21376374671161175,0.4013485115498304
1789453375066144000,11.68214404296875,-0.29458149674534795,0.4524561829745769,0.45427287700772284
1789453375076084700,11.692084716796876,-0.44432957514226434,0.22040333085656164,0.21073124714791774
1789453375086026000,11.70202587890625,-0.7214461423456668,-0.2843967873394489,0.28899112939238547
1789453375095967000,11.711967041015624,-0.9255085792541503,-0.2714525500923395,0.4434820184022188
1789453375105908000,11.721907958984374,-0.8010235369294881,-0.3203250098109245,0.4736942013144493
1789453375115849000,11.731848876953125,-0.7375339383155107,0.03834697405099868,0.5158431979969144
1789453375125790000,11.7417900390625,-0.5144231020659208,-0.36307869438827034,0.5651464503481983
1789453375135730000,11.75172998046875,-0.2920218753904104,-0.20623919642567634,0.6265890533044934
1789453375145671000,11.7616708984375,0.007832593321800231,0.06085749654471874,0.4187453442916274
1789453375155612000,11.77161181640625,0.12634031480252741,-0.14631284325122831,0.20844693560302258
1789453375165553000,11.781552978515625,0.050097033077478405,-0.16171441052258015,-0.1116030566588044
1789453375175494000,11.791493896484376,-0.06497253064811229,-0.21832067936360836,-0.13986235193759203
1789453375185435100,11.80143505859375,-0.10926467683911323,-0.5436673167288303,0.040303368815779686
1789453375195375900,11.8113759765625,-0.3436363272935152,-0.49328386792540546,0.31286008075773714
1789453375205317000,11.821317138671875,-0.5157675024121999,-0.10856617318093777,0.5908999002858996
1789453375215257900,11.8312578125,-0.2637941442936659,-0.40992637028098106,0.5260796375900507
1789453375225199000,11.84119921875,-0.2969868043214083,-0.4792471592664718,0.5203317415878176
1789453375235139800,11.851139892578125,-0.8150503087162971,-0.44223347964584825,0.7188806757718325
1789453375245080800,11.861080810546875,-0.8132903133064507,-0.6549702213972807,0.9185632901608943
1789453375255022000,11.87102197265625,-0.5877946277469396,-0.6183651225775479,0.6504577124089003
1789453375264962800,11.880962890625,-0.504909423789382,-0.7007452996224165,0.3761030111342668
1789453375274904000,11.890904052734374,0.11331833614408969,-0.9036223261386156,0.09677782797068357
1789453375284844800,11.9008447265625,0.3071118924945593,-0.409661581864953,-0.45787996158897876
1789453375294786000,11.9107861328125,0.043130116674304005,0.10354454562664031,-0.3851955413892865
1789453375304726800,11.920726806640625,0.276554257145524,0.02841360905766487,-0.32388299455344677
1789453375314668000,11.93066796875,-0.001679331389069557,-0.1434159527659416,-0.30265228273719547
1789453375324609000,11.940609130859375,-0.4608996016710996,0.1096843635559082,-0.3511483103588223
1789453375334550000,11.950550048828125,-0.3215723795235157,0.15576573125123977,-0.10044774865508078
1789453375344491000,11.960490966796876,-0.018317162457108495,0.21095804164111612,0.1534416722178459
1789453375354431000,11.970430908203125,-0.2936982841700315,0.16862345925867556,0.11990092940479516
1789453375364372000,11.9803720703125,-0.022898645028471946,-0.31365795313715933,-0.08844313034564256
1789453375374313000,11.99031298828125,-0.4750479540109634,-0.6508189469367265,-0.4052911116957664
1789453375384254000,12.00025390625,-0.052936055895686146,-0.4498088833361864,-0.7637436075881123
1789453375394195000,12.01019482421875,0.683358696013689,-0.20200199724733828,-0.8923463143646716
1789453375404136000,12.020135986328125,1.5297545755863189,-0.30839316447675225,-0.6094008948773145
1789453375414077000,12.030076904296875,1.8119944771528242,-0.7114297752439975,-0.5383393997043371
1789453375424018000,12.040017822265625,1.0985662215679883,-0.5226233596563339,-0.6110892863556743
1789453375433959000,12.049958984375,0.9868120660006999,-0.0020046178206801412,-0.9536293428450823
1789453375443900000,12.05989990234375,0.5649070886343718,-0.04674889169335365,-0.7305550392135978
1789453375453841000,12.0698408203125,-0.08484802846312522,-0.4587871395617723,-0.30835721638053654
1789453375463782000,12.079781982421874,-0.14826865349411963,-0.5617834036558866,0.20981588586866853
1789453375473723000,12.089722900390624,0.8931225594341754,-0.650941112011671,-0.00305734174400568
1789453375483664100,12.0996640625,1.3819792585670947,-0.5690837897971273,-0.9736758133128285
1789453375493604900,12.10960498046875,1.6955016026258467,0.027566344578564165,-1.0839125500544906
1789453375503546000,12.119546142578125,2.0904472613960503,0.45308366722315546,-0.8118100116208196
1789453375513486800,12.12948681640625,2.222367422157526,0.5827832293257117,-0.7569578929707408
1789453375523427800,12.139427734375,1.842109044909477,0.504808593763411,-0.9169029557332395
1789453375533369000,12.149369140625,1.1907570140093564,0.4775523380473256,-1.325414783041179
1789453375543309800,12.159309814453126,0.671072045892477,0.622173574949801,-0.8173913188844919
1789453375553251000,12.1692509765625,1.3216074997127056,0.4799184826567769,-0.09980360553264617
1789453375563191000,12.17919091796875,1.9298592245548962,0.31172347794324157,-0.5772910616502166
1789453375573132000,12.189132080078124,1.5319909563362597,0.4182154751986265,-1.1516273651480675
1789453375583073000,12.199072998046875,1.0131909543603659,0.0998395536288619,-0.9511848723024129
1789453375593014000,12.209013916015625,0.8909960687994957,-0.21169541600495576,-0.9459858423545956
1789453375602954800,12.218954833984375,0.3500795120835304,-0.1804100509032607,-0.8976660480827092
1789453375612896000,12.22889599609375,-0.1516074425280094,-0.02140752968788147,-0.40546909861117597
1789453375622837000,12.2388369140625,-0.04388239634633064,-0.02231938383579254,-0.26394728902876374
1789453375632778000,12.248778076171876,0.03329670492410659,-0.09571867430657148,-0.2131619814261794
1789453375642719000,12.258718994140626,0.1442564952433109,0.01178016190379858,-0.5049433260589837
1789453375652660000,12.268659912109374,-0.3020961101591587,0.2872381482452154,-0.5550023652136326
1789453375662601000,12.27860107421875,-0.06480477286577224,0.38109745842069387,-0.4205985709428787
1789453375672542000,12.2885419921875,0.7311971365094184,0.38999037445038554,-0.5572083508253097
1789453375682483000,12.29848291015625,0.6886275763273239,0.5453580462947487,-0.967464391452074
1789453375692424000,12.308423828125,0.8165010920464992,0.5298009962007403,-1.2598510085016488
1789453375702365000,12.318364990234375,0.9758423436969518,0.6383253760665655,-1.3398717629387975
1789453375712306000,12.328305908203125,0.9149690650612116,0.8545128427937626,-1.4661740838184951
1789453375722247000,12.338246826171876,0.9883119491696357,0.9882996742099524,-1.0999196820035577
1789453375732188000,12.34818798828125,0.9357669384181498,0.9173784642904996,-0.8228264956757426
1789453375742129000,12.35812890625,0.870982039296627,0.5453659373402595,-1.0241609689250588
1789453375752070000,12.36806982421875,0.6202075355738401,0.11334522415101528,-1.3451096635922788
1789453375762011100,12.37801123046875,0.44551907718777656,-0.19656535915136336,-1.528040465144813
1789453375771951600,12.38795166015625,0.09736731829643248,-0.2174339596569538,-1.3071470126837492
1789453375781891600,12.3978916015625,-0.2761410001695156,-0.0639963790923357,-0.5930968258082866
1789453375791832600,12.40783251953125,-0.03252805863916874,0.05198328521549701,-0.21150077021569014
1789453375801773800,12.41777392578125,-0.4411550367593765,0.21217092456221578,-0.464804207894206
