time,seconds_elapsed,z,y,x
1789453363422910200,0.03891015625,0.21525345742702484,-0.033902838826179504,0.31305965781211853
1789453363432851200,0.048851318359375,0.19602437317371368,-0.03363439440727234,0.3607874810695648
1789453363442791200,0.058791259765625,0.14536279439926147,-0.003736414946615696,0.41765663027763367
1789453363452732200,0.068732177734375,0.07549502700567245,0.03975993022322655,0.4578075110912323
1789453363462673200,0.078673095703125,0.001487641828134656,0.0776311457157135,0.4399408996105194
1789453363472614400,0.088614501953125,-0.08975092321634293,0.11399128288030624,0.35582655668258667
1789453363482554000,0.09855419921875,-0.16138222813606262,0.1739821881055832,0.2333429753780365
1789453363492495400,0.108495361328125,-0.18034633994102478,0.23396669328212738,0.11121733486652374
1789453363502436000,0.11843603515625,-0.16092683374881744,0.27699193358421326,0.025354092940688133
1789453363512377300,0.12837744140625,-0.1255885511636734,0.28285565972328186,-0.015981363132596016
1789453363522318000,0.138318115234375,-0.09363620728254318,0.21046455204486847,-0.011106979101896286
1789453363532258300,0.14825830078125,-0.08509864658117294,0.07583297789096832,0.012498481199145317
1789453363542199000,0.158198974609375,-0.08256492018699646,-0.052018992602825165,0.025059813633561134
1789453363552140300,0.168140380859375,-0.06804696470499039,-0.15951323509216309,0.010845457203686237
1789453363562081000,0.1780810546875,-0.02907479554414749,-0.23819632828235626,-0.04679866507649422
1789453363572021200,0.188021240234375,0.019402459263801575,-0.2885146141052246,-0.12812042236328125
1789453363581962000,0.1979619140625,0.04929884150624275,-0.3158847391605377,-0.22281843423843384
1789453363591903200,0.2079033203125,0.04861414059996605,-0.29884475469589233,-0.2953280508518219
1789453363601844200,0.21784423828125,0.049732934683561325,-0.2263106405735016,-0.3142133355140686
1789453363611784200,0.2277841796875,0.0628008022904396,-0.12966477870941162,-0.28453078866004944
1789453363621725400,0.237725341796875,0.0878686010837555,-0.05356602370738983,-0.22664353251457214
1789453363631666200,0.247666259765625,0.11319419741630554,-0.01571664586663246,-0.1361011117696762
1789453363641607200,0.257607177734375,0.12771348655223846,-0.00007376955909421667,-0.014483868144452572
1789453363651547100,0.267547119140625,0.10921144485473633,-0.01552303321659565,0.10040809959173203
1789453363661488400,0.27748828125,0.062498532235622406,-0.05041896551847458,0.1908879280090332
1789453363671429000,0.28742919921875,0.025587918236851692,-0.07117697596549988,0.260012149810791
1789453363681370400,0.297370361328125,-0.0249082800000906,-0.09808928519487381,0.29644206166267395
1789453363691310000,0.30731005859375,-0.072064608335495,-0.13666276633739471,0.28893032670021057
1789453363701251300,0.317251220703125,-0.1151585504412651,-0.17230598628520966,0.23009605705738068
1789453363711192000,0.327192138671875,-0.13723161816596985,-0.18786124885082245,0.14076803624629974
1789453363721133300,0.33713330078125,-0.12103374302387238,-0.15953320264816284,0.04679706692695618
1789453363731074000,0.347073974609375,-0.05943669378757477,-0.08935384452342987,0.005685849115252495
1789453363741014300,0.35701416015625,0.011774101294577122,-0.002139583695679903,0.031072432175278664
1789453363750955000,0.366955078125,0.07360205054283142,0.06486022472381592,0.11628372967243195
1789453363760896500,0.376896484375,0.11686722934246063,0.06796973198652267,0.24383370578289032
1789453363770837200,0.386837158203125,0.12179727107286453,0.012928581796586514,0.37823250889778137
1789453363780777500,0.396777587890625,0.10455197840929031,-0.06350946426391602,0.46662017703056335
1789453363790718200,0.40671826171875,0.0635017454624176,-0.13977228105068207,0.4867584705352783
1789453363800659500,0.416659423828125,0.014620487578213215,-0.1942187398672104,0.4334278702735901
1789453363810600200,0.42660009765625,-0.03947204351425171,-0.19488000869750977,0.33124610781669617
1789453363820540400,0.43654052734375,-0.08341553062200546,-0.16339558362960815,0.19692371785640717
1789453363830481400,0.4464814453125,-0.10227283835411072,-0.08223947882652283,0.06186363473534584
1789453363840422400,0.45642236328125,-0.09780912101268768,0.023302925750613213,-0.03137283772230148
1789453363850363100,0.466363037109375,-0.08100882917642593,0.10841062664985657,-0.09098343551158905
1789453363860303400,0.476303466796875,-0.061342984437942505,0.1553347259759903,-0.11719825863838196
1789453363870244400,0.486244384765625,-0.034743864089250565,0.17305752635002136,-0.1099264994263649
1789453363880185300,0.496185302734375,-0.01569480635225773,0.1554630994796753,-0.07291628420352936
1789453363890126600,0.506126708984375,-0.016587233170866966,0.11053822934627533,-0.01841868832707405
1789453363900067300,0.5160673828125,-0.02695172280073166,0.036430977284908295,0.02323474921286106
1789453363910007600,0.526007568359375,-0.05451676994562149,-0.03099173866212368,0.03181598708033562
1789453363919948300,0.5359482421875,-0.07222332805395126,-0.08822120726108551,0.0271471980959177
1789453363929889500,0.5458896484375,-0.09905867278575897,-0.1149606704711914,0.0038245655596256256
1789453363939830300,0.555830322265625,-0.12022920697927475,-0.08111003041267395,-0.016941431909799576
1789453363949770500,0.5657705078125,-0.1432090848684311,0.0019137475173920393,-0.03593776002526283
1789453363959711200,0.575711181640625,-0.17476461827754974,0.09183591604232788,-0.07371443510055542
1789453363969652500,0.585652587890625,-0.2161935567855835,0.1708042323589325,-0.09980595856904984
1789453363979593200,0.59559326171875,-0.24836000800132751,0.21787986159324646,-0.0988759770989418
1789453363989533400,0.605533447265625,-0.2565942406654358,0.24730806052684784,-0.062313709408044815
1789453363999474200,0.61547412109375,-0.23569081723690033,0.2659651041030884,-0.008644088171422482
1789453364009415400,0.62541552734375,-0.1820928454399109,0.27396470308303833,0.07480046898126602
1789453364019356200,0.635356201171875,-0.13505609333515167,0.2378794103860855,0.16887396574020386
1789453364029297400,0.64529736328125,-0.1231275200843811,0.1463303118944168,0.26988741755485535
1789453364039237400,0.6552373046875,-0.12961365282535553,0.031673774123191833,0.3556574285030365
1789453364049178400,0.665178466796875,-0.1487111747264862,-0.08494018763303757,0.38400810956954956
1789453364059119400,0.675119384765625,-0.1729307621717453,-0.187729150056839,0.3423706591129303
1789453364069060400,0.685060302734375,-0.199792742729187,-0.23656593263149261,0.24470695853233337
1789453364079000600,0.69500048828125,-0.2161509394645691,-0.22695352137088776,0.1061011329293251
1789453364088941300,0.70494140625,-0.22711384296417236,-0.15098418295383453,-0.021576398983597755
1789453364098882600,0.714882568359375,-0.22555802762508392,-0.02647368609905243,-0.09932046383619308
1789453364108823300,0.7248232421875,-0.22095821797847748,0.10414610803127289,-0.09219810366630554
1789453364118763500,0.734763427734375,-0.22659851610660553,0.17077307403087616,-0.021093301475048065
1789453364128704300,0.744704345703125,-0.2397177815437317,0.16245682537555695,0.09671935439109802
1789453364138645500,0.7546455078125,-0.25680702924728394,0.11733408272266388,0.23104040324687958
1789453364148586200,0.764586181640625,-0.2495959848165512,0.049788329750299454,0.34412622451782227
1789453364158527500,0.774527587890625,-0.21898214519023895,-0.04211949184536934,0.4290970265865326
1789453364168467200,0.78446728515625,-0.18891532719135284,-0.178012877702713,0.47817322611808777
1789453364178408400,0.794408447265625,-0.17032672464847565,-0.32974115014076233,0.49333009123802185
1789453364188349400,0.804349365234375,-0.16323606669902802,-0.4796009659767151,0.46238094568252563
1789453364198290400,0.81429052734375,-0.17419683933258057,-0.602142870426178,0.3819279372692108
1789453364208230100,0.824230224609375,-0.21572670340538025,-0.6304892897605896,0.2521917521953583
1789453364218171400,0.83417138671875,-0.2549859583377838,-0.5094677805900574,0.10911156982183456
1789453364228112400,0.8441123046875,-0.27344778180122375,-0.2873372435569763,-0.011422830633819103
1789453364238053400,0.854053466796875,-0.2593863010406494,-0.059125639498233795,-0.10229095071554184
1789453364247993300,0.863993408203125,-0.23320528864860535,0.07095193862915039,-0.14074087142944336
1789453364257934300,0.873934326171875,-0.2057555615901947,0.09156480431556702,-0.11284931749105453
1789453364267875300,0.883875244140625,-0.19309063255786896,0.03153129294514656,-0.032051410526037216
1789453364277816300,0.89381640625,-0.19871602952480316,-0.09500587731599808,0.07257646322250366
1789453364287757300,0.90375732421875,-0.2104126214981079,-0.2554546594619751,0.16010338068008423
1789453364297697300,0.913697265625,-0.21954567730426788,-0.40653207898139954,0.21190613508224487
1789453364307638500,0.923638427734375,-0.22859641909599304,-0.5189768671989441,0.20639657974243164
1789453364317579300,0.933579345703125,-0.23093494772911072,-0.568600594997406,0.15706577897071838
1789453364327520300,0.943520263671875,-0.2163248509168625,-0.5731987953186035,0.08534472435712814
1789453364337460200,0.953460205078125,-0.20651961863040924,-0.5309839844703674,0.0055002267472445965
1789453364347401500,0.9634013671875,-0.20126573741436005,-0.4419936537742615,-0.07500473409891129
1789453364357342500,0.973342529296875,-0.19353404641151428,-0.2990815043449402,-0.1443004459142685
1789453364367283500,0.983283447265625,-0.16879621148109436,-0.14046603441238403,-0.203251913189888
1789453364377224400,0.993224365234375,-0.11487864702939987,-0.02430347539484501,-0.23529401421546936
1789453364387164400,1.003164306640625,-0.06190251559019089,-0.009553025476634502,-0.24385075271129608
1789453364397105400,1.01310546875,-0.02768595702946186,-0.08302857726812363,-0.23464100062847137
1789453364407046400,1.02304638671875,-0.014794925227761269,-0.19253483414649963,-0.19570079445838928
1789453364416987400,1.0329873046875,-0.024643827229738235,-0.2837672829627991,-0.12738938629627228
1789453364426927400,1.04292724609375,-0.06010914221405983,-0.3371641933917999,-0.040104810148477554
1789453364436868400,1.052868408203125,-0.11350046098232269,-0.36114487051963806,0.03750370070338249
1789453364446809300,1.062809326171875,-0.1731395572423935,-0.3580375015735626,0.08516070246696472
1789453364456750300,1.072750244140625,-0.23509639501571655,-0.32338523864746094,0.0927584320306778
1789453364466690300,1.082690185546875,-0.2736946642398834,-0.2659893333911896,0.07857656478881836
1789453364476631300,1.09263134765625,-0.2823677659034729,-0.17851221561431885,0.04399781674146652
1789453364486572300,1.102572265625,-0.25295236706733704,-0.08201657235622406,-0.0010852381819859147
1789453364496513300,1.11251318359375,-0.19926117360591888,-0.007968444377183914,-0.04615790769457817
1789453364506454500,1.12245458984375,-0.1570119857788086,0.024116788059473038,-0.06310280412435532
1789453364516394500,1.13239453125,-0.1461750566959381,0.0164807066321373,-0.05992778018116951
1789453364526335500,1.14233544921875,-0.17354515194892883,-0.0009861685102805495,-0.05487922579050064
1789453364536276200,1.152276123046875,-0.21223795413970947,-0.026258235797286034,-0.052801962941884995
1789453364546217500,1.162217529296875,-0.24920663237571716,-0.06065615639090538,-0.04529344663023949
1789453364556157400,1.172157470703125,-0.26661917567253113,-0.07774033397436142,-0.04673527926206589
1789453364566098400,1.182098388671875,-0.23398186266422272,-0.07935260981321335,-0.043774113059043884
1789453364576039400,1.192039306640625,-0.16193696856498718,-0.0831819698214531,-0.035830434411764145
1789453364585980400,1.20198046875,-0.08482487499713898,-0.08528506755828857,-0.013374927453696728
1789453364595921200,1.211921142578125,-0.01124972477555275,-0.08977515995502472,0.023082682862877846
1789453364605861400,1.221861328125,0.05452689155936241,-0.10812380909919739,0.0511380173265934
1789453364615802400,1.23180224609375,0.09958464652299881,-0.15534405410289764,0.07571206986904144
1789453364625743400,1.241743408203125,0.10802819579839706,-0.22814048826694489,0.09217653423547745
1789453364635684400,1.251684326171875,0.060877200216054916,-0.2808969020843506,0.12225879728794098
1789453364645624300,1.261624267578125,-0.024398284032940865,-0.31079408526420593,0.1252623200416565
1789453364655565300,1.2715654296875,-0.08223308622837067,-0.2539989948272705,0.13306431472301483
1789453364665506300,1.28150634765625,-0.06598247587680817,-0.15629853308200836,0.14056217670440674
1789453364675447600,1.291447509765625,-0.008821188472211361,-0.1369762271642685,0.16563424468040466
1789453364685388300,1.30138818359375,0.04951828345656395,-0.1771036684513092,0.22571541368961334
1789453364695328500,1.31132861328125,0.07411177456378937,-0.23014025390148163,0.3167731463909149
1789453364705269200,1.321269287109375,0.08893706649541855,-0.2573356628417969,0.4026950001716614
1789453364715210500,1.33121044921875,0.11953864991664886,-0.25575879216194153,0.4463774859905243
1789453364725151200,1.341151123046875,0.14479047060012817,-0.18122997879981995,0.43999922275543213
1789453364735091500,1.351091552734375,0.15320873260498047,-0.056774064898490906,0.3916497826576233
1789453364745032200,1.3610322265625,0.14089320600032806,0.029469208791851997,0.3160008490085602
1789453364754973000,1.370972900390625,0.12606020271778107,0.10425209999084473,0.2605666220188141
1789453364764914000,1.380913818359375,0.11400087177753448,0.15289367735385895,0.22584804892539978
1789453364774855000,1.39085498046875,0.10428619384765625,0.10416821390390396,0.22675910592079163
1789453364784795100,1.400795166015625,0.11789068579673767,-0.007849134504795074,0.2337925136089325
1789453364794735900,1.41073583984375,0.1805386245250702,-0.09966933727264404,0.24233274161815643
1789453364804677000,1.420677001953125,0.24916428327560425,-0.15674327313899994,0.23518215119838715
1789453364814618000,1.4306181640625,0.27911660075187683,-0.18956167995929718,0.22742542624473572
1789453364824558800,1.440558837890625,0.2730501890182495,-0.15267209708690643,0.2297343909740448
1789453364834498800,1.450498779296875,0.24715545773506165,-0.11665577441453934,0.2266818732023239
1789453364844440000,1.460440185546875,0.20665676891803741,-0.09599870443344116,0.19364136457443237
1789453364854381000,1.470381103515625,0.17412786185741425,-0.08515564352273941,0.12860804796218872
1789453364864322000,1.480322021484375,0.17309695482254028,-0.09430040419101715,0.0689132884144783
1789453364874262000,1.490261962890625,0.20169423520565033,-0.10162649303674698,0.05410477891564369
1789453364884203000,1.500203125,0.22225064039230347,-0.12532037496566772,0.08941243588924408
1789453364894144000,1.51014404296875,0.22999857366085052,-0.21007733047008514,0.17368310689926147
1789453364904085000,1.5200849609375,0.22156940400600433,-0.3312261402606964,0.2804500460624695
1789453364914026000,1.53002587890625,0.20697875320911407,-0.45457202196121216,0.38767769932746887
1789453364923966000,1.539966064453125,0.1857227236032486,-0.6161167025566101,0.4734988510608673
1789453364933907000,1.549906982421875,0.14810238778591156,-0.6810483336448669,0.5099309086799622
1789453364943848000,1.559847900390625,0.09885547310113907,-0.6132658123970032,0.4864993393421173
1789453364953789000,1.569788818359375,0.06397552043199539,-0.4646768569946289,0.4185200333595276
1789453364963730200,1.579730224609375,0.0627206414937973,-0.31977319717407227,0.3419405519962311
1789453364973670000,1.589669921875,0.09541360288858414,-0.22298221290111542,0.2869921028614044
1789453364983611100,1.599611083984375,0.13074922561645508,-0.21139054000377655,0.25719478726387024
1789453364993552000,1.6095517578125,0.16245149075984955,-0.2728797197341919,0.2684096097946167
1789453365003493000,1.6194931640625,0.1813812404870987,-0.3405575752258301,0.31001192331314087
1789453365013433900,1.629433837890625,0.16789685189723969,-0.3795156180858612,0.3669625520706177
1789453365023374000,1.6393740234375,0.10427447408437729,-0.37327131628990173,0.40717068314552307
1789453365033314800,1.649314697265625,0.059484366327524185,-0.3269331157207489,0.4165998697280884
1789453365043256000,1.659256103515625,0.06220958009362221,-0.36975035071372986,0.3582577407360077
1789453365053196800,1.66919677734375,0.0874323770403862,-0.4642113447189331,0.2589103877544403
1789453365063137000,1.679136962890625,0.11548105627298355,-0.5263189077377319,0.17349642515182495
1789453365073078000,1.689078125,0.15477946400642395,-0.5303898453712463,0.13328269124031067
1789453365083019000,1.69901904296875,0.19255053997039795,-0.4851882755756378,0.13509950041770935
1789453365092960000,1.7089599609375,0.21220706403255463,-0.39549726247787476,0.15818192064762115
1789453365102901000,1.71890087890625,0.20403063297271729,-0.2619732916355133,0.16791656613349915
1789453365112841000,1.728841064453125,0.15656884014606476,-0.14475318789482117,0.13414928317070007
1789453365122782000,1.738781982421875,0.08642623573541641,-0.08095317333936691,0.04611476510763168
1789453365132723200,1.74872314453125,0.022374814376235008,-0.0695098340511322,-0.06012645363807678
1789453365142664000,1.758663818359375,-0.008261125534772873,-0.0973166972398758,-0.14179228246212006
1789453365152605200,1.768605224609375,-0.013696903362870216,-0.1578141301870346,-0.1835024505853653
1789453365162545000,1.778544921875,0.0035950010642409325,-0.2625077962875366,-0.19171111285686493
1789453365172486100,1.788486083984375,0.049306564033031464,-0.3600958585739136,-0.1457470804452896
1789453365182427000,1.798427001953125,0.11162932217121124,-0.4442208707332611,-0.059171177446842194
1789453365192368000,1.8083681640625,0.15253441035747528,-0.474157452583313,0.05928702652454376
1789453365202308900,1.818308837890625,0.17676837742328644,-0.45118528604507446,0.1820393055677414
1789453365212249000,1.8282490234375,0.16846837103366852,-0.40388649702072144,0.28382959961891174
1789453365222189800,1.83818994140625,0.14089959859848022,-0.3459544777870178,0.3559817969799042
1789453365232131000,1.848131103515625,0.11005939543247223,-0.2962692081928253,0.38174575567245483
1789453365242072000,1.858072021484375,0.0809483751654625,-0.2597479522228241,0.35687556862831116
1789453365252013000,1.868012939453125,0.05494394153356552,-0.1974606066942215,0.2753356993198395
1789453365261952800,1.877952880859375,0.026746392250061035,-0.10419777780771255,0.13448643684387207
1789453365271894000,1.88789404296875,0.0037028591614216566,-0.023693079128861427,-0.042924828827381134
1789453365281835000,1.8978349609375,-0.022832345217466354,0.024459803476929665,-0.1845402866601944
1789453365291776000,1.90777587890625,-0.04929724335670471,0.05874853581190109,-0.23738911747932434
1789453365301717000,1.917717041015625,-0.05361289530992508,0.09090887010097504,-0.22249965369701385
1789453365311657000,1.927656982421875,-0.05534767732024193,0.09402423352003098,-0.20521627366542816
1789453365321598000,1.937597900390625,-0.05140220373868942,0.07507584244012833,-0.2024764120578766
1789453365331539000,1.9475390625,-0.04302043840289116,0.01366414688527584,-0.22119949758052826
1789453365341480000,1.95747998046875,-0.022419022396206856,-0.08697910606861115,-0.26527881622314453
1789453365351421000,1.9674208984375,0.0021931130904704332,-0.1975892335176468,-0.33073344826698303
1789453365361361200,1.977361083984375,0.01624688133597374,-0.28789010643959045,-0.3992704153060913
1789453365371302000,1.987302001953125,0.009153284132480621,-0.29466837644577026,-0.4339927136898041
1789453365381243000,1.997242919921875,-0.02635357715189457,-0.22534629702568054,-0.42381250858306885
1789453365391184100,2.00718408203125,-0.07705643773078918,-0.09583918005228043,-0.3594745397567749
1789453365401124900,2.017124755859375,-0.10990466177463531,0.09030646085739136,-0.2841140031814575
1789453365411065000,2.027065185546875,-0.10127042979001999,0.23939314484596252,-0.22886647284030914
1789453365421006000,2.037006103515625,-0.06079437583684921,0.29472512006759644,-0.19101816415786743
1789453365430947000,2.046947021484375,-0.02791312336921692,0.25187164545059204,-0.15341699123382568
1789453365440887800,2.0568876953125,-0.010061955079436302,0.14729677140712738,-0.09652148187160492
1789453365450829000,2.0668291015625,-0.0046938215382397175,-0.0048922267742455006,-0.05831310898065567
1789453365460769000,2.07676904296875,-0.005839246790856123,-0.16694052517414093,-0.04544071853160858
1789453365470710000,2.0867099609375,-0.03411482647061348,-0.23134107887744904,-0.04240258410573006
1789453365480651000,2.096651123046875,-0.07029972970485687,-0.17357471585273743,-0.04975264146924019
1789453365490592000,2.106592041015625,-0.09924722462892532,-0.041546642780303955,-0.07911239564418793
1789453365500533000,2.116532958984375,-0.12982510030269623,0.14407461881637573,-0.10423319786787033
1789453365510473000,2.126472900390625,-0.1508057564496994,0.2990839183330536,-0.11204717308282852
1789453365520414000,2.1364140625,-0.1607726365327835,0.36637958884239197,-0.11692316085100174
1789453365530355000,2.14635498046875,-0.15311631560325623,0.36413320899009705,-0.11900787800550461
1789453365540296200,2.156296142578125,-0.1351197361946106,0.2598499655723572,-0.1333833634853363
1789453365550237000,2.16623681640625,-0.11739959567785263,0.12240314483642578,-0.19009403884410858
1789453365560177200,2.17617724609375,-0.09179703146219254,0.020267987623810768,-0.2786145806312561
1789453365570118000,2.186117919921875,-0.06174991652369499,-0.04380021244287491,-0.3711378574371338
1789453365580059100,2.19605908203125,-0.03995434194803238,-0.08407173305749893,-0.4101896584033966
1789453365589999900,2.205999755859375,-0.028742698952555656,-0.09167399257421494,-0.3557048439979553
1789453365599941000,2.215941162109375,-0.0345369391143322,-0.08453352749347687,-0.24764016270637512
1789453365609881900,2.2258818359375,-0.04222335293889046,-0.04586842283606529,-0.1432972401380539
1789453365619822000,2.235822021484375,-0.029518211260437965,0.000782436749432236,-0.07294318079948425
1789453365629762800,2.2457626953125,-0.008437160402536392,0.033915888518095016,-0.04585989937186241
1789453365639704000,2.2557041015625,0.01655261218547821,0.06567994505167007,-0.029098762199282646
1789453365649645000,2.26564501953125,0.04442419111728668,0.061585068702697754,-0.020050939172506332
1789453365659586000,2.2755859375,0.04122573509812355,0.04608919844031334,-0.02863777056336403
1789453365669526000,2.285526123046875,0.03050677664577961,0.05115266516804695,-0.06718143075704575
1789453365679467000,2.295467041015625,0.040566336363554,0.0818229615688324,-0.11671676486730576
1789453365689408000,2.305407958984375,0.039447009563446045,0.11471433192491531,-0.14745283126831055
1789453365699349000,2.315348876953125,0.017221864312887192,0.1374121904373169,-0.13803111016750336
1789453365709290000,2.3252900390625,-0.007224357221275568,0.14514440298080444,-0.06470762193202972
1789453365719230000,2.33522998046875,-0.03765123710036278,0.15399542450904846,0.03628610074520111
1789453365729171000,2.3451708984375,-0.057014282792806625,0.12147769331932068,0.12463114410638809
1789453365739112000,2.35511181640625,-0.06604186445474625,0.06857480108737946,0.1801668405532837
1789453365749053000,2.365052978515625,-0.06997589021921158,0.036607544869184494,0.19050763547420502
1789453365758993700,2.37499365234375,-0.06792925298213959,0.016348080709576607,0.17498458921909332
1789453365768934000,2.384933837890625,-0.07908789068460464,0.028148280456662178,0.14065805077552795
1789453365778874600,2.39487451171875,-0.10362119972705841,0.08070656657218933,0.08973681181669235
1789453365788815600,2.404815673828125,-0.1314818561077118,0.1474648267030716,0.025069134309887886
1789453365798756600,2.414756591796875,-0.13984258472919464,0.20314432680606842,-0.050450392067432404
1789453365808697600,2.424697509765625,-0.12699469923973083,0.24848784506320953,-0.12481410056352615
1789453365818638800,2.434638916015625,-0.10799197852611542,0.2811554968357086,-0.17708715796470642
1789453365828578800,2.444578857421875,-0.10481562465429306,0.3016149699687958,-0.19429704546928406
1789453365838519800,2.454519775390625,-0.11349300295114517,0.28581416606903076,-0.19109751284122467
1789453365848460800,2.464460693359375,-0.11572899669408798,0.23400530219078064,-0.18480579555034637
1789453365858401800,2.47440185546875,-0.10521936416625977,0.17646265029907227,-0.1792544424533844
1789453365868342500,2.484342529296875,-0.08208927512168884,0.1459830403327942,-0.1712591052055359
1789453365878282800,2.49428271484375,-0.06777984648942947,0.14985980093479156,-0.15636511147022247
1789453365888223700,2.5042236328125,-0.07320976257324219,0.2047605961561203,-0.12519226968288422
1789453365898164700,2.514164794921875,-0.09203458577394485,0.2872197926044464,-0.07406703382730484
1789453365908105700,2.524105712890625,-0.1241656243801117,0.3285137116909027,-0.01194054912775755
1789453365918046700,2.534046630859375,-0.17226789891719818,0.3284287452697754,0.047441285103559494
1789453365927986700,2.543986572265625,-0.2156691700220108,0.32509419322013855,0.08181630074977875
1789453365937927700,2.553927734375,-0.24143153429031372,0.3110883831977844,0.06785334646701813
1789453365947868700,2.56386865234375,-0.2629703879356384,0.29078176617622375,0.02008955553174019
1789453365957809700,2.5738095703125,-0.2938215136528015,0.2806364595890045,-0.0051686628721654415
1789453365967751000,2.5837509765625,-0.3307174742221832,0.26957234740257263,0.007240335922688246
1789453365977691600,2.593691650390625,-0.3380294442176819,0.2475978136062622,0.03465651348233223
1789453365987631900,2.6036318359375,-0.34761229157447815,0.19693037867546082,0.07182412594556808
1789453365997572600,2.613572509765625,-0.3749813437461853,0.09609537571668625,0.10194793343544006
1789453366007513900,2.623513916015625,-0.40339699387550354,-0.00632127933204174,0.15167181193828583
1789453366017454600,2.63345458984375,-0.4071429967880249,-0.07511179149150848,0.1562545895576477
1789453366027395800,2.643395751953125,-0.36481231451034546,-0.1373053938150406,0.10466063022613525
1789453366037335600,2.65333544921875,-0.3326384127140045,-0.16233457624912262,0.054665908217430115
1789453366047276800,2.66327685546875,-0.3296716511249542,-0.17415128648281097,-0.02273806929588318
1789453366057217500,2.673217529296875,-0.320203572511673,-0.14527730643749237,-0.10236126184463501
1789453366067158800,2.68315869140625,-0.29986366629600525,-0.07561726123094559,-0.16962552070617676
1789453366077099800,2.693099853515625,-0.2979581952095032,-0.00830000825226307,-0.22602780163288116
1789453366087039700,2.703039794921875,-0.30796608328819275,0.07276581972837448,-0.2522042691707611
1789453366096980700,2.712980712890625,-0.3146421015262604,0.10467874258756638,-0.25903767347335815
1789453366106921700,2.722921630859375,-0.30627256631851196,0.08868219703435898,-0.27481716871261597
1789453366116862700,2.73286279296875,-0.2788396179676056,0.047860465943813324,-0.29614830017089844
1789453366126803700,2.7428037109375,-0.24202647805213928,0.0026727484073489904,-0.3148423731327057
1789453366136744700,2.75274462890625,-0.2098403126001358,-0.01798858866095543,-0.31668633222579956
1789453366146684700,2.7626845703125,-0.18911293148994446,-0.04695712402462959,-0.2979762852191925
1789453366156625700,2.772625732421875,-0.18414106965065002,-0.09223751723766327,-0.26171281933784485
1789453366166566700,2.782566650390625,-0.16216599941253662,-0.15250271558761597,-0.22526854276657104
1789453366176507600,2.792507568359375,-0.10368671268224716,-0.17227908968925476,-0.19139206409454346
1789453366186449000,2.802448974609375,-0.0322149284183979,-0.1581326425075531,-0.17607197165489197
1789453366196388600,2.812388671875,0.01738671399652958,-0.13084402680397034,-0.16436763107776642
1789453366206329600,2.82232958984375,0.04200124740600586,-0.07893157005310059,-0.1388348489999771
1789453366216270600,2.8322705078125,0.036853887140750885,-0.042643334716558456,-0.11534470319747925
1789453366226211800,2.8422119140625,0.0065505774691700935,-0.0335819274187088,-0.09168091416358948
1789453366236152600,2.852152587890625,-0.03217924013733864,-0.028382638469338417,-0.07753287255764008
1789453366246093800,2.86209375,-0.05939914286136627,-0.02274126559495926,-0.09316855669021606
1789453366256033500,2.872033447265625,-0.05582544952630997,-0.05016463249921799,-0.13578179478645325
1789453366265974800,2.881974853515625,-0.019943613559007645,-0.07414080947637558,-0.2004832923412323
1789453366275915500,2.89191552734375,0.03591272607445717,-0.09266335517168045,-0.26107579469680786
1789453366285856800,2.901856689453125,0.06485383212566376,-0.10492348670959473,-0.28396087884902954
1789453366295797500,2.911797607421875,0.04982161894440651,-0.12549187242984772,-0.24579697847366333
1789453366305737700,2.92173779296875,0.013822604902088642,-0.1490110456943512,-0.14478647708892822
1789453366315678700,2.9316787109375,-0.030248982831835747,-0.14809119701385498,-0.00968804769217968
1789453366325619700,2.94161962890625,-0.06291797757148743,-0.09582798928022385,0.09698326885700226
1789453366335560700,2.951560791015625,-0.07709851115942001,0.0051990230567753315,0.13342277705669403
1789453366345501700,2.961501708984375,-0.08564486354589462,0.08650027215480804,0.0919637456536293
1789453366355442700,2.971442626953125,-0.0920734703540802,0.10987057536840439,-0.003111104713752866
1789453366365382700,2.981382568359375,-0.10444651544094086,0.07840585708618164,-0.11119336634874344
1789453366375323600,2.99132373046875,-0.11571487784385681,0.009268599562346935,-0.2074112445116043
1789453366385264600,3.0012646484375,-0.10363185405731201,-0.05252685770392418,-0.29036498069763184
1789453366395205600,3.01120556640625,-0.06572628021240234,-0.05854879692196846,-0.34965333342552185
1789453366405146600,3.021146728515625,-0.04229152947664261,-0.05822468921542168,-0.37663915753364563
1789453366415086800,3.0310869140625,-0.03568742424249649,-0.041915491223335266,-0.3305875062942505
1789453366425027600,3.041027587890625,-0.008285360410809517,-0.019155584275722504,-0.23291820287704468
1789453366434968800,3.05096875,0.0463256873190403,0.004006459377706051,-0.10869452357292175
1789453366444909800,3.060909912109375,0.1294405460357666,0.005642705596983433,0.017297497019171715
1789453366454850600,3.0708505859375,0.20389321446418762,-0.04217861220240593,0.13976562023162842
1789453366464791800,3.080791748046875,0.27212846279144287,-0.11581049114465714,0.21704202890396118
1789453366474731800,3.090731689453125,0.33181095123291016,-0.1959327608346939,0.24473997950553894
1789453366484672800,3.1006728515625,0.36748987436294556,-0.2436467409133911,0.25328338146209717
1789453366494613800,3.11061376953125,0.36867496371269226,-0.24493172764778137,0.24700473248958588
1789453366504554800,3.1205546875,0.37067607045173645,-0.1881089210510254,0.21307125687599182
1789453366514495500,3.13049560546875,0.3825835883617401,-0.11913704127073288,0.13792644441127777
1789453366524435700,3.140435791015625,0.4255872666835785,-0.06391479820013046,0.02996775321662426
1789453366534376700,3.150376708984375,0.4746951460838318,-0.04232029244303703,-0.05506698042154312
1789453366544317700,3.160317626953125,0.4849030375480652,-0.05679190903902054,-0.07883542776107788
1789453366554258700,3.1702587890625,0.4385446012020111,-0.060139235109090805,-0.026440128684043884
1789453366564199700,3.18019970703125,0.389873206615448,-0.02063257433474064,0.06569831818342209
1789453366574140700,3.190140625,0.3709980547428131,0.052864279597997665,0.17843924462795258
1789453366584080600,3.20008056640625,0.3638165593147278,0.10188428312540054,0.2995148003101349
1789453366594022000,3.21002197265625,0.36794793605804443,0.09212406724691391,0.4174736738204956
1789453366603962600,3.219962646484375,0.3667588233947754,0.008688562549650669,0.4859888255596161
1789453366613904000,3.22990380859375,0.3653081953525543,-0.0857953354716301,0.5077007412910461
1789453366623844600,3.2398447265625,0.3642069697380066,-0.14871783554553986,0.47038188576698303
1789453366633785600,3.24978564453125,0.35182222723960876,-0.16687393188476562,0.37691158056259155
1789453366643725600,3.2597255859375,0.3209652304649353,-0.16010338068008423,0.26344653964042664
1789453366653666800,3.269666748046875,0.2812902629375458,-0.1749798059463501,0.14823980629444122
1789453366663607600,3.279607666015625,0.20985789597034454,-0.18582606315612793,0.06714042276144028
1789453366673548800,3.289548828125,0.1684390753507614,-0.14361043274402618,0.006746319588273764
1789453366683489800,3.29948974609375,0.18541140854358673,-0.06239040568470955,-0.036554280668497086
1789453366693429800,3.3094296875,0.2179293930530548,0.025226792320609093,-0.031039675697684288
1789453366703370800,3.319370849609375,0.2655552327632904,0.05260834842920303,0.01503940299153328
1789453366713311700,3.329311767578125,0.304505318403244,0.0448116809129715,0.09102418273687363
1789453366723252700,3.339252685546875,0.332339346408844,-0.006277869455516338,0.14974474906921387
1789453366733193700,3.34919384765625,0.35561829805374146,-0.05565101280808449,0.1580311805009842
1789453366743134700,3.359134765625,0.3865751326084137,-0.07491525262594223,0.12620800733566284
1789453366753074700,3.36907470703125,0.3998270332813263,-0.06193926930427551,0.08982895314693451
1789453366763016700,3.3790166015625,0.402763694524765,-0.0028272117488086224,0.07192292809486389
1789453366772957400,3.38895751953125,0.3933289051055908,0.050148386508226395,0.0747903510928154
1789453366782898700,3.398898681640625,0.3801494538784027,0.10830836743116379,0.0870337039232254
1789453366792839400,3.40883935546875,0.3663271367549896,0.14755909144878387,0.11404108256101608
1789453366802779600,3.418779541015625,0.3545770049095154,0.13109223544597626,0.13413304090499878
1789453366812720600,3.428720703125,0.3591690957546234,0.05380330979824066,0.14650075137615204
1789453366822661600,3.43866162109375,0.39328497648239136,-0.04861946776509285,0.16972458362579346
1789453366832602600,3.4486025390625,0.4142909348011017,-0.20002976059913635,0.1855592131614685
1789453366842543600,3.458543701171875,0.423725426197052,-0.38493701815605164,0.22377876937389374
1789453366852484600,3.468484619140625,0.4555278420448303,-0.5350985527038574,0.2639802396297455
1789453366862424600,3.478424560546875,0.5031999945640564,-0.5267754197120667,0.3045564293861389
1789453366872365800,3.48836572265625,0.5348650217056274,-0.513238251209259,0.33963319659233093
1789453366882306600,3.498306640625,0.5126851201057434,-0.47264742851257324,0.3858667314052582
1789453366892247600,3.50824755859375,0.5007193088531494,-0.377169668674469,0.4658193588256836
1789453366902188500,3.5181884765625,0.5062994360923767,-0.3499641418457031,0.46983301639556885
1789453366912129500,3.528129638671875,0.5355358719825745,-0.1521032452583313,0.3444537818431854
1789453366922069500,3.538069580078125,0.5546064972877502,0.16850166022777557,0.07417888939380646
1789453366932010800,3.5480107421875,0.5493922829627991,0.47753646969795227,-0.2681148052215576
1789453366941951500,3.557951416015625,0.5428270697593689,0.6886646747589111,-0.5902252197265625
1789453366951892700,3.567892822265625,0.5424374341964722,0.7273423075675964,-0.8417525291442871
1789453366961833700,3.577833740234375,0.5422731041908264,0.49508562684059143,-0.9813900589942932
1789453366971773700,3.587773681640625,0.519142210483551,0.1809721738100052,-0.9798091650009155
1789453366981714700,3.597714599609375,0.47154700756073,-0.018880747258663177,-0.9070817232131958
1789453366991655700,3.60765576171875,0.49105361104011536,-0.13905934989452362,-0.9020842909812927
1789453367001596700,3.6175966796875,0.6590104103088379,-0.23980353772640228,-1.0388293266296387
1789453367011537700,3.62753759765625,0.8991183042526245,-0.3575805127620697,-1.2523515224456787
1789453367021478700,3.637478759765625,1.0450190305709839,-0.6251325607299805,-1.3715274333953857
1789453367031418600,3.647418701171875,1.0556895732879639,-0.9277270436286926,-1.3751639127731323
1789453367041359600,3.657359619140625,1.1322591304779053,-1.1531354188919067,-1.4452126026153564
1789453367051300600,3.667300537109375,1.2455250024795532,-1.25822913646698,-1.5975898504257202
1789453367061241600,3.67724169921875,0.8798460960388184,-1.200347661972046,-1.5943444967269897
1789453367071182800,3.687182861328125,0.856268048286438,-1.1603385210037231,-1.5866868495941162
1789453367081123600,3.69712353515625,0.46839597821235657,-1.5896496772766113,-1.7988739013671875
1789453367091063800,3.707063720703125,0.1795593798160553,-2.3915188312530518,-2.1543641090393066
1789453367101004500,3.717004638671875,0.5828229188919067,-3.145343780517578,-2.4219470024108887
1789453367110945800,3.72694580078125,1.6652623414993286,-4.091005802154541,-2.6682794094085693
1789453367120886500,3.736886474609375,2.8943989276885986,-4.717988967895508,-2.999664068222046
1789453367130827800,3.746827880859375,4.207396030426025,-5.427542686462402,-3.346479892730713
1789453367140768500,3.7567685546875,5.733512878417969,-6.271324634552002,-3.4012818336486816
1789453367150708700,3.766708740234375,6.922381401062012,-6.996119022369385,-2.9268605709075928
1789453367160649500,3.7766494140625,7.203242778778076,-7.880955219268799,-2.343196153640747
1789453367170590700,3.7865908203125,6.440854072570801,-8.242877960205078,-1.776031494140625
1789453367180531500,3.796531494140625,5.720824718475342,-8.222579002380371,-1.3638652563095093
1789453367190472700,3.80647265625,5.144010543823242,-7.722262382507324,-0.9907987117767334
1789453367200413700,3.81641357421875,4.450125217437744,-6.996922016143799,-0.6220476031303406
1789453367210353700,3.826353759765625,3.449934959411621,-5.9970574378967285,-0.09335125237703323
1789453367220294700,3.836294677734375,2.426309108734131,-4.643621444702148,0.6678882837295532
1789453367230235600,3.846235595703125,2.1354408264160156,-4.453467845916748,1.1867644786834717
1789453367240176600,3.8561767578125,2.202183246612549,-4.463018417358398,1.6422518491744995
1789453367250117600,3.86611767578125,2.0597965717315674,-4.0374226570129395,2.196819543838501
1789453367260058600,3.87605859375,1.7442970275878906,-3.6604645252227783,2.7967138290405273
1789453367269998600,3.88599853515625,1.4679975509643555,-3.809159517288208,3.322366952896118
1789453367279939600,3.895939697265625,1.3191359043121338,-4.240541934967041,3.681135416030884
1789453367289880600,3.905880615234375,1.2812292575836182,-4.561335563659668,3.8597400188446045
1789453367299821600,3.915821533203125,1.3054757118225098,-4.752771854400635,3.9577410221099854
1789453367309762800,3.9257626953125,1.3679335117340088,-5.009152412414551,4.14140510559082
1789453367319703600,3.93570361328125,1.587592601776123,-5.019134998321533,4.236785411834717
1789453367329643800,3.945643798828125,2.441126823425293,-3.7562496662139893,3.622403383255005
1789453367339584500,3.95558447265625,2.8281044960021973,-1.5495613813400269,2.811558961868286
1789453367349525800,3.96552587890625,2.0664334297180176,0.36634284257888794,1.6729838848114014
1789453367359466500,3.975466552734375,1.296938180923462,0.5647169351577759,0.9527802467346191
1789453367369407700,3.98540771484375,-0.08640918880701065,0.4277995526790619,-0.2245904952287674
1789453367379348500,3.995348388671875,-1.1955289840698242,-0.7913716435432434,-1.214247465133667
1789453367389288700,4.005288818359375,-1.2955322265625,-2.1810853481292725,-1.6113929748535156
1789453367399229400,4.0152294921875,-1.0141013860702515,-3.209961414337158,-1.8104842901229858
1789453367409170700,4.025170654296875,-0.7579367160797119,-3.878803253173828,-1.811242699623108
1789453367419111700,4.035111572265625,-0.4891859292984009,-4.19466495513916,-1.616719365119934
1789453367429052700,4.045052734375,-0.27377161383628845,-4.147688388824463,-1.2107566595077515
1789453367438993700,4.05499365234375,-0.3048059642314911,-3.381432056427002,-0.8020578026771545
1789453367448933600,4.06493359375,0.6972216963768005,-1.8965978622436523,-0.3537745773792267
1789453367458874600,4.07487451171875,1.7050907611846924,-0.8146026730537415,0.24461880326271057
1789453367468815600,4.084815673828125,3.0690717697143555,0.16000591218471527,0.20633026957511902
1789453367478756600,4.094756591796875,3.8577730655670166,1.4302541017532349,-0.13750965893268585
1789453367488697600,4.104697509765625,4.814466953277588,2.51377272605896,-0.4137793183326721
1789453367498638600,4.114638671875,5.053523063659668,3.1147561073303223,-0.5806756615638733
1789453367508578600,4.12457861328125,4.922993183135986,2.6543564796447754,-0.2970985174179077
1789453367518519600,4.13451953125,3.060457944869995,0.8270207047462463,-0.30775463581085205
1789453367528460500,4.14446044921875,2.1151413917541504,-0.7008446455001831,0.3750109076499939
1789453367538401500,4.154401611328125,3.256073236465454,1.7304573059082031,-0.14408206939697266
1789453367548342800,4.1643427734375,2.470564126968384,0.6192829608917236,-0.6483071446418762
1789453367558282500,4.174282470703125,1.5138156414031982,1.81659734249115,-1.187699556350708
1789453367568223700,4.1842236328125,-0.4693693518638611,2.837019681930542,-3.087991952896118
1789453367578164500,4.19416455078125,1.7167718410491943,5.228713035583496,-2.2673308849334717
1789453367588105700,4.204105712890625,4.362685680389404,4.33204460144043,-1.2003988027572632
1789453367598046500,4.21404638671875,4.481625080108643,2.272003412246704,-0.21491682529449463
1789453367607987700,4.22398779296875,3.7901878356933594,1.005311131477356,1.1503585577011108
1789453367617927400,4.233927490234375,3.3614161014556885,-0.905870795249939,2.1859123706817627
1789453367627868700,4.24386865234375,3.6970205307006836,-1.2222745418548584,2.991604804992676
1789453367637809400,4.253809326171875,4.261327266693115,-0.05569974705576897,3.2316734790802
1789453367647750700,4.263750732421875,4.6450982093811035,0.6901560425758362,3.0399327278137207
1789453367657691600,4.273691650390625,4.753724575042725,0.9077882766723633,3.060009717941284
1789453367667632600,4.283632568359375,4.47629976272583,0.5908145308494568,3.2608768939971924
1789453367677572600,4.293572509765625,3.7369463443756104,0.1922578513622284,3.5311553478240967
1789453367687513600,4.303513671875,2.6548376083374023,-0.3308010995388031,3.8921358585357666
1789453367697454600,4.31345458984375,1.5092504024505615,-1.0109119415283203,4.005827903747559
1789453367707395600,4.3233955078125,0.41939592361450195,-1.2877925634384155,3.8052220344543457
1789453367717336600,4.333336669921875,-0.6001846194267273,-1.1102832555770874,3.197956085205078
1789453367727277600,4.343277587890625,-1.4429481029510498,-0.7120147347450256,2.3855438232421875
1789453367737217800,4.3532177734375,-2.04738450050354,-0.14212891459465027,1.6872097253799438
1789453367747158500,4.363158447265625,-2.1173596382141113,0.7583785057067871,0.6746852397918701
1789453367757099300,4.373099365234375,-1.9481686353683472,1.3217625617980957,-0.2688434422016144
1789453367767040000,4.3830400390625,-1.7612879276275635,1.3366754055023193,-0.8219854831695557
1789453367776981000,4.39298095703125,-1.4600136280059814,1.1221446990966797,-1.2135119438171387
1789453367786922000,4.402921875,-1.0942121744155884,0.9775164723396301,-1.5550469160079956
1789453367796862200,4.4128623046875,-0.7037818431854248,0.7787956595420837,-1.7089033126831055
1789453367806803000,4.422802978515625,-0.5020236968994141,0.3645939528942108,-1.6496604681015015
1789453367816744200,4.432744140625,-0.7182726263999939,0.04147287458181381,-1.6416561603546143
1789453367826685200,4.442685302734375,-0.9679117798805237,-0.23841416835784912,-1.5508798360824585
1789453367836626200,4.452626220703125,-1.179792881011963,-0.373363733291626,-1.4040379524230957
1789453367846566000,4.46256591796875,-1.386610984802246,-0.9368305802345276,-1.1950151920318604
1789453367856507100,4.472507080078125,-1.5733481645584106,-1.867777943611145,-1.0640758275985718
1789453367866448100,4.4824482421875,-1.667263150215149,-2.99367618560791,-0.9551565647125244
1789453367876389000,4.49238916015625,-1.7564234733581543,-3.904369831085205,-0.8685292601585388
1789453367886330000,4.502330078125,-1.7727872133255005,-4.154703140258789,-0.7270597219467163
1789453367896271000,4.51227099609375,-1.7583280801773071,-4.0761332511901855,-0.6818398237228394
1789453367906211000,4.522211181640625,-1.761988878250122,-3.804187059402466,-0.7166867256164551
1789453367916152000,4.532152099609375,-2.0506246089935303,-3.1867401599884033,-0.8400145173072815
1789453367926093000,4.542093017578125,-2.5409185886383057,-2.4812896251678467,-0.9880750775337219
1789453367936034000,4.552033935546875,-3.15397572517395,-1.9196016788482666,-1.1832165718078613
1789453367945975000,4.56197509765625,-3.3568198680877686,-1.7886101007461548,-1.290277361869812
1789453367955916300,4.571916259765625,-3.355271816253662,-1.5409233570098877,-1.6553362607955933
1789453367965856000,4.58185595703125,-3.166142463684082,-1.118817925453186,-1.7794419527053833
1789453367975797200,4.59179736328125,-2.717296838760376,-0.4870615303516388,-1.87624192237854
1789453367985738000,4.601738037109375,-2.043468475341797,0.1296655833721161,-1.9189231395721436
1789453367995679200,4.61167919921875,-1.508689045906067,0.6812584400177002,-2.0254993438720703
1789453368005620000,4.621619873046875,-1.4095579385757446,0.8603333830833435,-2.119122266769409
1789453368015561200,4.631561279296875,-1.6799174547195435,0.7950931191444397,-2.0254886150360107
1789453368025501000,4.6415009765625,-1.9330304861068726,0.6982752680778503,-1.7304173707962036
1789453368035442200,4.651442138671875,-1.8762483596801758,0.004877579398453236,-1.6014807224273682
1789453368045383000,4.6613828125,-0.646976113319397,-0.5113330483436584,-1.333346962928772
1789453368055324200,4.67132421875,-0.12928608059883118,-0.8583682179450989,-0.8452231287956238
1789453368065265200,4.68126513671875,-0.2539060413837433,-1.3519843816757202,-0.2805855870246887
1789453368075205000,4.691205078125,-0.7689206600189209,-1.9060437679290771,-0.07308672368526459
1789453368085146000,4.70114599609375,-1.5857754945755005,-2.1629767417907715,-0.12215600162744522
1789453368095087000,4.711087158203125,-1.9367103576660156,-1.6316940784454346,-0.2563295066356659
1789453368105028000,4.721028076171875,-2.206101655960083,-0.7765452861785889,-0.3605685830116272
1789453368114969000,4.730968994140625,-2.6234312057495117,0.28191158175468445,-0.36292120814323425
1789453368124910000,4.74091015625,-2.915316581726074,0.3440932035446167,-0.6448895335197449
1789453368134850000,4.75085009765625,-3.295285224914551,0.4835948944091797,-0.31140848994255066
1789453368144791000,4.760791015625,-2.733050584793091,-0.28423890471458435,0.058088336139917374
1789453368154732000,4.77073193359375,-1.4457515478134155,-1.0069198608398438,-0.004742290824651718
1789453368164673000,4.780673095703125,-0.1327172964811325,-0.6376537084579468,-0.34496617317199707
1789453368174614300,4.7906142578125,-0.3510110080242157,-0.17374995350837708,-0.17933113873004913
1789453368184555000,4.800554931640625,-0.4174840450286865,-0.0978727638721466,-0.26034635305404663
1789453368194495000,4.810494873046875,-0.19610373675823212,0.051422711461782455,-0.13741672039031982
1789453368204436000,4.82043603515625,-0.7473533153533936,0.4981805086135864,-0.6527215838432312
1789453368214377200,4.830377197265625,-1.8046168088912964,0.5338711142539978,-0.7073984146118164
1789453368224318000,4.84031787109375,-2.0484731197357178,-0.3423496186733246,0.323003351688385
1789453368234259200,4.85025927734375,-1.6948951482772827,-1.7107454538345337,1.2562437057495117
1789453368244200000,4.860199951171875,-1.2916182279586792,-2.507655382156372,1.539699673652649
1789453368254140200,4.87014013671875,-1.1825947761535645,-2.1148433685302734,1.2646899223327637
1789453368264081000,4.880080810546875,-0.7740634679794312,-1.5194753408432007,1.050992488861084
1789453368274022100,4.890022216796875,-0.13263580203056335,-1.0525214672088623,0.6779622435569763
1789453368283961000,4.899961181640625,0.3996557891368866,-0.5452795624732971,0.17095176875591278
1789453368293902000,4.909902099609375,0.5998722314834595,-0.5410118699073792,-0.13501746952533722
1789453368303843000,4.919843017578125,0.7848415374755859,-0.4827040731906891,-0.1899944394826889
1789453368313784000,4.9297841796875,1.2240625619888306,0.09919209778308868,-0.1626048982143402
1789453368323724000,4.93972412109375,1.7329785823822021,0.5821888446807861,-0.08786407858133316
1789453368334032100,4.9500322265625,1.9901273250579834,0.5572579503059387,0.03422508016228676
1789453368343606000,4.95960595703125,1.81675124168396,0.4898011386394501,-0.09461598843336105
1789453368353547000,4.969547119140625,1.5605263710021973,-0.8156665563583374,0.08799483627080917
1789453368363488000,4.979488037109375,1.7722982168197632,-1.125005841255188,0.35612109303474426
1789453368373428200,4.98942822265625,2.2116541862487793,-0.48692357540130615,0.21008452773094177
1789453368383369000,4.999368896484375,2.6256227493286133,0.5308239459991455,0.23327772319316864
1789453368393310000,5.00931005859375,3.0500173568725586,0.9636083841323853,0.11618413031101227
1789453368403251200,5.019251220703125,3.3898510932922363,1.436894416809082,0.018262360244989395
1789453368413192000,5.02919189453125,3.3661410808563232,1.921046495437622,-0.22968299686908722
1789453368423133200,5.03913330078125,3.0888938903808594,2.1595287322998047,-0.42742934823036194
1789453368433073200,5.0490732421875,2.8492190837860107,2.037635087966919,-0.3848070800304413
1789453368443014100,5.05901416015625,2.619213819503784,1.605454444885254,-0.2249217927455902
1789453368452955000,5.068954833984375,1.9438660144805908,1.2412335872650146,0.018747322261333466
1789453368462896000,5.078896240234375,1.4221348762512207,1.014806866645813,0.21387846767902374
1789453368472836900,5.0888369140625,1.4374585151672363,1.2282410860061646,0.22394254803657532
1789453368482778000,5.098778076171875,1.499799132347107,1.646695613861084,0.17645758390426636
1789453368492718000,5.108718017578125,1.5115119218826294,2.090289831161499,0.07150667160749435
1789453368502659000,5.1186591796875,1.3948167562484741,2.1025002002716064,0.2315557301044464
1789453368512600000,5.12860009765625,1.3686575889587402,1.4434401988983154,0.7036047577857971
1789453368522541000,5.138541015625,1.3969590663909912,0.5729072093963623,0.9065514802932739
1789453368532482000,5.14848193359375,1.3315685987472534,0.32628676295280457,0.6790826320648193
1789453368542422000,5.158422119140625,0.7276520133018494,0.8764172792434692,0.39117974042892456
1789453368552363300,5.16836328125,0.27591148018836975,0.0744049921631813,0.9285164475440979
1789453368562304000,5.178303955078125,-0.1797199696302414,-0.6536883115768433,1.0708088874816895
1789453368572245200,5.188245361328125,-0.3862808644771576,-0.9465113878250122,0.5766404271125793
1789453368582186000,5.19818603515625,0.03954820707440376,-0.8894134759902954,-0.017191236838698387
1789453368592127000,5.208126953125,0.27627021074295044,1.3521143198013306,1.1927483081817627
1789453368602067000,5.21806689453125,0.10547582805156708,0.5126965641975403,0.9050257802009583
1789453368612008200,5.22800830078125,0.5721774697303772,-1.1020530462265015,-0.5141578912734985
1789453368621949200,5.23794921875,1.09610116481781,-1.4462535381317139,-0.6988717913627625
1789453368631890200,5.24789013671875,1.1797816753387451,-1.3636183738708496,-0.41867688298225403
1789453368641831200,5.2578310546875,1.1791497468948364,-1.2911531925201416,-0.24597062170505524
1789453368651772000,5.26777197265625,1.1467978954315186,-0.8310982584953308,-0.21805083751678467
1789453368661712100,5.277712158203125,0.958031952381134,0.15744368731975555,-0.01643037237226963
1789453368671653000,5.287653076171875,0.5998410582542419,0.7931514382362366,0.3927728533744812
1789453368681594000,5.297593994140625,0.12629109621047974,0.5547162294387817,0.5322266221046448
1789453368691535000,5.30753515625,-0.051303666085004807,0.20162206888198853,0.45579203963279724
1789453368701476000,5.31747607421875,-0.014395184814929962,0.08564965426921844,0.4866412878036499
1789453368711416000,5.327416015625,-0.02034015953540802,0.07725483924150467,0.5484732389450073
1789453368721357000,5.337357177734375,0.01581518165767193,-0.08999407291412354,0.553514838218689
1789453368731298000,5.347298095703125,-0.0461757518351078,-0.48031309247016907,0.605054497718811
1789453368741239000,5.357239013671875,-0.0830586701631546,-0.7274048924446106,0.45349639654159546
1789453368751180300,5.36718017578125,-0.09138637036085129,-1.3838269710540771,0.3192765414714813
1789453368761120500,5.37712060546875,-0.07918456941843033,-2.5892651081085205,0.21496769785881042
1789453368771060500,5.387060546875,-0.07551499456167221,-3.7516822814941406,0.3876499831676483
1789453368781001500,5.39700146484375,-0.0626458078622818,-4.2317962646484375,0.44279900193214417
1789453368790942500,5.4069423828125,0.22131188213825226,-3.4986634254455566,0.25746774673461914
1789453368800883500,5.416883544921875,0.8627102375030518,-2.9508562088012695,0.10646172612905502
1789453368810824400,5.426824462890625,0.6897289156913757,-2.712235927581787,-0.010042247362434864
1789453368820765400,5.436765380859375,0.1597483903169632,-2.4126014709472656,0.09893723577260971
1789453368830705400,5.446705322265625,-0.32581910490989685,-1.4542596340179443,-0.3145078718662262
1789453368840646400,5.456646484375,-0.6843951344490051,-0.6136237382888794,-0.8530173897743225
1789453368850587600,5.466587646484375,-0.6316296458244324,1.0227574110031128,-1.0107394456863403
1789453368860528400,5.4765283203125,-1.7641918659210205,1.981067419052124,0.042817238718271255
1789453368870469600,5.4864697265625,0.1489652395248413,-0.6336438059806824,0.9065762758255005
1789453368880409600,5.49640966796875,1.7688134908676147,-1.4215407371520996,0.7826151251792908
1789453368890350600,5.5063505859375,1.922545313835144,-0.6369516849517822,0.19346719980239868
1789453368900291300,5.516291259765625,2.029230833053589,0.6961410045623779,-1.0421888828277588
1789453368910232600,5.526232666015625,1.476176381111145,0.4007311761379242,-0.39296406507492065
1789453368920173300,5.53617333984375,1.7570335865020752,0.9686601161956787,0.08485949784517288
1789453368930114600,5.546114501953125,2.234829902648926,2.7442626953125,0.8682959675788879
1789453368940054500,5.556054443359375,2.6940860748291016,3.0542068481445312,1.7960387468338013
1789453368949995500,5.56599560546875,1.8713936805725098,0.4521102011203766,0.8542006611824036
1789453368959936300,5.575936279296875,2.2510647773742676,-0.030302245169878006,-0.9459431171417236
1789453368969877500,5.58587744140625,1.95685875415802,-0.0783693715929985,-1.7654834985733032
1789453368979818500,5.595818603515625,1.6765786409378052,-0.5680887699127197,-1.7369147539138794
1789453368989759500,5.605759521484375,1.2696295976638794,-1.1451576948165894,-1.6690360307693481
1789453368999699700,5.61569970703125,1.0508357286453247,-1.4612740278244019,-1.6622034311294556
1789453369009640400,5.625640380859375,1.2147167921066284,-1.3695026636123657,-1.425896167755127
1789453369019581400,5.63558154296875,1.5430760383605957,-1.1456692218780518,-1.1699013710021973
1789453369029522400,5.6455224609375,1.8771120309829712,-1.047476887702942,-0.990682065486908
1789453369039463400,5.65546337890625,2.0841588973999023,-0.8187955021858215,-1.1727977991104126
1789453369049404400,5.665404296875,2.064898729324341,-0.7910318374633789,-1.5354535579681396
1789453369059344600,5.6753447265625,2.1021292209625244,-0.5785829424858093,-1.9750114679336548
1789453369069285400,5.685285400390625,2.2066619396209717,-0.22693568468093872,-2.2800989151000977
1789453369079226400,5.695226318359375,2.090597629547119,0.04549318179488182,-2.3348500728607178
1789453369089167600,5.705167724609375,1.302402377128601,0.07002675533294678,-2.449326515197754
1789453369099108400,5.7151083984375,0.09026625007390976,-1.4068702459335327,-2.9709887504577637
1789453369109048600,5.725048583984375,-0.2404690682888031,-2.668599843978882,-2.964611530303955
1789453369118989600,5.734989501953125,-0.7856525182723999,-3.652155876159668,-3.0581443309783936
1789453369128930600,5.7449306640625,-0.7946702241897583,-5.126856803894043,-2.783597707748413
1789453369138871600,5.75487158203125,-0.07348114252090454,-3.1441404819488525,-0.9369586706161499
1789453369148812500,5.7648125,-0.11062158644199371,1.2415387630462646,0.7923679351806641
1789453369158753300,5.774753173828125,-0.10290347784757614,1.9896281957626343,-0.23212218284606934
1789453369168693500,5.784693603515625,0.04494776576757431,-1.8788892030715942,-1.9616512060165405
1789453369178634500,5.794634521484375,-0.07096205651760101,-0.4043136537075043,-1.236202359199524
1789453369188575500,5.804575439453125,-0.462612122297287,2.1004889011383057,-0.445389986038208
1789453369198516500,5.8145166015625,-0.6187900304794312,1.2541393041610718,-1.073602557182312
1789453369208457500,5.82445751953125,-0.6065133810043335,-0.5272169709205627,-1.299098014831543
1789453369218398500,5.8343984375,-0.5697761178016663,-0.390996515750885,-0.9693458676338196
1789453369228338400,5.84433837890625,-0.5407364964485168,-0.10875550657510757,-0.6877853274345398
1789453369238279700,5.85427978515625,-0.6088875532150269,-0.262066513299942,-0.5838903188705444
1789453369248220400,5.864220458984375,-0.6609870195388794,-0.3483385443687439,-0.5952359437942505
1789453369258161700,5.87416162109375,-0.6121914982795715,-0.21425023674964905,-0.6886205077171326
1789453369268102400,5.884102294921875,-0.5911980271339417,-0.22001466155052185,-0.8013709783554077
1789453369278043400,5.89404345703125,-0.6522675156593323,-0.23829805850982666,-0.7685326337814331
1789453369287983400,5.9039833984375,-0.692695677280426,-0.2578973174095154,-0.6811508536338806
1789453369297924600,5.913924560546875,-0.6489614844322205,-0.40135329961776733,-0.7754051685333252
1789453369307865300,5.923865234375,-0.7383217215538025,-0.5671460032463074,-0.9279190897941589
1789453369317806600,5.933806640625,-0.9092247486114502,-0.7215036153793335,-0.8895424008369446
1789453369327747600,5.94374755859375,-1.1030067205429077,-0.8664935231208801,-0.8270012736320496
1789453369337688300,5.953688232421875,-1.2818228006362915,-0.9294679760932922,-0.8577538728713989
1789453369347628500,5.963628662109375,-0.22713035345077515,-1.5649535655975342,-2.511439085006714
1789453369357569500,5.973569580078125,-0.06496994197368622,-1.0409289598464966,-2.12803053855896
1789453369367510500,5.983510498046875,-0.008461128920316696,-1.283651351928711,-1.8406826257705688
1789453369377451500,5.993451416015625,-0.0498754158616066,-1.3304479122161865,-1.5553781986236572
1789453369387392500,6.003392578125,-0.10651525855064392,-0.7255899310112,-1.3391692638397217
1789453369397333500,6.01333349609375,-0.22785234451293945,-0.3395615518093109,-1.2736586332321167
1789453369407273500,6.0232734375,-0.23335735499858856,-0.12659576535224915,-1.0279892683029175
1789453369417214500,6.03321435546875,-0.1638997197151184,-0.0768473744392395,-0.4777330160140991
1789453369427155500,6.043155517578125,-0.07510833442211151,0.00956927053630352,0.032949693500995636
1789453369437096700,6.0530966796875,-0.07274850457906723,0.22266289591789246,0.08428824692964554
1789453369447037400,6.063037353515625,-0.10842101275920868,0.30411702394485474,-0.06509218364953995
1789453369456978400,6.072978515625,-0.19326160848140717,0.29025551676750183,0.045877210795879364
1789453369466918400,6.08291845703125,-0.28276005387306213,0.41996344923973083,0.2729385793209076
1789453369476859600,6.092859619140625,-0.36563897132873535,0.6167857050895691,0.3353883922100067
1789453369486800400,6.10280029296875,-0.3722377419471741,0.6147963404655457,0.3634975254535675
1789453369496741600,6.11274169921875,-0.30551862716674805,0.4760917127132416,0.4192265570163727
1789453369506682400,6.122682373046875,-0.3592199385166168,0.31253498792648315,0.4693419337272644
1789453369516623600,6.13262353515625,-0.29709291458129883,0.3132724165916443,0.4738391935825348
1789453369526564600,6.142564697265625,-0.2118600606918335,0.36242425441741943,0.6603294610977173
1789453369536504600,6.152504638671875,-0.045705702155828476,0.2384202927350998,0.8774333000183105
1789453369546445600,6.162445556640625,0.06193607300519943,0.11173345893621445,1.0571905374526978
1789453369556386600,6.172386474609375,0.20615530014038086,0.15478558838367462,1.1808983087539673
1789453369566327600,6.18232763671875,0.3613523542881012,0.14411775767803192,1.3083468675613403
1789453369576268500,6.1922685546875,0.618655264377594,0.16582465171813965,1.5458067655563354
1789453369586209500,6.20220947265625,0.7874325513839722,0.06657209992408752,1.7497868537902832
1789453369596149500,6.2121494140625,0.7427912950515747,-0.2716570794582367,1.701703429222107
1789453369606090500,6.222090576171875,0.7490785121917725,-0.6522707343101501,1.7125513553619385
1789453369616031500,6.232031494140625,0.5665236115455627,-0.8499822020530701,1.7425670623779297
1789453369625972500,6.241972412109375,0.43176764249801636,-0.9380537271499634,1.8187414407730103
1789453369635913700,6.251913818359375,0.3287230134010315,-1.148711919784546,1.8143141269683838
1789453369645854500,6.2618544921875,0.35710379481315613,-1.4493249654769897,1.6280995607376099
1789453369655794400,6.27179443359375,0.39642325043678284,-1.54142165184021,1.2647833824157715
1789453369665735400,6.2817353515625,0.4149942696094513,-1.5590651035308838,1.0053044557571411
1789453369675676700,6.2916767578125,0.3705804646015167,-0.7111201882362366,0.9224849343299866
1789453369685617400,6.301617431640625,-0.01230673398822546,0.4471937417984009,0.9502001404762268
1789453369695558700,6.31155859375,-0.4100184142589569,1.6166788339614868,1.1847479343414307
1789453369705499400,6.32149951171875,-0.1344454288482666,1.1193939447402954,0.9108349084854126
1789453369715440400,6.3314404296875,0.5268787145614624,0.40137484669685364,0.7127412557601929
1789453369725380400,6.34138037109375,0.6163223385810852,0.4984119236469269,0.6094785332679749
1789453369735321600,6.351321533203125,0.8108054995536804,0.6616911292076111,0.7139069437980652
1789453369745262300,6.361262451171875,0.8217726945877075,0.6833996176719666,0.7613932490348816
1789453369755203600,6.37120361328125,0.7988527417182922,0.6478173732757568,0.7238980531692505
1789453369765144600,6.38114453125,0.7555097937583923,0.648404598236084,0.6142668724060059
1789453369775085600,6.39108544921875,0.7741699814796448,0.5741264224052429,0.44130921363830566
1789453369785025500,6.401025634765625,0.7493559718132019,0.40552058815956116,0.3123091757297516
1789453369794966500,6.410966552734375,0.6951476335525513,0.3572657108306885,0.39140450954437256
1789453369804907500,6.420907470703125,0.6363836526870728,0.4585167169570923,0.5969353318214417
1789453369814848800,6.430848876953125,0.7466931343078613,0.5332982540130615,0.7887028455734253
1789453369824789500,6.44078955078125,0.9970270395278931,0.6102500557899475,1.2108173370361328
1789453369834730800,6.450730712890625,1.2817511558532715,0.6640504002571106,1.549046277999878
1789453369844671500,6.46067138671875,1.4828890562057495,0.46525636315345764,1.6117104291915894
1789453369854611700,6.47061181640625,1.5257574319839478,0.347881019115448,1.5190409421920776
1789453369864552400,6.480552490234375,1.491887092590332,0.3271094262599945,1.4729970693588257
1789453369874493700,6.49049365234375,1.4032959938049316,0.28757745027542114,1.409396767616272
1789453369884434400,6.500434326171875,1.295599102973938,0.08626937121152878,1.3752992153167725
1789453369894375700,6.510375732421875,1.2394874095916748,-0.03454332798719406,1.309497356414795
1789453369904316700,6.520316650390625,1.2433971166610718,-0.0362275131046772,1.1975460052490234
1789453369914257400,6.53025732421875,1.266991138458252,0.030112894251942635,1.0374131202697754
1789453369924197600,6.54019775390625,1.2032188177108765,0.13093724846839905,0.800070583820343
1789453369934138600,6.550138671875,0.909984827041626,0.16059046983718872,0.5552360415458679
1789453369944079600,6.56007958984375,0.7440070509910583,-0.07392029464244843,0.4763526916503906
1789453369954020600,6.5700205078125,0.6732119917869568,-0.16943004727363586,0.4091411828994751
1789453369963961600,6.579961669921875,0.6074672937393188,-0.12336987257003784,0.34131497144699097
1789453369973902300,6.58990234375,0.49248453974723816,-0.1433504968881607,0.24360120296478271
1789453369983842600,6.599842529296875,0.12598483264446259,-0.2325536161661148,0.0158292967826128
1789453369993783600,6.609783447265625,-0.2577175498008728,0.0386216938495636,-0.12631799280643463
1789453370003724500,6.619724609375,-0.3463888466358185,0.4053219258785248,0.17533080279827118
1789453370013665800,6.629665771484375,-0.3372211754322052,0.5186370611190796,0.7000387907028198
1789453370023606500,6.6396064453125,-0.10392399877309799,0.5177558064460754,0.9942815899848938
1789453370033547500,6.649547607421875,0.1307462900876999,0.3545144200325012,1.134145736694336
1789453370043488500,6.659488525390625,0.2501256763935089,0.2106565684080124,0.989041805267334
1789453370053428700,6.6694287109375,0.32142916321754456,0.10634241998195648,0.8622985482215881
1789453370063369500,6.679369384765625,0.27156680822372437,0.028686506673693657,0.8732731342315674
1789453370073310700,6.689310791015625,0.16794852912425995,-0.0021638183388859034,0.9190499782562256
1789453370083251500,6.69925146484375,0.1690172553062439,-0.10785802453756332,0.8668251037597656
1789453370093192700,6.709192626953125,0.1451135128736496,0.093937948346138,0.6745190620422363
1789453370103133700,6.7191337890625,0.08001387864351273,0.3609086573123932,0.43027201294898987
1789453370113074400,6.729074462890625,0.16969449818134308,0.32130372524261475,0.4946448802947998
1789453370123014700,6.7390146484375,0.17579899728298187,0.19082188606262207,0.5207664966583252
1789453370132955600,6.74895556640625,0.13734161853790283,0.09957639127969742,0.44740360975265503
1789453370142896600,6.758896728515625,0.04518425464630127,0.11136674135923386,0.35687902569770813
1789453370152837600,6.768837646484375,0.06133553013205528,0.0841287225484848,0.3236235976219177
1789453370162778600,6.778778564453125,0.06405408680438995,0.12683704495429993,0.21552935242652893
1789453370172719400,6.78871923828125,0.061744324862957,0.28971996903419495,0.11167539656162262
1789453370182660600,6.79866064453125,0.03795190900564194,0.22694580256938934,0.047577373683452606
1789453370192600600,6.8086005859375,-0.07058202475309372,0.10283184051513672,-0.022360166534781456
1789453370202541600,6.81854150390625,-0.16998344659805298,0.06681285053491592,-0.041311752051115036
1789453370212482800,6.82848291015625,-0.21937017142772675,-0.010788998566567898,-0.0670461431145668
1789453370222423600,6.838423583984375,-0.25516465306282043,-0.08364802598953247,-0.09652227908372879
1789453370232364500,6.848364501953125,-0.28315848112106323,-0.09711696207523346,-0.14896337687969208
1789453370242305500,6.858305419921875,-0.2758411765098572,-0.0700983926653862,-0.22485841810703278
1789453370252246500,6.86824658203125,-0.2765487730503082,-0.037874676287174225,-0.2992301285266876
1789453370262187500,6.8781875,-0.3301424980163574,-0.021028852090239525,-0.3608892261981964
1789453370272127700,6.888127685546875,-0.3446921408176422,-0.06612415611743927,-0.4147157073020935
1789453370282068500,6.898068359375,-0.3573267161846161,-0.08209433406591415,-0.4405619502067566
1789453370292009500,6.908009521484375,-0.39088520407676697,-0.029339246451854706,-0.45139914751052856
1789453370301950700,6.91795068359375,-0.4212217926979065,-0.005780390929430723,-0.4452243447303772
1789453370311891500,6.927891357421875,-0.4267779588699341,-0.0076299565844237804,-0.433357298374176
1789453370321832700,6.937832763671875,-0.42801234126091003,0.08467227965593338,-0.45803573727607727
1789453370331773400,6.9477734375,-0.4187075197696686,0.11811652034521103,-0.46459537744522095
1789453370341714700,6.957714599609375,-0.358421266078949,0.20931726694107056,-0.5375049710273743
1789453370351654700,6.967654541015625,-0.2584885358810425,0.18468409776687622,-0.5572504997253418
1789453370361595600,6.977595703125,-0.23459652066230774,0.1024712473154068,-0.54416823387146
1789453370371536400,6.987536376953125,-0.22091001272201538,0.10915418714284897,-0.5654063820838928
1789453370381477600,6.9974775390625,-0.1727885603904724,0.11884835362434387,-0.573235809803009
1789453370391418600,7.007418701171875,-0.1556500494480133,0.10168454796075821,-0.6028536558151245
1789453370401359600,7.017359619140625,-0.16272713243961334,0.04771479219198227,-0.6222097873687744
1789453370411300600,7.027300537109375,-0.1256316900253296,0.05991126969456673,-0.6077919602394104
1789453370421240600,7.037240478515625,-0.14760516583919525,0.09289185702800751,-0.5891663432121277
1789453370431181600,7.047181640625,-0.12641626596450806,0.20944510400295258,-0.6226087212562561
1789453370441122600,7.05712255859375,-0.10106323659420013,0.2849574387073517,-0.6704998016357422
1789453370451063600,7.0670634765625,-0.14916124939918518,0.34109607338905334,-0.6896154284477234
1789453370461004500,7.077004638671875,-0.15511608123779297,0.27122190594673157,-0.700918436050415
1789453370470945500,7.086945556640625,-0.17653535306453705,0.17013230919837952,-0.6974321007728577
1789453370480886500,7.096886474609375,-0.16782522201538086,0.07824820280075073,-0.6668768525123596
1789453370490827500,7.10682763671875,-0.17753669619560242,-0.057315751910209656,-0.6231986284255981
1789453370500767500,7.116767578125,-0.2091100811958313,-0.1732117235660553,-0.5793970823287964
1789453370510708500,7.12670849609375,-0.27614688873291016,-0.18932650983333588,-0.5738438367843628
1789453370520649700,7.136649658203125,-0.34514832496643066,-0.13354314863681793,-0.5915682315826416
1789453370530590500,7.146590576171875,-0.371646523475647,-0.04012158513069153,-0.6586652398109436
1789453370540531700,7.15653173828125,-0.3689306378364563,0.03400963172316551,-0.7111555933952332
1789453370550472400,7.166472412109375,-0.34038448333740234,0.0710454136133194,-0.6953415274620056
1789453370560413700,7.17641357421875,-0.29018282890319824,0.05030178651213646,-0.6851394772529602
1789453370570354400,7.1863544921875,-0.25613510608673096,-0.01751747541129589,-0.6626088619232178
1789453370580295700,7.196295654296875,-0.25622671842575073,-0.08740761131048203,-0.6228966116905212
1789453370590235400,7.2062353515625,-0.31595343351364136,-0.09415046870708466,-0.6326480507850647
1789453370600176600,7.2161767578125,-0.37102413177490234,0.024036094546318054,-0.6208904385566711
1789453370610117600,7.22611767578125,-0.36599022150039673,0.16018274426460266,-0.6249253749847412
1789453370620058600,7.23605859375,-0.3747861385345459,0.19673942029476166,-0.6562982201576233
1789453370629999600,7.24599951171875,-0.3706955015659332,0.1066468209028244,-0.682246744632721
1789453370639940600,7.255940673828125,-0.39600884914398193,0.023552197962999344,-0.6825926899909973
1789453370649881600,7.265881591796875,-0.47142770886421204,-0.017825068905949593,-0.7114392518997192
1789453370659822300,7.275822265625,-0.5405705571174622,-0.009378854185342789,-0.7135146260261536
1789453370669762600,7.285762451171875,-0.6097898483276367,0.10537835210561752,-0.6853434443473816
1789453370679703600,7.29570361328125,-0.6242180466651917,0.11412523686885834,-0.6969700455665588
1789453370689644500,7.30564453125,-0.5382869243621826,0.09377123415470123,-0.7062942981719971
1789453370699585800,7.315585693359375,-0.3983500301837921,0.07246487587690353,-0.6923869848251343
1789453370709526500,7.325526611328125,-0.27619457244873047,0.051002729684114456,-0.7050657868385315
1789453370719467500,7.335467529296875,-0.21998482942581177,0.017535584047436714,-0.7260357737541199
1789453370729408500,7.345408447265625,-0.21895338594913483,-0.008764197118580341,-0.7945687770843506
1789453370739349500,7.355349609375,-0.3066917657852173,-0.018221614882349968,-0.8729330897331238
1789453370749290500,7.36529052734375,-0.41749364137649536,0.05140566825866699,-0.9101720452308655
1789453370759230700,7.375230712890625,-0.4700671136379242,0.050701260566711426,-0.9223437309265137
1789453370769173000,7.385173095703125,-0.4567614197731018,-0.04665432125329971,-0.9564708471298218
1789453370779114000,7.395114013671875,-0.3550153374671936,-0.21331360936164856,-0.9844675660133362
1789453370789055000,7.405054931640625,-0.27815625071525574,-0.3216014802455902,-0.9941268563270569
1789453370798996000,7.414995849609375,-0.2334364503622055,-0.37367796897888184,-0.9610443115234375
1789453370808937000,7.42493701171875,-0.23377308249473572,-0.38179370760917664,-0.9431561231613159
1789453370818878000,7.4348779296875,-0.2842133343219757,-0.33879002928733826,-0.9230207204818726
1789453370828819000,7.44481884765625,-0.35512852668762207,-0.291997492313385,-0.9187389016151428
1789453370838760000,7.454760009765625,-0.4627697765827179,-0.25555720925331116,-0.935901403427124
1789453370848700200,7.4647001953125,-0.503665030002594,-0.2847158908843994,-0.9458693265914917
1789453370858641000,7.474640869140625,-0.4949879050254822,-0.44577640295028687,-0.9745669960975647
1789453370868582000,7.484581787109375,-0.4844692051410675,-0.49240168929100037,-1.0052649974822998
1789453370878523000,7.49452294921875,-0.40571901202201843,-0.5260512828826904,-1.0494540929794312
1789453370888464000,7.5044638671875,-0.33509624004364014,-0.556281328201294,-1.0577292442321777
1789453370898404900,7.51440478515625,-0.271220326423645,-0.5756614208221436,-1.0377097129821777
1789453370908345900,7.524345947265625,-0.239002987742424,-0.5742648839950562,-1.0179249048233032
1789453370918287000,7.534287109375,-0.2260485738515854,-0.49812349677085876,-0.9794813394546509
1789453370928227800,7.544227783203125,-0.22206050157546997,-0.4069722890853882,-0.9327079653739929
1789453370938169000,7.554169189453125,-0.21404170989990234,-0.32297831773757935,-0.894527018070221
1789453370948108800,7.56410888671875,-0.17971383035182953,-0.31130462884902954,-0.8400592803955078
1789453370958050000,7.574050048828125,-0.16353273391723633,-0.2006196528673172,-0.7585508227348328
1789453370967990800,7.58399072265625,-0.12960699200630188,-0.15920349955558777,-0.7033312320709229
1789453370977932000,7.59393212890625,-0.13552241027355194,-0.03423174098134041,-0.6580636501312256
1789453370987872800,7.603872802734375,-0.1668822020292282,0.051541753113269806,-0.6053999066352844
1789453370997814000,7.61381396484375,-0.17208680510520935,0.18978351354599,-0.5980091094970703
1789453371007755000,7.623755126953125,-0.1409480720758438,0.19872374832630157,-0.6346057057380676
1789453371017696000,7.633696044921875,-0.17760701477527618,0.28689807653427124,-0.5954601764678955
1789453371027637000,7.643636962890625,-0.16859647631645203,0.24390746653079987,-0.4530705511569977
1789453371037577000,7.653576904296875,-0.13553199172019958,0.2223832756280899,-0.31820300221443176
1789453371047518000,7.66351806640625,-0.08520464599132538,0.2848977744579315,-0.2630353569984436
1789453371057459000,7.673458984375,-0.015080948360264301,0.34202897548675537,-0.24913924932479858
1789453371067400000,7.68339990234375,0.02701031230390072,0.3779395818710327,-0.23443754017353058
1789453371077341000,7.6933408203125,0.03910665586590767,0.359801322221756,-0.1753300130367279
1789453371087282000,7.703281982421875,0.035481296479701996,0.3247796893119812,-0.11377823352813721
1789453371097223200,7.71322314453125,0.006311691831797361,0.33866485953330994,-0.043947748839855194
1789453371107164000,7.723163818359375,-0.007123423274606466,0.2772334814071655,0.00404507527127862
1789453371117105000,7.73310498046875,0.03359684348106384,0.240030437707901,0.04350806400179863
1789453371127046000,7.7430458984375,0.05976133421063423,0.18510913848876953,0.07254663854837418
1789453371136987000,7.75298681640625,0.06186842918395996,0.1237855926156044,0.1327980011701584
1789453371146926800,7.7629267578125,0.08757352083921432,0.12183082848787308,0.20912764966487885
1789453371156868000,7.7728681640625,0.11049322038888931,0.07363080978393555,0.2614625096321106
1789453371166808800,7.782808837890625,0.11615829914808273,0.10116922855377197,0.3345779776573181
1789453371176749800,7.792749755859375,0.1804848164319992,0.1301785111427307,0.39628714323043823
1789453371186691000,7.802691162109375,0.2542820870876312,0.1348254531621933,0.4239124059677124
1789453371196631800,7.8126318359375,0.28917163610458374,0.21020463109016418,0.4874383807182312
1789453371206573000,7.822572998046875,0.31726157665252686,0.2240877002477646,0.5809177160263062
1789453371216513800,7.832513671875,0.3302386403083801,0.17471268773078918,0.686578094959259
1789453371226455000,7.842455078125,0.33668214082717896,0.17156189680099487,0.7740626931190491
1789453371236395800,7.852395751953125,0.36989790201187134,0.11124502867460251,0.8069314360618591
1789453371246337000,7.8623369140625,0.39677825570106506,0.037511955946683884,0.8620756268501282
1789453371256276700,7.87227685546875,0.4350292384624481,-0.02925136312842369,0.9409241080284119
1789453371266218000,7.882218017578125,0.49642786383628845,-0.033477265387773514,0.9963958859443665
1789453371276159000,7.892158935546875,0.5639099478721619,-0.0018442390719428658,1.0440137386322021
1789453371286100000,7.902099853515625,0.6094633340835571,0.02900581806898117,1.1204134225845337
1789453371296041000,7.912041015625,0.6400854587554932,0.021585186943411827,1.1893118619918823
1789453371305982000,7.92198193359375,0.6406772136688232,-0.03711248189210892,1.223889708518982
1789453371315923000,7.9319228515625,0.6108236908912659,-0.047798413783311844,1.2707507610321045
1789453371325864000,7.941864013671875,0.5880483388900757,-0.09358561038970947,1.2600693702697754
1789453371335805000,7.951804931640625,0.5683638453483582,-0.08692557364702225,1.2143285274505615
1789453371345746000,7.961745849609375,0.5740893483161926,-0.08437293767929077,1.204511284828186
1789453371355687000,7.97168701171875,0.5938599109649658,-0.12512223422527313,1.2634185552597046
1789453371365627100,7.981627197265625,0.6234310865402222,-0.15133225917816162,1.2509187459945679
1789453371375568000,7.99156787109375,0.6315598487854004,-0.1799418032169342,1.22178316116333
1789453371385509000,8.001509033203124,0.6493076682090759,-0.209134042263031,1.2022955417633057
1789453371395449900,8.011449951171874,0.6782293319702148,-0.2174369841814041,1.147071123123169
1789453371405391000,8.02139111328125,0.7032846212387085,-0.2379201501607895,1.0825235843658447
1789453371415331800,8.031331787109375,0.645251452922821,-0.24700500071048737,1.0518367290496826
1789453371425272800,8.04127294921875,0.6083632111549377,-0.20958305895328522,1.0239843130111694
1789453371435214000,8.051214111328125,0.5995841026306152,-0.2783980667591095,1.0091992616653442
1789453371445154800,8.06115478515625,0.6121225357055664,-0.2840554118156433,1.0296941995620728
1789453371455096000,8.071095947265626,0.6650842428207397,-0.17304500937461853,1.0663858652114868
1789453371465036800,8.081036865234376,0.7122198343276978,-0.18988950550556183,1.0715947151184082
1789453371474978000,8.09097802734375,0.7494545578956604,-0.2642146050930023,1.051487922668457
1789453371484917800,8.100917724609374,0.7307767271995544,-0.2619495987892151,1.0323677062988281
1789453371494859000,8.11085888671875,0.72871333360672,-0.33744460344314575,1.0299104452133179
1789453371504799700,8.1207998046875,0.7155833840370178,-0.3198712170124054,1.0221574306488037
1789453371514741000,8.130740966796875,0.6805723905563354,-0.22014887630939484,1.0389782190322876
1789453371524682000,8.140681884765625,0.6338600516319275,-0.15333549678325653,1.0710242986679077
1789453371534623000,8.150623046875,0.6039519309997559,-0.14933888614177704,1.0787184238433838
1789453371544564000,8.16056396484375,0.5425959229469299,-0.12208862602710724,1.0355409383773804
1789453371554505000,8.1705048828125,0.49089381098747253,-0.12904612720012665,0.9762565493583679
1789453371564446000,8.180446044921876,0.471575528383255,-0.117857925593853,0.9491588473320007
1789453371574387000,8.190386962890624,0.44195103645324707,-0.10619141906499863,0.9291942119598389
1789453371584328000,8.200327880859374,0.42552998661994934,-0.1864558905363083,0.9225413799285889
1789453371594269000,8.21026904296875,0.3679351508617401,-0.23816916346549988,0.9052582383155823
1789453371604210000,8.2202099609375,0.30764997005462646,-0.24793151021003723,0.872774600982666
1789453371614150100,8.230150146484375,0.2956731915473938,-0.25185248255729675,0.8950743079185486
1789453371624091000,8.2400908203125,0.25594842433929443,-0.19125224649906158,0.8743088841438293
1789453371634032000,8.2500322265625,0.2353542000055313,-0.15730972588062286,0.8828344345092773
1789453371643972900,8.259972900390625,0.2457149624824524,-0.13449469208717346,0.8969662189483643
1789453371653913900,8.269913818359376,0.19680361449718475,-0.04682449623942375,0.8614463210105896
1789453371663854800,8.279854736328126,0.19169673323631287,0.004762797150760889,0.8252907395362854
1789453371673795800,8.2897958984375,0.1897353082895279,-0.05296681076288223,0.7918283343315125
1789453371683737000,8.299737060546875,0.14775483310222626,-0.03564321622252464,0.7601423263549805
1789453371693677800,8.309677734375,0.07541432976722717,0.05794985219836235,0.7172694206237793
1789453371703619000,8.319619140625,0.03117496334016323,0.08235026895999908,0.6764213442802429
1789453371713559800,8.329559814453125,0.008459264412522316,0.07147018611431122,0.6071522831916809
1789453371723501000,8.3395009765625,0.016635170206427574,0.0013909690314903855,0.5171805620193481
1789453371733442000,8.349442138671876,0.019160378724336624,-0.03892236575484276,0.42544078826904297
1789453371743382000,8.359382080078126,0.054838746786117554,-0.004622182343155146,0.35421639680862427
1789453371753322800,8.36932275390625,0.05239902436733246,0.03816256672143936,0.2796737253665924
1789453371763264000,8.379263916015624,-0.01617950201034546,-0.0032977922819554806,0.20248626172542572
1789453371773204000,8.389203857421874,-0.04345107078552246,-0.02021738700568676,0.16125120222568512
1789453371783145200,8.399145263671874,-0.11530235409736633,-0.07081878185272217,0.1359085589647293
1789453371793086000,8.4090859375,-0.1658155918121338,-0.10932063311338425,0.11253000795841217
1789453371803027200,8.419027099609375,-0.20745758712291718,-0.12837821245193481,0.07188431173563004
1789453371812968000,8.428968017578125,-0.2580919861793518,-0.06568872928619385,-0.008016914129257202
1789453371822909200,8.4389091796875,-0.28668689727783203,-0.0025651566684246063,-0.07677201181650162
1789453371832850000,8.448849853515625,-0.3054898679256439,0.003498062025755644,-0.13538898527622223
1789453371842791200,8.458791259765626,-0.3201998472213745,0.045711029320955276,-0.18777069449424744
1789453371852732200,8.468732177734376,-0.34491637349128723,0.09354619681835175,-0.23422367870807648
1789453371862673200,8.478673095703124,-0.3517268896102905,0.1761326789855957,-0.2750198543071747
1789453371872614100,8.4886142578125,-0.3957934081554413,0.22144876420497894,-0.3227381110191345
1789453371882554000,8.49855419921875,-0.4190678298473358,0.178911954164505,-0.3541775047779083
1789453371892495000,8.5084951171875,-0.39301493763923645,0.12114346772432327,-0.3950138986110687
1789453371902436000,8.51843603515625,-0.4269276261329651,0.06319867819547653,-0.42383435368537903
1789453371912377000,8.528377197265625,-0.4406767189502716,0.062183212488889694,-0.4487855136394501
1789453371922318000,8.538318115234375,-0.4296128749847412,0.10016335546970367,-0.46849051117897034
1789453371932259000,8.548259033203125,-0.4007021486759186,0.13546861708164215,-0.5008953213691711
1789453371942200000,8.558199951171876,-0.37189045548439026,0.16102616488933563,-0.5418670177459717
1789453371952141000,8.56814111328125,-0.35957175493240356,0.1754208207130432,-0.5883801579475403
1789453371962082000,8.57808203125,-0.3514200747013092,0.22884969413280487,-0.6309806108474731
1789453371972023000,8.58802294921875,-0.32644814252853394,0.28049159049987793,-0.6400135159492493
1789453371981964000,8.597964111328125,-0.3012365400791168,0.2800644040107727,-0.6283936500549316
1789453371991905000,8.607905029296875,-0.2764137387275696,0.24927453696727753,-0.6236563920974731
1789453372001846000,8.617845947265625,-0.2802867889404297,0.2157309651374817,-0.6649452447891235
1789453372011787300,8.627787353515625,-0.27838873863220215,0.14854925870895386,-0.7364005446434021
1789453372021728000,8.63772802734375,-0.29830971360206604,0.1431715339422226,-0.759649932384491
1789453372031668200,8.647668212890625,-0.29524070024490356,0.15833477675914764,-0.7437681555747986
1789453372041609000,8.65760888671875,-0.28467488288879395,0.19484645128250122,-0.7274048924446106
1789453372051550200,8.66755029296875,-0.2500508427619934,0.24980823695659637,-0.7037656307220459
1789453372061491000,8.677490966796874,-0.22909124195575714,0.24107812345027924,-0.6935606598854065
1789453372071432200,8.68743212890625,-0.23366495966911316,0.1525152325630188,-0.7148760557174683
1789453372081373000,8.697373046875,-0.2857401371002197,0.06949465721845627,-0.7489339113235474
1789453372091314200,8.707314208984375,-0.2934688925743103,0.10917335748672485,-0.7385052442550659
1789453372101255200,8.717255126953125,-0.33763423562049866,0.19908194243907928,-0.7231283783912659
1789453372111196200,8.727196044921875,-0.38076066970825195,0.2562011480331421,-0.714447557926178
1789453372121137200,8.73713720703125,-0.41434285044670105,0.25231826305389404,-0.7413984537124634
1789453372131078000,8.747077880859376,-0.4747753143310547,0.2309221625328064,-0.7622869610786438
1789453372141019100,8.75701904296875,-0.4511258900165558,0.18457357585430145,-0.747927188873291
1789453372150959900,8.7669599609375,-0.4450671970844269,0.13498418033123016,-0.7533872127532959
1789453372160901000,8.776901123046875,-0.42196694016456604,0.08492634445428848,-0.7651525139808655
1789453372170842000,8.786842041015625,-0.3782738149166107,0.04361565411090851,-0.7691936492919922
1789453372180783000,8.796783203125,-0.3648586571216583,0.010311493650078773,-0.7661099433898926
1789453372190723000,8.80672314453125,-0.397837370634079,0.028388764709234238,-0.7901386022567749
1789453372200664000,8.8166640625,-0.4927889406681061,0.08000694960355759,-0.8252134919166565
1789453372210605000,8.82660498046875,-0.5735586285591125,0.10054711252450943,-0.849319338798523
1789453372220546000,8.836546142578126,-0.6347487568855286,0.07949215918779373,-0.8742944598197937
1789453372230487000,8.846487060546876,-0.634880006313324,0.027727501466870308,-0.8685987591743469
1789453372240428000,8.856427978515624,-0.5965715050697327,0.005936185829341412,-0.8506237864494324
1789453372250369000,8.866369140625,-0.46470510959625244,-0.04878325015306473,-0.8490937948226929
1789453372260310300,8.876310302734375,-0.37666499614715576,-0.11513617634773254,-0.8831210136413574
1789453372270251000,8.8862509765625,-0.34767061471939087,-0.18606041371822357,-0.9197631478309631
1789453372280192300,8.896192138671875,-0.3646242916584015,-0.14919880032539368,-0.9558076858520508
1789453372290133000,8.906133056640625,-0.44139283895492554,-0.03905472531914711,-0.9724327325820923
1789453372300074000,8.916073974609375,-0.4870671331882477,0.07107417285442352,-0.9544143676757812
1789453372310015000,8.926014892578126,-0.47584429383277893,0.1466301828622818,-0.9563382267951965
1789453372319956000,8.9359560546875,-0.4091496765613556,0.051177166402339935,-0.9307811856269836
1789453372329897200,8.945897216796874,-0.5081948041915894,0.011426558718085289,-0.8358733057975769
1789453372339838000,8.955837890625,-0.42153313755989075,-0.16507071256637573,-1.0363792181015015
1789453372349779200,8.965779296875,-0.3401682376861572,-0.24825827777385712,-1.0364242792129517
1789453372359719000,8.975718994140625,-0.32875657081604004,-0.18184037506580353,-1.0147227048873901
1789453372369660200,8.98566015625,-0.31716516613960266,-0.10406994074583054,-1.044028639793396
1789453372379601000,8.995600830078125,-0.28437793254852295,-0.1542351096868515,-1.0817373991012573
1789453372389542100,9.005542236328125,-0.2928084433078766,-0.18279750645160675,-1.0527840852737427
1789453372399483000,9.01548291015625,-0.3549639582633972,-0.09429747611284256,-1.045758605003357
1789453372409424100,9.025424072265626,-0.3943944573402405,-0.13198599219322205,-1.0592355728149414
1789453372419365000,9.035365234375,-0.3467928469181061,-0.14957590401172638,-1.1034610271453857
1789453372429306000,9.04530615234375,-0.23979341983795166,-0.2782214879989624,-1.1351361274719238
1789453372439247000,9.0552470703125,-0.16836558282375336,-0.32348617911338806,-1.0232267379760742
1789453372449188000,9.06518798828125,-0.1096591204404831,-0.2139224112033844,-0.9360523819923401
1789453372459129000,9.075129150390625,-0.04573925957083702,-0.14802834391593933,-0.8852722644805908
1789453372469070000,9.085070068359375,-0.03912236914038658,-0.1737704575061798,-0.8718909621238708
1789453372479011000,9.095010986328125,-0.10673656314611435,-0.17057786881923676,-0.8017659187316895
1789453372488952000,9.1049521484375,-0.1647612601518631,-0.18719971179962158,-0.7379379868507385
1789453372498893000,9.11489306640625,-0.20647035539150238,-0.16767928004264832,-0.6763744950294495
1789453372508834000,9.124833984375,-0.1805681735277176,-0.08462300896644592,-0.6484996676445007
1789453372518775000,9.134775146484374,-0.10187762975692749,0.014605840668082237,-0.6333588361740112
1789453372528716000,9.144716064453124,0.017678862437605858,0.10319456458091736,-0.6294714212417603
1789453372538656000,9.154656005859374,0.10705001652240753,0.22057418525218964,-0.624556303024292
1789453372548597000,9.164596923828125,0.10852514207363129,0.3847002685070038,-0.6007119417190552
1789453372558538000,9.1745380859375,0.02846572920680046,0.45308011770248413,-0.5117181539535522
1789453372568479000,9.18447900390625,-0.017837585881352425,0.32798320055007935,-0.39276832342147827
1789453372578420200,9.194420166015625,-0.05640202388167381,0.29785487055778503,-0.2803850471973419
1789453372588361000,9.20436083984375,-0.07228724658489227,0.22281843423843384,-0.20600536465644836
1789453372598302200,9.21430224609375,-0.07124941051006317,0.22167620062828064,-0.1921641081571579
1789453372608243000,9.224242919921876,-0.06331079453229904,0.21299083530902863,-0.18403668701648712
1789453372618184200,9.23418408203125,-0.05867636203765869,0.21430909633636475,-0.1396218091249466
1789453372628125200,9.244125244140625,-0.020291157066822052,0.21666093170642853,-0.07008694112300873
1789453372638066200,9.254066162109375,0.02960902452468872,0.2157256305217743,-0.005601160228252411
1789453372648007200,9.264007080078125,0.03876017779111862,0.1878623068332672,0.050810717046260834
1789453372657948000,9.273947998046875,0.02917599491775036,0.1247701644897461,0.12346681207418442
1789453372667889200,9.28388916015625,0.02671976201236248,0.07612193375825882,0.20780806243419647
1789453372677830000,9.293829833984375,0.05475512519478798,0.09172485768795013,0.2931272089481354
1789453372687771100,9.303771240234376,0.07881039381027222,0.09042337536811829,0.3586553633213043
1789453372697712000,9.313712158203124,0.09323807060718536,0.05108928307890892,0.4267214834690094
1789453372707653000,9.323653076171874,0.11835407465696335,-0.02345872111618519,0.49337348341941833
1789453372717593000,9.333593017578124,0.16008047759532928,-0.06121169030666351,0.5633422136306763
1789453372727534000,9.3435341796875,0.20550867915153503,-0.098777174949646,0.6498182415962219
1789453372737475000,9.35347509765625,0.23484739661216736,-0.10778292268514633,0.7531688213348389
1789453372747416000,9.363416015625,0.2658226191997528,-0.1250644475221634,0.8231351375579834
1789453372757357000,9.373357177734375,0.2995472848415375,-0.11548904329538345,0.888248085975647
1789453372767298300,9.38329833984375,0.31766319274902344,-0.06530497223138809,0.9748690128326416
1789453372777239000,9.393239013671876,0.3162756860256195,0.0025153555907309055,1.0769927501678467
1789453372787180300,9.40318017578125,0.3718249499797821,0.02335379272699356,1.1594865322113037
1789453372797121300,9.413121337890624,0.41961538791656494,0.020248811691999435,1.2089321613311768
1789453372807062300,9.423062255859374,0.46146297454833984,0.006656038574874401,1.259606957435608
1789453372817003300,9.433003173828125,0.5021861791610718,0.06537820398807526,1.277142882347107
1789453372826944000,9.442944091796875,0.5558145046234131,0.07009067386388779,1.3017925024032593
1789453372836885200,9.45288525390625,0.6084784865379333,0.05209276080131531,1.3086376190185547
1789453372846826200,9.462826171875,0.6299073696136475,0.06027665734291077,1.315925121307373
1789453372856767200,9.472767333984375,0.6296831369400024,-0.007192665245383978,1.367408275604248
1789453372866708200,9.482708251953126,0.6442974805831909,0.021574268117547035,1.361371397972107
1789453372876649200,9.492649169921876,0.6999484896659851,-0.03569700941443443,1.3019347190856934
1789453372886590200,9.502590087890624,0.7190036773681641,-0.06154778227210045,1.3257306814193726
1789453372896531200,9.51253125,0.7456992268562317,-0.06682191044092178,1.3594499826431274
1789453372906472200,9.52247216796875,0.7639591693878174,-0.09427750110626221,1.288428783416748
1789453372916413200,9.5324130859375,0.7803597450256348,-0.06543440371751785,1.2013695240020752
1789453372926353200,9.542353271484375,0.7976343035697937,-0.1100711077451706,1.144445538520813
1789453372936294400,9.55229443359375,0.8418174982070923,-0.12864986062049866,1.1436058282852173
1789453372946235100,9.562235107421875,0.7894179224967957,-0.11183439195156097,1.1610639095306396
1789453372956176400,9.57217626953125,0.6960046291351318,-0.1336403489112854,1.1270558834075928
1789453372966117000,9.5821171875,0.6388584971427917,-0.18906180560588837,1.0909160375595093
1789453372976058400,9.592058349609376,0.5996969938278198,-0.20680217444896698,1.020415186882019
1789453372985999000,9.6019990234375,0.6228971481323242,-0.24900315701961517,0.9624216556549072
1789453372995940000,9.611940185546874,0.6193207502365112,-0.15100602805614471,0.8986656069755554
1789453373005881300,9.62188134765625,0.6378864645957947,-0.17131982743740082,0.8864366412162781
1789453373015822000,9.631822021484375,0.6211921572685242,-0.2295548915863037,0.899448037147522
1789453373025763300,9.641763427734375,0.6349660158157349,-0.37443217635154724,0.896828830242157
1789453373035704000,9.6517041015625,0.6560186147689819,-0.49871551990509033,0.8750278949737549
1789453373045645300,9.661645263671875,0.6684451699256897,-0.5047475695610046,0.8398811221122742
1789453373055586000,9.6715859375,0.6943113803863525,-0.44462963938713074,0.831978976726532
1789453373065527300,9.68152734375,0.6892106533050537,-0.32563668489456177,0.8264510631561279
1789453373075468300,9.69146826171875,0.633235514163971,-0.1813298463821411,0.8474404811859131
1789453373085409300,9.7014091796875,0.5765525102615356,-0.10700900852680206,0.8862901329994202
1789453373095350300,9.711350341796875,0.5297730565071106,-0.08341073989868164,0.9071171283721924
1789453373105291000,9.721291015625,0.527208685874939,-0.09363195300102234,0.9565150737762451
1789453373115231200,9.731231201171875,0.5247418284416199,-0.1259789764881134,1.011383056640625
1789453373125172200,9.741172119140625,0.5660786032676697,-0.14158083498477936,1.067692756652832
1789453373135113200,9.75111328125,0.5706693530082703,-0.1409190446138382,1.0876288414001465
1789453373145054200,9.76105419921875,0.4876021444797516,-0.1811540722846985,1.1114516258239746
1789453373154995200,9.7709951171875,0.38730618357658386,-0.187448188662529,1.1019926071166992
1789453373164936200,9.780936279296874,0.2638010084629059,-0.11059229075908661,1.0386348962783813
1789453373174877200,9.790877197265624,0.18104727566242218,-0.04327983036637306,0.9976920485496521
1789453373184818200,9.800818115234375,0.15866607427597046,-0.0683116763830185,0.9413235783576965
1789453373194759200,9.81075927734375,0.21205340325832367,-0.1641756296157837,0.9091810584068298
1789453373204700200,9.8207001953125,0.1813916265964508,-0.10412134230136871,0.8127461671829224
1789453373214641200,9.83064111328125,0.11076726019382477,-0.015447932295501232,0.763008713722229
1789453373224582100,9.84058203125,0.02472265623509884,0.03446529805660248,0.71220862865448
1789453373234523400,9.8505234375,-0.030661772936582565,0.06598833948373795,0.6231272220611572
1789453373244464000,9.860464111328126,-0.017915351316332817,0.07466491311788559,0.5291410684585571
1789453373254405400,9.8704052734375,-0.02075241692364216,0.02371305227279663,0.42702776193618774
1789453373264346000,9.88034619140625,-0.023427294567227364,-0.03133741766214371,0.3301704525947571
1789453373274287000,9.890287109375,0.011499263346195221,-0.03876364231109619,0.24796932935714722
1789453373284228000,9.90022802734375,-0.06443838030099869,-0.11789494752883911,0.17008757591247559
1789453373294169000,9.910169189453125,-0.09702534973621368,-0.17473585903644562,0.08597642928361893
1789453373304110300,9.9201103515625,-0.13724760711193085,-0.1863112896680832,-0.0012175972806289792
1789453373314050300,9.93005029296875,-0.18615123629570007,-0.07168377190828323,-0.10814404487609863
1789453373323991300,9.9399912109375,-0.24850408732891083,0.029211681336164474,-0.19320620596408844
1789453373333932300,9.949932373046876,-0.2859097719192505,0.0664256289601326,-0.2704687714576721
1789453373343873300,9.959873291015626,-0.34072455763816833,0.12006701529026031,-0.3329603672027588
1789453373353814000,9.96981396484375,-0.3911520540714264,0.1864311248064041,-0.37638935446739197
1789453373363755300,9.97975537109375,-0.40884050726890564,0.27679938077926636,-0.3814765214920044
1789453373373696000,9.989696044921875,-0.4275497496128082,0.32959574460983276,-0.37056368589401245
1789453373383637200,9.99963720703125,-0.4236617982387543,0.28933432698249817,-0.3815220594406128
1789453373393578200,10.009578125,-0.4084239900112152,0.22954636812210083,-0.4190923273563385
1789453373403519200,10.019519287109375,-0.37192827463150024,0.19168154895305634,-0.4464688301086426
1789453373413460200,10.029460205078125,-0.2853587865829468,0.18231521546840668,-0.4599268436431885
1789453373423401200,10.039401123046876,-0.3638104498386383,0.1449505239725113,-0.4552612602710724
1789453373433342200,10.04934228515625,-0.3540821671485901,0.13462571799755096,-0.46793442964553833
1789453373443283200,10.059283203125,-0.3316671550273895,0.10317618399858475,-0.4887204170227051
1789453373453224200,10.06922412109375,-0.3441624343395233,0.09674865007400513,-0.5320050120353699
1789453373463165200,10.079165283203125,-0.33456945419311523,0.11597134172916412,-0.5643808245658875
1789453373473106200,10.089106201171875,-0.3171129822731018,0.14800570905208588,-0.5884523391723633
1789453373483047200,10.099047119140625,-0.2879771888256073,0.1651356965303421,-0.598781943321228
1789453373492988200,10.10898828125,-0.24552534520626068,0.21572430431842804,-0.5696698427200317
1789453373502929200,10.11892919921875,-0.1907968521118164,0.2499919980764389,-0.5510817766189575
1789453373512870400,10.128870361328126,-0.17077679932117462,0.30210793018341064,-0.5531556010246277
1789453373522811100,10.13881103515625,-0.19742199778556824,0.36376169323921204,-0.5931144952774048
1789453373532751000,10.148751220703126,-0.2364138662815094,0.3637300133705139,-0.6660177111625671
1789453373542692000,10.158692138671874,-0.2609144151210785,0.36445358395576477,-0.7853046655654907
1789453373552633300,10.16863330078125,-0.27183738350868225,0.40723860263824463,-0.8269815444946289
1789453373562574000,10.178573974609375,-0.3005523681640625,0.43048641085624695,-0.8390811085700989
1789453373572515300,10.188515380859375,-0.28426554799079895,0.40077245235443115,-0.854242205619812
1789453373582456000,10.1984560546875,-0.26651132106781006,0.31779128313064575,-0.8000814914703369
1789453373592397300,10.208397216796875,-0.2531401216983795,0.229552760720253,-0.7433061003684998
1789453373602338300,10.21833837890625,-0.2165144681930542,0.15687936544418335,-0.6843026876449585
1789453373612279300,10.228279296875,-0.20509110391139984,0.08403737843036652,-0.6516371369361877
1789453373622220300,10.23822021484375,-0.26144278049468994,0.08904039114713669,-0.6805753111839294
1789453373632161000,10.2481611328125,-0.32458049058914185,0.11114969104528427,-0.7330276370048523
1789453373642102300,10.258102294921875,-0.41819459199905396,0.20697155594825745,-0.8139099478721619
1789453373652043000,10.26804296875,-0.42932847142219543,0.3439357876777649,-0.8656951189041138
1789453373661984300,10.277984375,-0.42128118872642517,0.38340651988983154,-0.9544231295585632
1789453373671925200,10.28792529296875,-0.4064362049102783,0.34691321849823,-0.9756842255592346
1789453373681866200,10.2978662109375,-0.39726534485816956,0.25344905257225037,-0.9555027484893799
1789453373691807200,10.30780712890625,-0.3976443111896515,0.17935962975025177,-0.9495506286621094
1789453373701748200,10.317748291015626,-0.420619934797287,0.18695683777332306,-0.9149497747421265
1789453373711689200,10.327689208984374,-0.4618688225746155,0.187747523188591,-0.8981643915176392
1789453373721630200,10.337630126953124,-0.4508305490016937,0.21343638002872467,-0.8698201179504395
1789453373731571200,10.3475712890625,-0.47028815746307373,0.21859359741210938,-0.8874411582946777
1789453373741511200,10.35751123046875,-0.43010956048965454,0.06004016846418381,-0.9850625395774841
1789453373751452200,10.3674521484375,-0.44165995717048645,-0.08269035071134567,-1.0477488040924072
1789453373761393400,10.377393310546875,-0.45968982577323914,-0.15759362280368805,-1.070849895477295
1789453373771334000,10.387333984375,-0.47352227568626404,-0.11147379875183105,-1.0825976133346558
1789453373781275000,10.39727490234375,-0.49436765909194946,0.009640377014875412,-1.0638716220855713
1789453373791215900,10.4072158203125,-0.5307642817497253,0.07125899940729141,-1.0526037216186523
1789453373801156900,10.417156982421876,-0.5513331890106201,0.0834144651889801,-1.0281641483306885
1789453373811097900,10.427097900390624,-0.5224629044532776,0.048290301114320755,-1.0396957397460938
1789453373821038800,10.437038818359374,-0.5169387459754944,-0.06665359437465668,-1.0541465282440186
1789453373830979800,10.446979736328124,-0.507103443145752,-0.1515706181526184,-1.069432258605957
1789453373840920800,10.4569208984375,-0.4880802035331726,-0.165555939078331,-1.0611048936843872
1789453373850861800,10.46686181640625,-0.44226664304733276,-0.21936005353927612,-1.0541130304336548
1789453373860802800,10.476802734375,-0.3703700602054596,-0.20303566753864288,-1.0300427675247192
1789453373870743800,10.486743896484375,-0.26631343364715576,-0.29667508602142334,-1.0307916402816772
1789453373880684800,10.496684814453126,-0.24972088634967804,-0.344637006521225,-1.066223382949829
1789453373890625800,10.506625732421876,-0.3260204493999481,-0.4437606632709503,-1.153119444847107
1789453373900566800,10.51656689453125,-0.43458420038223267,-0.4253992438316345,-1.2279385328292847
1789453373910508000,10.526508056640624,-0.4988050162792206,-0.42195817828178406,-1.221019983291626
1789453373920448800,10.53644873046875,-0.5006769299507141,-0.4462991952896118,-1.2044495344161987
1789453373930389800,10.5463896484375,-0.41459745168685913,-0.48583436012268066,-1.127254843711853
1789453373940330800,10.556330810546875,-0.2967675030231476,-0.451703280210495,-1.0542436838150024
1789453373950271700,10.566271728515625,-0.19731253385543823,-0.3770916163921356,-0.9824691414833069
1789453373960213000,10.576212890625,-0.14109374582767487,-0.2892637550830841,-0.9044893980026245
1789453373970153700,10.58615380859375,-0.18196314573287964,-0.1542241871356964,-0.8355244398117065
1789453373980093700,10.59609375,-0.2682170569896698,-0.09347109496593475,-0.7843558192253113
1789453373990035000,10.606034912109376,-0.3001156151294708,-0.11780785769224167,-0.7514042258262634
1789453373999976000,10.615975830078124,-0.2957285940647125,-0.13061180710792542,-0.7190955877304077
1789453374009916700,10.625916748046874,-0.2747953534126282,-0.03863953799009323,-0.7146505117416382
1789453374019858000,10.63585791015625,-0.2868048846721649,0.2074410766363144,-0.8057729601860046
1789453374029798700,10.645798583984375,-0.268719881772995,0.4371728003025055,-0.7896831631660461
1789453374039740000,10.655739990234375,-0.1400306075811386,0.28362610936164856,-0.6069487929344177
1789453374049680600,10.6656806640625,-0.09468469768762589,0.2890975773334503,-0.4046652019023895
1789453374059622000,10.675621826171875,-0.08757432550191879,0.3816043436527252,-0.2827281057834625
1789453374069563000,10.68556298828125,-0.06480429321527481,0.37400928139686584,-0.21581591665744781
1789453374079504000,10.69550390625,-0.08013159036636353,0.34039539098739624,-0.11694126576185226
1789453374089444900,10.70544482421875,-0.11577613651752472,0.320724219083786,-0.023898674175143242
1789453374099385900,10.7153857421875,-0.1289566457271576,0.21621859073638916,0.01828393153846264
1789453374109326800,10.725326904296875,-0.09613585472106934,0.1728079915046692,0.04195703566074371
1789453374119267800,10.735267822265625,-0.03952370584011078,0.12688124179840088,0.07700183987617493
1789453374129208800,10.745208740234375,-0.003640541108325124,0.08873652666807175,0.152068093419075
1789453374139149800,10.75514990234375,0.010995126329362392,0.10684682428836823,0.24319161474704742
1789453374149090800,10.7650908203125,0.025947444140911102,0.07232213020324707,0.34555181860923767
1789453374159031800,10.77503173828125,-0.016031963750720024,0.05925799533724785,0.47107723355293274
1789453374168972800,10.784972900390626,-0.023395869880914688,0.031033549457788467,0.6071911454200745
1789453374178913800,10.794913818359374,-0.022045647725462914,0.019266905263066292,0.6805633306503296
1789453374188855000,10.80485498046875,-0.014593590050935745,-0.033417876809835434,0.7191935777664185
1789453374198795800,10.814795654296875,0.018217086791992188,-0.04520902410149574,0.770331084728241
1789453374208736000,10.824736083984375,0.042155444622039795,-0.042927227914333344,0.8254174590110779
1789453374218676700,10.8346767578125,0.11576681584119797,0.011891546659171581,0.8920556306838989
1789453374228618000,10.844617919921875,0.2133149355649948,0.037701837718486786,0.9416050910949707
1789453374238558700,10.854558837890625,0.3355460464954376,0.05446430668234825,0.9833495616912842
1789453374248500000,10.8645,0.4159058630466461,0.05956985428929329,1.0223907232284546
1789453374258440700,10.874440673828126,0.4440930187702179,0.04086647182703018,1.0644601583480835
1789453374268382000,10.8843818359375,0.47633618116378784,-0.01236505713313818,1.0543733835220337
1789453374278323000,10.894322998046874,0.5027515292167664,-0.0205747839063406,1.040283441543579
1789453374288263700,10.904263671875,0.49661216139793396,0.026223082095384598,1.0726754665374756
1789453374298205000,10.914204833984375,0.5305323004722595,0.015684420242905617,1.0971062183380127
1789453374308145700,10.924145751953125,0.6013545393943787,0.03837588429450989,1.0826090574264526
1789453374318087000,10.9340869140625,0.6937934160232544,0.07212719321250916,1.0675350427627563
1789453374328027600,10.944027587890625,0.7823483347892761,0.10113220661878586,1.0641059875488281
1789453374337969000,10.953968994140626,0.8264371752738953,0.1423608660697937,1.065768837928772
1789453374347910000,10.963909912109376,0.8326959013938904,0.17228788137435913,1.085187554359436
1789453374357851000,10.973850830078124,0.8469448685646057,0.16647019982337952,1.1240137815475464
1789453374367791900,10.9837919921875,0.8518645167350769,0.12935079634189606,1.1456154584884644
1789453374377732900,10.99373291015625,0.8423181772232056,0.10145418345928192,1.1654781103134155
1789453374387673900,11.003673828125,0.8298044800758362,0.12361408025026321,1.1889477968215942
1789453374397614600,11.013614501953125,0.8336543440818787,0.11462005227804184,1.2218774557113647
1789453374407555800,11.023555908203125,0.8412712812423706,0.0618031807243824,1.2294485569000244
1789453374417496800,11.033496826171875,0.839897096157074,-0.041781000792980194,1.2417036294937134
1789453374427437800,11.043437744140626,0.8290140628814697,-0.1523253619670868,1.2218068838119507
1789453374437378000,11.0533779296875,0.8061007857322693,-0.26973026990890503,1.2298616170883179
1789453374447318800,11.06331884765625,0.7793224453926086,-0.3371924161911011,1.2125282287597656
1789453374457259800,11.073259765625,0.73731929063797,-0.41534900665283203,1.1931582689285278
1789453374467200800,11.08320068359375,0.7288779020309448,-0.38543185591697693,1.1467739343643188
1789453374477141800,11.093141845703125,0.7338971495628357,-0.4090905785560608,1.1431264877319336
1789453374487082800,11.103082763671875,0.7275093197822571,-0.40029627084732056,1.1624457836151123
1789453374497023700,11.113023681640625,0.6799558997154236,-0.3563791513442993,1.1291205883026123
1789453374506965000,11.122965087890625,0.6057626008987427,-0.33928513526916504,1.1119887828826904
1789453374516905700,11.13290576171875,0.5704892873764038,-0.27656474709510803,1.0730677843093872
1789453374526847000,11.142846923828126,0.5487885475158691,-0.3173401355743408,1.0675462484359741
1789453374536787700,11.15278759765625,0.5664111971855164,-0.36873382329940796,1.0808165073394775
1789453374546729000,11.16272900390625,0.5617786645889282,-0.34386974573135376,1.0732682943344116
1789453374556669700,11.172669677734374,0.4931545853614807,-0.2475067377090454,1.0818367004394531
1789453374566610700,11.182610595703125,0.46777331829071045,-0.22963745892047882,1.1279795169830322
1789453374576552000,11.192552001953125,0.48995184898376465,-0.32352587580680847,1.1664597988128662
1789453374586492700,11.20249267578125,0.5015848278999329,-0.3101986050605774,1.1285275220870972
1789453374596434000,11.212433837890625,0.4779796302318573,-0.2403297871351242,1.0977046489715576
1789453374606374700,11.222374755859375,0.4036523997783661,-0.24986761808395386,1.0803402662277222
1789453374616316000,11.23231591796875,0.3188432455062866,-0.2327166050672531,1.0714693069458008
1789453374626257000,11.2422568359375,0.2314329594373703,-0.1689876914024353,1.0288856029510498
1789453374636196900,11.25219677734375,0.19764091074466705,-0.1660078763961792,0.9874335527420044
1789453374646137600,11.2621376953125,0.18856272101402283,-0.14663657546043396,0.9317708015441895
1789453374656078800,11.272078857421874,0.19096888601779938,-0.13663773238658905,0.8776532411575317
1789453374666019800,11.282019775390625,0.18258285522460938,-0.12972284853458405,0.8285235166549683
1789453374675960800,11.2919609375,0.11625443398952484,-0.03236859291791916,0.7379224896430969
1789453374685901800,11.30190185546875,0.11257048696279526,0.055323176085948944,0.7011538743972778
1789453374695842800,11.3118427734375,0.07417462766170502,0.08635938912630081,0.6860926151275635
1789453374705783800,11.32178369140625,0.06307856738567352,0.11819241940975189,0.6348925232887268
1789453374715725000,11.33172509765625,0.05327387526631355,0.07299138605594635,0.556414783000946
1789453374725665800,11.341665771484376,-0.01871456578373909,0.055575642734766006,0.45467057824134827
1789453374735606800,11.351606689453124,-0.09044494479894638,0.022530077025294304,0.32620394229888916
1789453374745547800,11.3615478515625,-0.1083347275853157,0.0353313572704792,0.19028818607330322
1789453374755488800,11.37148876953125,-0.13436712324619293,0.032821863889694214,0.08361420035362244
1789453374765429800,11.3814296875,-0.19148500263690948,0.019159846007823944,0.011500062420964241
1789453374775370800,11.391370849609375,-0.24711790680885315,-0.0065045044757425785,-0.04465854912996292
1789453374785312000,11.40131201171875,-0.3012831509113312,-0.04159457981586456,-0.08683343231678009
1789453374795253000,11.4112529296875,-0.3563157618045807,-0.04921574890613556,-0.13336817920207977
1789453374805194000,11.421194091796876,-0.31599417328834534,0.01543754618614912,-0.19124293327331543
1789453374815135000,11.431135009765624,-0.41460704803466797,0.08754502981901169,-0.2540442645549774
1789453374825076000,11.441075927734374,-0.4273641109466553,0.13734161853790283,-0.30961936712265015
1789453374835017000,11.451016845703125,-0.41295748949050903,0.19464857876300812,-0.36869707703590393
1789453374844958000,11.4609580078125,-0.4377501904964447,0.2405122071504593,-0.4082047939300537
1789453374854899000,11.47089892578125,-0.4430916905403137,0.27351251244544983,-0.41541343927383423
1789453374864840000,11.48083984375,-0.46625372767448425,0.2691137492656708,-0.41094279289245605
1789453374874780000,11.49077978515625,-0.4535941183567047,0.2085297703742981,-0.4066343307495117
1789453374884721200,11.50072119140625,-0.43781808018684387,0.15645192563533783,-0.41099685430526733
1789453374894662000,11.510661865234376,-0.42119675874710083,0.09911566227674484,-0.4199970066547394
1789453374904603000,11.520602783203126,-0.38966652750968933,0.10678556561470032,-0.4509006142616272
1789453374914543900,11.5305439453125,-0.34791404008865356,0.12585806846618652,-0.48647430539131165
1789453374924484900,11.54048486328125,-0.3092031180858612,0.15009042620658875,-0.5097322463989258
1789453374934426000,11.550426025390625,-0.2766382396221161,0.19628243148326874,-0.5446734428405762
1789453374944366800,11.560366943359375,-0.27462518215179443,0.24805614352226257,-0.5809411406517029
1789453374954308000,11.57030810546875,-0.2577047646045685,0.318517804145813,-0.6005151271820068
1789453374964248800,11.580248779296875,-0.21218256652355194,0.3484106957912445,-0.5960833430290222
1789453374974190000,11.590190185546875,-0.20219650864601135,0.39361947774887085,-0.6188315749168396
1789453374984130800,11.600130859375,-0.18017829954624176,0.3783382475376129,-0.6669066548347473
1789453374994072000,11.610072021484376,-0.1707421839237213,0.34885039925575256,-0.6987373232841492
1789453375004013000,11.620012939453124,-0.1946781426668167,0.3724968731403351,-0.7126685380935669
1789453375013954000,11.6299541015625,-0.21200226247310638,0.4173716604709625,-0.7607090473175049
1789453375023895000,11.63989501953125,-0.20483329892158508,0.40273919701576233,-0.795216977596283
1789453375033835800,11.649835693359375,-0.20299892127513885,0.3726140558719635,-0.8379220962524414
1789453375043777000,11.659777099609375,-0.18521326780319214,0.29342976212501526,-0.8722454309463501
1789453375053717800,11.6697177734375,-0.1954946666955948,0.23082682490348816,-0.8844411373138428
1789453375063659000,11.679658935546875,-0.2296009659767151,0.2521882951259613,-0.8936362266540527
1789453375073599000,11.689598876953125,-0.2237342894077301,0.28164979815483093,-0.8968988656997681
1789453375083540000,11.6995400390625,-0.22693940997123718,0.2835398316383362,-0.9531767964363098
1789453375093481000,11.70948095703125,-0.2538197636604309,0.26728788018226624,-1.0055429935455322
1789453375103422000,11.719421875,-0.27023813128471375,0.2584959864616394,-1.0353584289550781
1789453375113363000,11.729363037109374,-0.26669907569885254,0.2672732472419739,-1.0577878952026367
1789453375123304000,11.739303955078125,-0.3048991858959198,0.29970335960388184,-1.080713152885437
1789453375133245000,11.749244873046875,-0.3617888391017914,0.3492472171783447,-1.075791358947754
1789453375143186000,11.75918603515625,-0.3536677956581116,0.36110547184944153,-1.05508553981781
1789453375153127000,11.769126953125,-0.3544512987136841,0.3336775600910187,-1.051133394241333
1789453375163068200,11.779068115234375,-0.33509278297424316,0.24704919755458832,-1.0700980424880981
1789453375173009000,11.7890087890625,-0.31383436918258667,0.15482313930988312,-1.0843201875686646
1789453375182950100,11.7989501953125,-0.2840106785297394,0.08779190480709076,-1.0767303705215454
1789453375192891000,11.808890869140624,-0.2711225748062134,0.03125299513339996,-1.0594773292541504
1789453375202832000,11.818831787109374,-0.2784859538078308,0.02237534709274769,-1.0400797128677368
1789453375212772900,11.82877294921875,-0.2937362790107727,0.06665599346160889,-1.0044289827346802
1789453375222713900,11.8387138671875,-0.3204978406429291,0.09532678872346878,-1.0046905279159546
1789453375232655000,11.848655029296875,-0.3492472171783447,0.06115683168172836,-1.0543869733810425
1789453375242595800,11.858595947265625,-0.4148603081703186,0.01925119198858738,-1.0486172437667847
1789453375252537000,11.868537109375,-0.4363999664783478,-0.031622909009456635,-1.056868314743042
1789453375262477800,11.878477783203126,-0.46621084213256836,-0.06075922027230263,-1.0828436613082886
1789453375272419000,11.888419189453124,-0.47722914814949036,-0.04778163880109787,-1.0492579936981201
1789453375282359800,11.89835986328125,-0.4386087656021118,-0.12043479830026627,-1.0323336124420166
1789453375292301000,11.908301025390625,-0.4070900082588196,-0.1973591446876526,-1.0190445184707642
1789453375302240800,11.91824072265625,-0.41176173090934753,-0.1694103330373764,-0.9294554591178894
1789453375312182000,11.92818212890625,-0.3818032741546631,-0.2288166731595993,-1.0244011878967285
1789453375322123000,11.938123046875,-0.3288569748401642,-0.3313118815422058,-1.0835305452346802
1789453375332064000,11.94806396484375,-0.33814316987991333,-0.3657500147819519,-1.0686801671981812
1789453375342005000,11.9580048828125,-0.3335915505886078,-0.3904745280742645,-1.1008580923080444
1789453375351946000,11.967946044921876,-0.371908038854599,-0.40171706676483154,-1.1271398067474365
1789453375361887000,11.977886962890626,-0.42745012044906616,-0.3354235291481018,-1.1701698303222656
1789453375371828000,11.987827880859374,-0.37791159749031067,-0.5013366341590881,-1.2263712882995605
1789453375381769000,11.99776904296875,-0.32346221804618835,-0.5895218849182129,-1.2435460090637207
1789453375391710000,12.0077099609375,-0.2763333320617676,-0.637417733669281,-1.2398629188537598
1789453375401651000,12.01765087890625,-0.285535603761673,-0.4785439372062683,-1.21183443069458
1789453375411592000,12.027592041015625,-0.2885148823261261,-0.40405774116516113,-1.1568042039871216
1789453375421533000,12.037532958984375,-0.24957041442394257,-0.3673394024372101,-1.0627645254135132
1789453375431474000,12.047473876953125,-0.22382616996765137,-0.26304948329925537,-0.9661993384361267
1789453375441415200,12.057415283203126,-0.22530822455883026,-0.16989769041538239,-0.9286642670631409
1789453375451356000,12.06735595703125,-0.2499682903289795,-0.16176466643810272,-0.9109640717506409
1789453375461297200,12.077297119140624,-0.31772923469543457,-0.08931709825992584,-0.8563828468322754
1789453375471238000,12.08723779296875,-0.37008216977119446,0.014127536676824093,-0.8088478446006775
1789453375481179000,12.097178955078125,-0.3607717752456665,0.09154802560806274,-0.7466917634010315
1789453375491119900,12.107119873046875,-0.3361348807811737,0.116231270134449,-0.6449347734451294
1789453375501060900,12.117060791015625,-0.2931671738624573,0.17658674716949463,-0.5025062561035156
1789453375511002000,12.127002197265625,-0.24349334836006165,0.21969400346279144,-0.3464066684246063
1789453375520942000,12.136942138671875,-0.19201338291168213,0.25216245651245117,-0.23188409209251404
1789453375530882800,12.1468828125,-0.13424968719482422,0.2562565505504608,-0.17568980157375336
1789453375540824000,12.156823974609376,-0.14869892597198486,0.29232534766197205,-0.10836242884397507
1789453375550765000,12.16676513671875,-0.20116959512233734,0.33052173256874084,0.004078098572790623
1789453375560705800,12.176705810546874,-0.20009607076644897,0.28955164551734924,0.13668088614940643
1789453375570647000,12.18664697265625,-0.19982975721359253,0.26478052139282227,0.1971207857131958
1789453375580587800,12.196587890625,-0.19759349524974823,0.30350449681282043,0.21674589812755585
1789453375590529000,12.206529052734375,-0.18021850287914276,0.32414212822914124,0.2577199637889862
1789453375600470000,12.216469970703125,-0.161241352558136,0.23678751289844513,0.28406473994255066
1789453375610411000,12.226410888671875,-0.15673582255840302,0.21469153463840485,0.32129228115081787
1789453375620352000,12.23635205078125,-0.15324653685092926,0.1675967276096344,0.38675278425216675
1789453375630293000,12.24629296875,-0.1378484070301056,0.128493532538414,0.46409523487091064
1789453375640234000,12.25623388671875,-0.0897384062409401,0.09842777252197266,0.5415207743644714
1789453375650175000,12.266175048828124,-0.035775307565927505,0.05813201144337654,0.6072704792022705
1789453375660116000,12.276115966796874,0.008817460387945175,0.04819602519273758,0.6861980557441711
1789453375670057000,12.286056884765625,0.07972412556409836,-0.020546020939946175,0.767724871635437
