time,seconds_elapsed,z,y,x
1789799297099167200,0.048167236328125,7.051971352386474,5.984157411956787,-1.4558242469787597
1789799297109139500,0.058139404296875,6.65857409210205,6.133495740509033,-1.7111059989929198
1789799297119111400,0.068111328125,6.261585529327392,6.325181510925293,-1.8701707717895506
1789799297129083400,0.07808349609375,5.9205614303588865,6.504148085021972,-1.9138649520874023
1789799297139056400,0.088056396484375,5.692364084625244,6.696282768249511,-1.9077298103332518
1789799297149028400,0.0980283203125,5.6492684547424314,6.963834803771972,-1.7286135986328124
1789799297159000300,0.108000244140625,5.66917025604248,7.081001047515869,-1.4028525352478027
1789799297168972500,0.11797265625,5.606172824859619,7.091774954986572,-1.0063128852844239
1789799297178945300,0.1279453125,5.486013829040527,7.054365554046631,-0.7785644523620605
1789799297188917500,0.13791748046875,5.5455695953369135,6.931513081359863,-0.859967308807373
1789799297198889200,0.14788916015625,5.825691189575195,6.788459532165527,-1.0690110412597655
1789799297208861400,0.157861328125,6.410774220275878,6.5865984046936035,-1.1034276901245117
1789799297218833400,0.16783349609375,6.612186434936523,6.189460204315186,-1.2593500732421874
1789799297228806100,0.17780615234375,5.88614478149414,5.985803425598144,-1.9590555084228514
1789799297238778400,0.1877783203125,5.691017346191406,5.784690486145019,-2.8892028533935545
1789799297248750300,0.197750244140625,5.832574519348144,5.4147863296508785,-3.4011130958557128
1789799297258722300,0.207722412109375,5.697900675964355,4.824316345214844,-3.2966660484313963
1789799297268695300,0.2176953125,5.86085602645874,4.077325427246094,-3.028066549682617
1789799297278667500,0.22766748046875,6.358251421356201,4.353556443786621,-3.535038751220703
1789799297288639200,0.23763916015625,6.919392435455322,4.765209491729736,-3.6701615074157714
1789799297298611500,0.247611572265625,7.300220137023925,4.670189613342285,-2.8746880058288573
1789799297308584400,0.25758447265625,7.592612014770507,4.388571643066406,-1.7848773376464844
1789799297318556200,0.26755615234375,8.137143254852294,4.406378517913818,-0.8168716789245605
1789799297328528100,0.277528076171875,8.996960926055907,4.470273774719238,-0.8945335952758788
1789799297338500000,0.2875,9.662997900390625,4.677222580718994,-0.7392097625732421
1789799297348473000,0.29747314453125,10.104279193878174,5.046528186798096,-0.7876923461914062
1789799297358445000,0.307445068359375,9.909750308990478,4.267514821624756,-0.9570821136474609
1789799297368417000,0.3174169921875,9.17383257369995,2.274341939544678,-1.1251251426696776
1789799297378389200,0.32738916015625,9.209595960998534,2.573467509460449,-0.37888241271972656
1789799297388361000,0.33736083984375,10.900351245880126,2.433855625152588,-0.32097266006469727
1789799297398334000,0.347333984375,12.814964385986327,3.550451424407959,-0.1575683967590332
1789799297408306200,0.35730615234375,11.060313844299316,6.6246063560485835,-0.38636429290771485
1789799297418278000,0.36727783203125,7.847594491577148,7.921665105438232,-0.8415618835449218
1789799297428250000,0.37725,7.220912207031249,7.729081509399413,-0.9048585899353027
1789799297438223000,0.38722314453125,7.280767248535156,6.70331573562622,-0.25962124252319335
1789799297448195000,0.397195068359375,6.112097563171386,5.2636523498535155,0.6323685134887695
1789799297458167000,0.4071669921875,4.572925170898437,4.0918402748107905,0.7580641006469726
1789799297468139300,0.41713916015625,3.4605192245483396,3.2103251510620114,0.054767362976074214
1789799297478112000,0.427112060546875,2.784905443572998,2.6445453712463376,-1.248127252960205
1789799297488084000,0.437083984375,3.2855928657531734,2.475754154205322,-2.376843698120117
1789799297498056200,0.44705615234375,8.7976436378479,0.6426935081481934,-1.382202545928955
1789799297508028000,0.45702783203125,11.219378617095947,0.14215572357177733,-1.4894927078247069
1789799297518001200,0.467001220703125,7.117811898040771,1.4315829551696777,-2.6868928131103513
1789799297527973000,0.47697314453125,6.14187544631958,4.348917678070068,-1.9666870262145995
1789799297537945000,0.486945068359375,7.481730550384521,7.521683790588378,-2.772186247253418
1789799297547917000,0.4969169921875,8.885181636047363,9.756970315551758,-3.7855320999145508
1789799297557890300,0.506890380859375,7.720103253173828,7.924208944702148,0.00029927520751953123
1789799297567862000,0.516862060546875,6.932710182189941,5.0100166114807125,5.591957252502441
1789799297577834200,0.526834228515625,7.063942360687255,4.473116889190673,8.067561769104003
1789799297587806000,0.536805908203125,7.7693340248107905,5.134515097808838,7.48262837600708
1789799297597778200,0.546778076171875,7.791181114959716,6.219238087463379,5.580435157012939
1789799297607751200,0.556751220703125,6.863876884460449,6.858190655517578,4.305672410583496
1789799297617723000,0.566722900390625,5.777058968353271,6.863727246856689,4.370615130615234
1789799297627695000,0.576695068359375,5.476736297607421,7.357232064056396,5.148132119750977
1789799297637667000,0.5866669921875,6.015880583953857,8.21630154724121,5.731419499206543
1789799297647640000,0.59664013671875,6.960093863677978,8.448239833068847,5.871480296325683
1789799297657612000,0.606612060546875,8.060678439331054,8.183530912017822,5.4789808616638185
1789799297667584300,0.616584228515625,9.248501737976074,7.889941933441162,4.887313776397705
1789799297677556000,0.626555908203125,9.977386505889893,7.557746453094482,4.520851284790039
1789799297687529000,0.636529052734375,9.747094233703613,7.4226236968994135,4.3077673370361325
1789799297697501200,0.646501220703125,9.178620977020262,7.931541187286377,4.072537023925781
1789799297707473200,0.65647314453125,9.038111267089842,8.417115211486816,4.070142822265625
1789799297717445000,0.666445068359375,9.524882392120361,8.300996430969239,4.106055847167968
1789799297727418000,0.676418212890625,10.014197356414794,7.9472531356811515,3.9858968513488766
1789799297737390000,0.68639013671875,10.443058728790282,7.5062711174011225,3.9873932273864745
1789799297747362000,0.696362060546875,10.413430483245849,7.127538342285156,4.145111261749268
1789799297757334000,0.706333984375,10.216956309509277,6.763320414733887,4.056825075531005
1789799297767307000,0.71630712890625,10.302100106048583,6.297797829437256,4.0732852119445795
1789799297777279200,0.726279296875,10.471040960693358,6.271461611175536,4.123413809204101
1789799297787251000,0.7362509765625,10.502315219879149,6.2867246467590325,4.295347415924072
1789799297797223200,0.74622314453125,10.526257236480712,6.040570788574218,4.4945150665283204
1789799297807195100,0.756195068359375,10.34325044708252,5.815066919708252,4.403685041046142
1789799297817168000,0.76616796875,9.35938320236206,5.706579656982422,4.095581214904785
1789799297827140000,0.77614013671875,7.8727336090087885,5.660940187835693,3.591152852630615
1789799297837112000,0.786112060546875,6.883180135345459,5.147234294128418,2.9140426956176757
1789799297847084000,0.796083984375,6.4555158638000485,4.8309003997802735,1.9826982498168944
1789799297857057000,0.80605712890625,5.5838768218994135,4.772092821502685,1.1026795021057127
1789799297867029200,0.816029296875,5.233874466705322,4.163516687011718,0.6603507453918457
1789799297877001000,0.8260009765625,6.002862112426757,4.033780884552002,0.572663109588623
1789799297886973200,0.83597314453125,6.266822845458984,4.31584776763916,1.1905167755126953
1789799297896946200,0.8459462890625,6.334608679962158,4.471919788360595,1.9265841484069823
1789799297906918100,0.855918212890625,6.544250962829589,4.44303973083496,1.987337015533447
1789799297916890000,0.86589013671875,6.264877556610107,4.312855015563964,2.0005051246643064
1789799297926862000,0.875862060546875,6.039972238159179,4.364479988861084,2.159719535064697
1789799297936835000,0.8858349609375,5.747879635620117,4.564545465087891,2.1321862159729004
1789799297946807000,0.89580712890625,5.082890124511718,4.863671035003661,1.8082208038330077
1789799297956779000,0.905779052734375,4.547337140655517,4.980986916351318,1.5095441467285156
1789799297966751000,0.9157509765625,4.75653051071167,5.046378549194336,1.7227777320861815
1789799297976724200,0.92572412109375,5.210231725311279,5.255422281646728,2.231844860076904
1789799297986696000,0.935696044921875,5.315426960754394,5.397129092407226,2.4609400314331054
1789799297996668200,0.945668212890625,5.622483323669433,5.330241083526611,2.329707852935791
1789799298006640000,0.95564013671875,6.439654277801513,5.110423443603516,2.0024504135131833
1789799298016613000,0.965613037109375,7.28450818862915,5.086331789398193,1.8649334556579589
1789799298026585000,0.975585205078125,7.748534397888183,5.278915385437012,1.968931590270996
1789799298036557300,0.985557373046875,8.359804009246826,5.229385338592529,1.89620771484375
1789799298046529000,0.995529052734375,8.949675443267822,5.0571524566650385,1.6361375595092773
1789799298056502000,1.005501953125,9.488221179199218,4.913350719451904,1.5342343513488768
1789799298066474200,1.01547412109375,9.959729268646239,4.809502222442626,1.9309236389160156
1789799298076446000,1.025446044921875,10.339210231781005,4.5881882064819335,2.288856787109375
1789799298086418200,1.035418212890625,10.463409442901611,4.2149920227050774,2.267608247375488
1789799298096391200,1.04539111328125,10.045770890808106,4.172644580841064,1.8101660926818846
1789799298106363100,1.055363037109375,9.229946675109863,4.377348822784423,1.8445827415466307
1789799298116335000,1.065335205078125,8.610746270751953,4.86531704864502,2.330904953765869
1789799298126307000,1.07530712890625,8.334814529418944,5.103689751434326,2.459144380187988
1789799298136280000,1.085280029296875,8.240243563842773,4.888211602020263,2.276436865997314
1789799298146252000,1.095251953125,8.103325156402587,4.687248300170898,2.2725462882995604
1789799298156224000,1.10522412109375,7.607426137542724,4.60345124206543,2.612074011230469
1789799298166196200,1.1151962890625,6.978648926544189,4.716726908111572,3.017143004608154
1789799298176169200,1.125169189453125,6.1547442802429195,4.771194995880126,3.2077813117980956
1789799298186141000,1.135140869140625,5.334430936431884,4.500650208282471,3.24982947845459
1789799298196113200,1.145113037109375,4.828206922912598,4.129100038146972,3.229179489135742
1789799298206084900,1.1550849609375,4.650587087249756,3.905242182922363,3.3221044410705565
1789799298216058000,1.16505810546875,4.595370811462402,3.873369373321533,3.9366660797119137
1789799298226030000,1.175030029296875,4.460547330474853,3.8754642997741695,4.345775288391113
1789799298236002000,1.185001953125,4.440196616363525,3.81141940536499,4.278737641906738
1789799298245974000,1.19497412109375,5.349544334411621,3.965246862030029,3.767874862670898
1789799298255947000,1.204947021484375,6.269815597534179,3.8153099830627437,3.8016929611206054
1789799298265919000,1.2149189453125,6.380846699523925,3.28155265045166,4.490624488830566
1789799298275891000,1.224890869140625,6.672191114044189,3.601477847290039,4.739022911071777
1789799298285863200,1.23486328125,7.171382160186767,4.051138846588135,5.143792629241943
1789799298295836000,1.2448359375,8.207921841430663,4.300884007263184,5.294028783416747
1789799298305808100,1.25480810546875,8.734646206665039,3.9037458068847655,5.79037671508789
1789799298315780900,1.26478076171875,8.918550821685791,3.631255730438232,6.047603755950927
1789799298325753000,1.274753173828125,9.235782541656494,3.803787887573242,5.7514709381103515
1789799298335725000,1.28472509765625,9.541492166137695,3.731512924957275,5.631760855102539
1789799298345697800,1.29469775390625,9.591022212982176,3.7216368431091307,5.591358702087402
1789799298355670000,1.304669921875,9.261520209503173,3.765031748199463,5.831826331329346
1789799298365642000,1.31464208984375,8.88099178314209,3.550301786804199,6.2036757766723625
1789799298375615000,1.324614990234375,8.825775507354736,3.254168968963623,6.170605866241455
1789799298385587000,1.3345869140625,8.48549959640503,2.9224224014282223,5.812373442840576
1789799298395559200,1.34455908203125,7.740603604888916,2.4341549003601073,5.382614244842529
1789799298405531000,1.35453076171875,6.7371338340759275,1.810615005493164,4.807856208801269
1789799298415504000,1.36450390625,5.360168604278564,0.9443629173278808,4.243722442626953
1789799298425476000,1.37447607421875,4.144512711334229,0.09651625442504883,4.011484881591796
1789799298435447800,1.38444775390625,3.6592379623413085,-0.18914193115234373,4.409670545196533
1789799298445420000,1.394419921875,3.197905229949951,-0.3268085266113281,4.817433015441894
1789799298455393000,1.40439306640625,2.326266188049316,-0.6880337020874023,4.780921440124511
1789799298465365000,1.414364990234375,1.2964601989746094,-1.3033435287475585,4.3819875885009765
1789799298475337000,1.4243369140625,0.6542156036376953,-2.1739351074218747,3.93891064376831
1789799298485309000,1.434308837890625,0.06943184814453125,-2.994847001647949,3.411737365722656
1789799298495282000,1.444281982421875,-0.508169302368164,-3.3918355644226073,2.8106431114196777
1789799298505254100,1.454254150390625,-1.0108020133972166,-3.626916239929199,3.0166940917968748
1789799298515225900,1.464225830078125,-1.3736732025146483,-3.991583080291748,4.2682630096435545
1789799298525198000,1.474197998046875,-1.7066168708801268,-5.350741435241699,6.489932512664795
1789799298535171000,1.484171142578125,-2.379387537384033,-3.939808469390869,5.715557913208007
1789799298545142800,1.494142822265625,-2.405723755645752,-1.4254478134155273,5.097255334472656
1789799298555115000,1.504114990234375,-1.452382582092285,-1.30873048248291,7.096712995910644
1789799298565086700,1.514086669921875,-0.6112696113586426,-2.5281273155212403,10.070910008239746
1789799298575060000,1.52406005859375,0.1767220100402832,-2.9595325271606443,12.757952458953858
1789799298585032000,1.534031982421875,1.4133271675109862,-2.148197439575195,14.669123934173584
1789799298595004000,1.54400390625,2.388365793609619,-1.225232699584961,15.939996102905273
1789799298604975900,1.553975830078125,2.441337505340576,-0.6275801101684569,17.03489444961548
1789799298614948900,1.563948974609375,1.671452033996582,-0.29553426742553707,17.713949895477295
1789799298624920800,1.5739208984375,0.8288426872253417,-0.15502455749511718,17.70212852478027
1789799298634893000,1.58389306640625,0.44846389846801754,0.254084651184082,17.23810231552124
1789799298644865000,1.593864990234375,0.548421817779541,0.5602431884765625,16.62997509384155
1789799298654837800,1.603837646484375,1.411531516265869,0.5741594856262207,16.006884111785887
1789799298664810000,1.61381005859375,2.5014918220520017,0.4878185882568359,15.452925702667235
1789799298674782000,1.623781982421875,2.981978167724609,0.6479308242797851,15.042320117950439
1789799298684754000,1.63375390625,2.564040340423584,1.0404302589416503,15.110405227661133
1789799298694727000,1.643726806640625,0.9335890098571776,1.1858780097961426,15.524302839660644
1789799298704699100,1.65369921875,-0.6503250259399413,1.1834838081359862,15.54525210418701
1789799298714670800,1.6636708984375,-1.0069114356994628,1.5101426971435545,15.268572174835205
1789799298724643000,1.67364306640625,-0.41090485992431636,1.8154034088134765,14.763994174957274
1789799298734616000,1.683615966796875,0.9100959060668945,1.5011644409179687,14.178162956237792
1789799298744587800,1.693587890625,2.0726304496765136,0.8515876029968261,13.892654408264159
1789799298754560000,1.70356005859375,2.0777181282043458,0.6259340965270995,13.767258096313476
1789799298764532000,1.713531982421875,0.8880991783142089,0.7012018112182616,13.579013990783691
1789799298774505000,1.7235048828125,0.026186580657958983,0.5472247169494628,12.867038272094726
1789799298784477000,1.733476806640625,-0.2027589530944824,0.3462614151000976,11.797129405212402
1789799298794449000,1.743448974609375,-0.7049427513122558,0.056114101409912104,10.662876368713379
1789799298804420900,1.7534208984375,-1.3314753982543945,-0.5928641860961914,9.702053314971923
1789799298814394000,1.76339404296875,-2.6919804916381835,-0.9590274024963379,9.30820714187622
1789799298824365800,1.77336572265625,-4.611681310272217,-0.49155952835083006,9.793182615661621
1789799298834338000,1.783338134765625,-1.885882720184326,-0.8900444671630859,10.084227754974364
1789799298844311000,1.79331103515625,1.3766659545898436,-1.7000328163146972,10.767473053741455
1789799298854282800,1.80328271484375,2.5836428665161133,-2.109890213012695,11.161618502044677
1789799298864255000,1.8132548828125,2.8163293403625485,-2.2535423126220704,11.19169566040039
1789799298874227000,1.82322705078125,2.404975567626953,-2.902520600128174,10.704625260162352
1789799298884200000,1.833199951171875,1.6870143447875976,-3.139546564483642,9.79916811981201
1789799298894172000,1.843171875,-0.9142857589721679,-2.836081504058838,8.640075241088867
1789799298904144100,1.85314404296875,-4.441842630004882,-2.822464482116699,7.456292157745361
1789799298914115800,1.86311572265625,-5.294627333831786,-2.9878140342712403,7.700051814270019
1789799298924088800,1.8730888671875,-4.422389741516113,-2.95579158706665,7.871237232971191
1789799298934061000,1.88306103515625,-3.0711621795654294,-3.4778771865844726,8.277054414367676
1789799298944033000,1.893032958984375,-0.5925649108886718,-4.380042299652099,8.545055362701415
1789799298954005000,1.9030048828125,0.6890811653137207,-4.769848257446289,8.289324697875976
1789799298963978000,1.91297802734375,0.10489596023559569,-5.335628037261962,8.45946265335083
1789799298973950000,1.922949951171875,-1.425597451019287,-5.221753820800781,8.897302281951903
1789799298983922000,1.932921875,-1.8785504776000976,-4.762964927673339,10.727968726348877
1789799298993894000,1.942893798828125,-1.5474024604797363,-3.534739476013183,13.210905485534667
1789799299003867000,1.952866943359375,-1.0589853218078613,-2.921075662994385,15.78826357269287
1789799299013839000,1.962839111328125,0.2920926025390625,-3.3533787002563473,17.75016219558716
1789799299023810800,1.972810791015625,1.0046668716430665,-4.2390836769104006,17.619079654693603
1789799299033783000,1.982782958984375,0.5271732780456543,-5.124489378356933,15.579668753051758
1789799299043756000,1.992756103515625,0.12898761444091797,-5.379621492767334,13.831602265930176
1789799299053727700,2.002727783203125,0.206200617980957,-5.065382524871826,13.533374521636961
1789799299063700000,2.012699951171875,3.497778987884521,-3.7069723579406735,16.270695207214356
1789799299073673000,2.0226728515625,1.596782869720459,-0.7122749938964843,17.300501196289062
1789799299083645000,2.03264501953125,-14.828338344573973,-0.5574000740051269,11.640159558868408
1789799299093617000,2.042616943359375,-5.8740241355895995,-2.529324416351318,12.316820803070067
1789799299103589000,2.052589111328125,0.3860650177001953,-2.1326351287841794,14.02029528427124
1789799299113561900,2.062561767578125,-1.110161382293701,-2.729090617370605,10.305541770935058
1789799299123534000,2.0725341796875,-0.3790320503234863,-4.246864832305908,3.67749375
1789799299133506000,2.082506103515625,-0.9789292037963867,-4.690689965057373,1.0037690460205078
1789799299143478000,2.09247802734375,-1.3066355560302734,-4.102015631866455,2.6888381019592282
1789799299153451000,2.102450927734375,-1.5131354492187499,-3.5749919914245605,3.9790135215759275
1789799299163423000,2.112423095703125,-1.1231798538208007,-3.1789012542724606,3.766079211425781
1789799299173395000,2.12239501953125,-0.7004536231994628,-3.442413074493408,3.4905963829040525
1789799299183367000,2.132366943359375,-1.1468225952148436,-4.279036917114258,1.6395792243957519
1789799299193340200,2.142340087890625,-0.8002619049072265,-4.771793546295166,1.013196215057373
1789799299203311900,2.152311767578125,-0.5015852478027344,-3.5728970649719236,4.7679029685974115
1789799299213284000,2.1622841796875,-0.30092122116088865,-2.7076924400329587,6.543053861999511
1789799299223257000,2.172257080078125,-0.07272387542724609,-2.9755437507629394,4.436754951477051
1789799299233228800,2.182228759765625,-0.33533787002563475,-4.22007970123291,1.4190133964538574
1789799299243201000,2.192200927734375,-0.5987000526428222,-5.2162172294616695,-0.8873509902954101
1789799299253173000,2.202173095703125,-0.5985504150390625,-5.40101967010498,-0.5940612869262695
1789799299263146000,2.21214599609375,-1.7347487403869628,-4.700865322113037,1.9482816009521484
1789799299273118000,2.222117919921875,-2.0247464164733886,-2.769642407989502,7.538892115020752
1789799299283090000,2.23208984375,-2.250250285339355,0.8016086433410644,15.94792689590454
1789799299293062000,2.242061767578125,-3.827430628967285,2.4914661026000977,18.083854051971436
1789799299303035100,2.25203515625,-4.434809662628173,3.07086290435791,17.117494406890867
1789799299313006800,2.2620068359375,-3.4304420661926267,3.135356711578369,18.893243850708007
1789799299322979000,2.27197900390625,-2.8152818771362305,1.8860323577880858,20.91335150146484
1789799299332952000,2.2819521484375,-3.0793922477722164,0.3640682899475097,18.608034577941893
1789799299342924000,2.291924072265625,-3.475632622528076,-0.6266822845458984,15.651494802856444
1789799299352896000,2.30189599609375,-3.9311294883728025,-1.0414777221679687,15.50784270324707
1789799299362868000,2.311867919921875,-4.633678038024902,-1.2140098793029785,15.849614990234373
1789799299372841200,2.32184130859375,-4.394257872009277,-0.5773018753051757,17.536030784606933
1789799299382813000,2.33181298828125,-3.3563714523315427,-2.3364415451049805,17.47393117904663
1789799299392785200,2.34178515625,-1.0015244819641114,-5.429001902008056,13.954903651428221
1789799299402757000,2.351757080078125,-2.5221418113708496,-4.77553448638916,12.171223414611816
1789799299412729900,2.361729736328125,-2.147000338745117,-1.1177929000854492,17.251420062255857
1789799299422702000,2.3717021484375,-1.652298420715332,-0.024091654205322263,19.927389330291746
1789799299432674000,2.381674072265625,-2.812738037872314,-1.111508120727539,13.566145156860351
1789799299442647000,2.39164697265625,-1.7335516395568846,-1.4119804290771483,9.497947623443602
1789799299452619000,2.401618896484375,-3.218405581665039,-1.50026661529541,7.904606418609618
1789799299462591200,2.41159130859375,-1.8504186080932616,-1.2211924842834472,7.5996449821472165
1789799299472563000,2.42156298828125,-1.442207225036621,-6.621763241577148,2.8459575859069823
1789799299482536200,2.4315361328125,-3.4515409683227536,-5.9856537879943845,1.1330559356689451
1789799299492508200,2.441508056640625,-4.487033186340332,-5.593902541351318,2.7349264839172363
1789799299502480100,2.451480224609375,-3.1376012756347653,-7.171980710601806,4.821024317932129
1789799299512452000,2.4614521484375,-3.458873210906982,-7.783100684356689,6.063315704345703
1789799299522425000,2.471425048828125,-4.1745898696899415,-6.341342372131347,7.4308537651062005
1789799299532397000,2.48139697265625,-4.11144280090332,-5.708824221038818,9.443778810882568
1789799299542369000,2.491369140625,-3.818452372741699,-4.611531672668456,9.85767642288208
1789799299552342300,2.50134228515625,-2.725499314880371,-3.5531449012756346,9.381230292510987
1789799299562314000,2.51131396484375,-1.6102502540588377,-3.4473511154174803,8.207323291015625
1789799299572286200,2.5212861328125,-1.1490671592712403,-2.770240958404541,7.4874167793273925
1789799299582258000,2.5312578125,-0.5331587821960448,-1.7568951057434081,6.771550482940674
1789799299592231000,2.54123095703125,-0.7960720520019531,-0.9879074600219726,6.666654522705078
1789799299602203100,2.551203125,-2.589628370666504,-0.5150526321411133,6.603208178710937
1789799299612175000,2.561175048828125,-3.6207810981750486,0.3989338516235351,6.516119093322754
1789799299622148000,2.571148193359375,-5.191377387237549,0.9629179801940917,6.315155791473388
1789799299632120000,2.5811201171875,-3.7075709083557125,0.5252279891967773,5.963657060241699
1789799299642092000,2.591092041015625,-1.370680450439453,-0.5424363136291503,5.528211633300781
1789799299652064000,2.60106396484375,-1.6129437309265136,-1.0905588562011719,4.7207671234130855
1789799299662037200,2.611037353515625,-2.8214170188903807,-0.5427355888366698,4.048295732116699
1789799299672009000,2.621009033203125,-2.9391818130493164,-0.3324947555541992,3.2703298301696777
1789799299681981200,2.630981201171875,-2.2755390403747557,-1.0139444030761717,2.1607669982910154
1789799299691953200,2.640953125,-0.9642647186279296,-1.6747440612792968,1.2150573425292968
1789799299701926000,2.65092578125,0.11342530364990233,-1.530343773651123,1.2565069587707518
1789799299711898000,2.660898193359375,-1.8121113815307617,-0.79801734085083,2.7412112632751464
1789799299721870000,2.6708701171875,-2.597708801269531,-1.227626901245117,4.95420178527832
1789799299731843000,2.680843017578125,-0.9525929855346679,-1.5767314308166502,3.6414310874938964
1789799299741815000,2.69081494140625,-0.4421791191101074,-1.708412522125244,1.2336124053955078
1789799299751787300,2.700787353515625,-1.0326491035461425,-0.8779238212585448,3.856609961700439
1789799299761759000,2.710759033203125,0.04055179061889648,-2.185457202911377,7.598896794128417
1789799299771732000,2.72073193359375,1.5222633430480956,-4.114585190582275,12.429946831512451
1789799299781704200,2.7307041015625,0.7583633758544921,-4.562899451446533,16.047286264801023
1789799299791676200,2.74067626953125,0.7052420265197753,-4.618863915252685,15.559916589355467
1789799299801648000,2.750648193359375,-0.4638765716552734,-7.266402038574219,15.128062464904785
1789799299811621000,2.76062109375,-0.5792471641540528,-8.254010223388672,16.153528963470457
1789799299821593000,2.770593017578125,0.6670844375610351,-8.430881871032714,16.632818208312987
1789799299831565000,2.78056494140625,0.2832639839172363,-9.452607429504393,17.143680987548827
1789799299841538300,2.790538330078125,-0.037409400939941405,-8.66326906967163,15.017031362915038
1789799299851510000,2.800510009765625,-0.5514145698547362,-7.971943340301514,12.593201457214354
1789799299861482200,2.810482177734375,-0.8054992210388183,-7.42471862335205,9.874435834503172
1789799299871454000,2.820453857421875,-0.48826750106811523,-6.105962421417236,6.988525008392333
1789799299881427000,2.830427001953125,-0.7504325828552245,-3.031358576965332,4.171896392822266
1789799299891399200,2.840399169921875,0.706738402557373,-3.023577421569824,3.813364694213867
1789799299901371000,2.850370849609375,-1.4284405654907226,-5.214271940612793,6.716184569549561
1789799299911344000,2.86034423828125,-1.439663385772705,-6.801777278900146,8.20448017654419
1789799299921316000,2.870316162109375,1.1722609878540038,-7.222558220672607,10.995071849060057
1789799299931288000,2.8802880859375,-3.3488895721435545,-8.964938478851318,11.848155828094482
1789799299941260000,2.890260009765625,-4.61587116317749,-6.093841775512695,11.768398985290526
1789799299951233000,2.90023291015625,-3.576638005065918,-2.0356699615478515,9.450961415863036
1789799299961205000,2.910205078125,-2.809745285797119,-3.720739017486572,5.416133068084717
1789799299971177200,2.92017724609375,-1.8158523216247557,-3.705475981903076,5.403862784576416
1789799299981150200,2.930150146484375,-1.415422093963623,-4.251204322814941,7.900266928100585
1789799299991122000,2.940121826171875,-1.119139638519287,-4.623053768157959,10.529549263763426
1789799300001094100,2.95009423828125,-0.2488473350524902,-6.123021108245849,12.253075183868408
1789799300011066000,2.960066162109375,0.28999767608642574,-9.144503603363036,12.090868021392822
1789799300021039000,2.9700390625,-0.626981559753418,-9.766846397399902,12.007968788909912
1789799300031011000,2.980010986328125,-1.792808130645752,-7.049128237915038,10.593743795776367
1789799300040983300,2.9899833984375,-2.5623943267822265,-4.900631523132324,9.200916979980468
1789799300050956000,2.9999560546875,-3.0787936973571775,-2.302922721862793,9.83223803024292
1789799300060928000,3.009927978515625,-2.1716905433654783,-0.23642741394042968,9.600000469207764
1789799300070900200,3.019900146484375,-0.6745663177490234,2.0700866104125977,9.139266287231445
1789799300080872000,3.029871826171875,0.12509703674316405,4.074033399963379,9.032873950958251
1789799300090845200,3.03984521484375,-0.16295535049438475,4.491372676849365,9.016114539337158
1789799300100817000,3.04981689453125,0.4538508522033691,3.6680665809631345,9.210643424224854
1789799300110789000,3.0597890625,1.0887632049560547,2.396745499420166,9.668384854125977
1789799300120762000,3.06976220703125,-0.8295908752441405,0.7511807708740234,8.864830921936035
1789799300130734000,3.079734130859375,-2.1761796714782715,1.8929156875610351,6.667851623535156
1789799300140706000,3.0897060546875,-2.1013608695983885,0.5795464393615722,5.24150598449707
1789799300150678300,3.09967822265625,-1.7437269966125488,-2.16405902557373,4.658368242645263
1789799300160651000,3.109651123046875,-3.6118028419494626,-6.2873231971740715,4.831050037384033
1789799300170623000,3.119623046875,-2.2474071708679197,-11.06375550918579,5.025878197479248
1789799300180595200,3.12959521484375,0.30196868438720703,-14.068927505493162,7.75691410369873
1789799300190568000,3.13956787109375,-0.7317278823852539,-15.461754321289062,15.093196903228758
1789799300200540200,3.1495400390625,-6.019322248840331,-17.035941912841796,20.833445021057127
1789799300210512100,3.15951220703125,-5.9771244445800775,-20.049792890167236,21.2727810256958
1789799300220484000,3.169484130859375,-3.604470599365234,-19.176507834625244,17.44849278640747
1789799300230457000,3.17945703125,-0.48931496429443355,-16.550966439056396,11.4140571395874
1789799300240429000,3.189428955078125,0.309001651763916,-16.512958487701415,7.382071906280517
1789799300250401000,3.199401123046875,-1.30873048248291,-17.11076071472168,5.234323379516601
1789799300260373000,3.209373046875,-2.867804676055908,-15.345336265563963,3.9176621040344237
1789799300270346200,3.21934619140625,-3.5066076065063476,-0.3860650177001953,0.7610568527221679
1789799300280318000,3.22931787109375,-2.7883471084594724,-7.371896549224853,5.7888803390502925
1789799300290290200,3.239290283203125,-0.8646060745239257,-16.43439874572754,7.591863826751709
1789799300300263200,3.24926318359375,-0.14694412689208983,-10.382006586456297,8.071751622009277
1789799300310235100,3.259235107421875,0.11477204208374023,-8.486247784423828,9.84450831375122
1789799300320206600,3.26920654296875,-0.6440402465820312,-6.737882022094726,10.986692143249511
1789799300330179600,3.2791796875,-0.6218938812255859,-5.112967282867431,10.497676454162598
1789799300340151600,3.289151611328125,-0.9581295768737792,-5.175216526031494,9.316437210083008
1789799300350123500,3.29912353515625,-1.0812813247680664,-4.857835168457031,8.398260873413085
1789799300360095500,3.309095458984375,-0.9189245246887207,-5.225195485687255,7.408707399749756
1789799300370068500,3.319068359375,-0.8717886795043944,-4.718522559356689,6.583456015014648
1789799300380040700,3.329040771484375,-0.8536825294494629,-5.463717826080322,6.819733791351318
1789799300390012400,3.339012451171875,-0.8767267204284668,-6.347776789093017,7.279270872497558
1789799300399985700,3.348985595703125,-0.311545491027832,-6.476165853118896,6.846518922424316
1789799300409957600,3.35895751953125,0.7749731498718261,-4.56469510269165,7.606079399108887
1789799300419929600,3.3689296875,0.9111433692932128,-3.7237317695617675,6.898443170928955
1789799300429901600,3.378901611328125,0.4765957679748535,-3.7773020317077632,5.0200423309326165
1789799300439874600,3.38887451171875,-0.17387889556884764,-3.749319799804687,4.128202212524414
1789799300449846500,3.398846435546875,-0.2813186950683594,-3.6119524795532225,4.11174207611084
1789799300459818500,3.408818603515625,0.0522235237121582,-3.3186627761840817,3.970484178161621
1789799300469791700,3.418791748046875,0.017208324432373044,-2.9855694702148434,4.088847522735596
1789799300479763500,3.428763427734375,-0.4474164352416992,-2.393004559326172,4.067598983001709
1789799300489735700,3.438735595703125,-0.2668038475036621,-1.8525135345458983,3.8509237327575683
1789799300499707600,3.448707763671875,0.02693476867675781,-1.8510171585083006,3.1943139274597168
1789799300509680400,3.458680419921875,0.006584054565429687,-1.6234183631896972,3.8795045150756833
1789799300519652600,3.468652587890625,0.14559738845825196,-2.1613655487060544,2.0588637901306153
1789799300529624600,3.47862451171875,0.2558803024291992,-1.7311574378967285,2.9276597175598145
1789799300539597600,3.48859765625,0.1744774459838867,-1.7999907356262206,4.789001870727539
1789799300549569500,3.498569580078125,-0.6407482192993164,-2.318784307861328,3.7306150993347167
1789799300559541500,3.50854150390625,-1.0152911415100097,-2.2691046234130856,3.671807521057129
1789799300569514500,3.518514404296875,-0.7873930709838867,-2.510769353485107,4.154688068389892
1789799300579486700,3.52848681640625,-0.5915174476623535,-2.781164503479004,4.827608372497559
1789799300589458400,3.53845849609375,-0.7047931137084961,-3.1669302459716797,5.651513018798828
1789799300599430700,3.5484306640625,-1.1074679054260252,-3.7509658134460446,6.366182214355469
1789799300609403600,3.558403564453125,-1.7480664871215819,-3.413682654571533,6.261435891723632
1789799300619375400,3.568375244140625,-1.2511200050354003,-1.8148048583984373,5.532700761413574
1789799300629347600,3.57834765625,-0.0526724365234375,-1.615936483001709,6.17344898071289
1789799300639320600,3.588320556640625,0.3181295455932617,-1.8822914176940917,7.302763976287841
1789799300649292500,3.59829248046875,0.30316578521728516,-3.0047230834960934,8.754099095153808
1789799300659264500,3.608264404296875,0.27742811737060546,-4.440645529174804,10.0234748878479
1789799300669237500,3.618237548828125,-0.1666962905883789,-5.731868412017822,9.923367330932617
1789799300679209500,3.62820947265625,-0.23852234039306638,-7.114070957946777,10.011354241943359
1789799300689181400,3.638181396484375,0.016909049224853513,-8.31955149383545,10.10667339553833
1789799300699153700,3.648153564453125,-0.2647089210510254,-9.76220763168335,10.254365710449218
1789799300709126400,3.65812646484375,-0.19961656341552733,-10.831069035339354,10.275763887786864
1789799300719098600,3.6680986328125,0.28730419921875,-11.095478681182861,10.658686515808105
1789799300729070600,3.678070556640625,0.1001075569152832,-10.627861169433594,10.954968971252441
1789799300739043600,3.688043701171875,-0.40895957107543945,-9.42926396331787,10.672153900146483
1789799300749015600,3.698015625,-0.8215104446411132,-8.162731285095214,10.31092872467041
1789799300758987800,3.70798779296875,-1.6219219871520996,-7.307253104400634,10.455628287506103
1789799300768960500,3.71796044921875,-1.6927005737304686,-6.928819604492187,10.849324822998046
1789799300778932500,3.727932373046875,-1.2346598686218262,-6.732794343566894,11.052682326507568
1789799300788904700,3.73790478515625,-1.2140098793029785,-6.739378398132324,11.205312682342528
1789799300798876400,3.74787646484375,-1.4233528869628906,-6.771101570129394,11.183914505004882
1789799300808849700,3.757849609375,-1.2120645904541014,-6.873453691101074,11.145457640838622
1789799300818821600,3.767821533203125,-0.8560767311096191,-7.212981414031982,10.964994690704344
1789799300828793600,3.777793701171875,-1.1743559143066407,-7.6559087211608885,10.391882668304444
1789799300838766600,3.7877666015625,-1.7132009254455565,-7.605780123901367,10.169670826721191
1789799300848738600,3.797738525390625,-1.488145969390869,-7.146392680358886,10.079588989257813
1789799300858710500,3.80771044921875,-1.633144807434082,-6.8399348678588865,9.771335525512695
1789799300868683500,3.81768359375,-1.8665794692993163,-6.412270596313476,9.964667309570311
1789799300878655700,3.82765576171875,-1.6349404586791991,-6.263231542968749,9.913491249084473
1789799300888627500,3.83762744140625,-1.5535376022338867,-6.421248852539062,9.735123225402832
1789799300898599700,3.847599609375,-1.5925930168151854,-6.4356140625,9.594463877868652
1789799300908572700,3.85757275390625,-1.4407108489990235,-6.5862991294860835,9.323619815063475
1789799300918544600,3.867544677734375,-1.421856510925293,-6.889913827514648,9.107243840026856
1789799300928516600,3.8775166015625,-1.202188508605957,-7.1309800071716305,8.810811746978759
1789799300938489600,3.887489501953125,-0.7015010864257812,-7.152078909301758,8.475174601745605
1789799300948461600,3.897461669921875,-0.3359364204406738,-7.1018006744384765,8.130858475494385
1789799300958433500,3.90743359375,-0.27787703018188475,-7.072322066497803,7.849090867614746
1789799300968406800,3.91740673828125,-0.3066074501037597,-7.027131510162353,7.819462622070312
1789799300978378500,3.92737841796875,-0.1876455551147461,-7.1507321708679195,7.895029611968994
1789799300988350700,3.937350830078125,-0.010324994659423827,-7.333439685058593,7.930344086456298
1789799300998323700,3.94732373046875,-0.014963760375976562,-7.354089674377441,8.053196559143066
1789799301008295400,3.95729541015625,-0.5976525894165039,-7.1887401222229,8.814851962280272
1789799301018267600,3.967267578125,-1.1801917808532714,-6.996755076599121,9.883264453125
1789799301028239600,3.977239501953125,-1.5158289260864257,-7.170484334564208,10.601824226379394
1789799301038212600,3.987212646484375,-1.4879963317871092,-7.438036370086669,11.277288369750975
1789799301048184600,3.9971845703125,-1.1647791076660157,-7.525275093078613,11.958438742065429
1789799301058156500,4.007156494140625,-0.9955389778137207,-7.246949150085449,12.29003567199707
1789799301068129500,4.017129638671875,-1.0402806213378906,-6.5482911781311035,12.546065612030029
1789799301078101800,4.027101806640625,-1.3820529083251953,-6.316801805114745,12.058845574188231
1789799301088073500,4.037073486328125,-1.9633949989318846,-6.109104811096191,11.516109985351562
1789799301098046500,4.04704638671875,-2.0096330184936524,-6.075286712646484,11.024251181793213
1789799301108018700,4.057018798828125,-1.6894085464477537,-6.1179334297180175,10.978312437438964
1789799301117990400,4.066990478515625,-1.5064017570495605,-6.471227812194824,10.755352407836913
1789799301127962600,4.076962646484375,-1.0779892974853515,-6.442647029876708,10.805331367492675
1789799301137935600,4.086935546875,-0.5422866760253906,-6.420500664520263,10.783783552551268
1789799301147907600,4.096907470703125,-0.27144261322021485,-6.505943736267089,10.395473970794677
1789799301157879600,4.106879638671875,0.11656769332885741,-6.35840105895996,10.479121391296387
1789799301167852500,4.1168525390625,0.0665887336730957,-6.6784758934021,9.931148486328125
1789799301177824500,4.126824462890625,0.2570774032592773,-6.9804445777893065,9.540295065307618
1789799301187796500,4.13679638671875,0.4653729476928711,-7.10569125213623,8.891765690612793
1789799301197769700,4.146769775390625,0.4240729690551758,-6.89530078125,8.482057931518554
1789799301207741400,4.156741455078125,0.37663784866333005,-6.528838289642334,8.462754680633545
1789799301217713700,4.166713623046875,0.6715735656738281,-6.089951197814941,8.548048114776611
1789799301227686700,4.176686767578125,1.3682862487792968,-5.632658680725097,7.859864775085449
1789799301237658600,4.18665869140625,1.2101193016052245,-5.0571524566650385,6.581361088562011
1789799301247630600,4.196630615234375,0.7811082916259765,-4.1849148643493645,5.191527024841308
1789799301257603600,4.206603515625,0.3067570877075195,-3.1411925781249996,4.005499377441406
1789799301267575600,4.216575439453125,0.13826514587402344,-2.22166950302124,3.3444004440307613
1789799301277547500,4.226547607421875,-0.16175824966430663,-1.5952864936828612,2.9290064559936524
1789799301287520800,4.236520751953125,-0.6898293533325195,-1.2599486236572266,2.5974095260620116
1789799301297492500,4.246492431640625,-0.97039986038208,-1.0914566818237303,2.3343466186523436
1789799301307464700,4.256464599609375,-0.6600514701843261,-1.0393827957153319,2.2780828796386716
1789799301317436700,4.266436767578125,-0.2539350135803223,-1.0730512565612793,2.17064308013916
1789799301327409200,4.2764091796875,-0.3633201019287109,-1.2937667221069336,1.840692163848877
1789799301337381400,4.28638134765625,-0.5765536872863769,-1.393724641418457,1.7573440185546874
1789799301347353300,4.296353271484375,-0.5541080467224121,-1.3262380821228026,1.9231424835205078
1789799301357326300,4.306326416015625,-0.19033903198242186,-1.3220482292175293,1.5322890624999999
1789799301367298300,4.31629833984375,-0.042646717071533204,-1.0428244606018067,1.151162085723877
1789799301377270300,4.326270263671875,-0.4207809417724609,-0.689530078125,1.7233762825012207
1789799301387243300,4.3362431640625,-0.5419874008178711,-0.6877344268798827,2.6626515213012696
1789799301397215500,4.346215576171875,-0.5571007987976074,-1.0971429107666015,3.5781343811035153
1789799301407187200,4.356187255859375,-0.934037922668457,-1.8139070327758788,4.1563340820312495
1789799301417160200,4.36616015625,-1.3084312072753905,-2.5602994003295896,4.743811314392089
1789799301427132400,4.37613232421875,-1.4713865577697753,-3.0481179885864256,5.510704033660889
1789799301437104000,4.386104248046875,-1.5514426757812498,-3.4638112518310544,6.313659415435791
1789799301447077400,4.396077392578125,-1.731456713104248,-4.113537727355957,6.965480817413329
1789799301457049000,4.406049072265625,-1.8436849159240722,-5.0583495574951165,7.294533908081054
1789799301467021300,4.416021240234375,-1.957409494781494,-6.10296966934204,7.5716627502441405
1789799301476994300,4.425994384765625,-1.9445406608581541,-7.205649171447753,7.711723547363281
1789799301486966000,4.435966064453125,-1.7108067237854003,-8.00007520980835,7.848641954803466
1789799301496938200,4.445938232421875,-1.4124293418884277,-8.407089492034912,8.105120807647705
1789799301506911200,4.4559111328125,-1.0797849487304687,-8.429984045410155,8.415319560241699
1789799301516883200,4.46588330078125,-0.7942764007568359,-8.649352772521972,8.630199159240723
1789799301526855200,4.475855224609375,-0.6361094535827636,-8.490287999725341,9.100959060668945
1789799301536827400,4.485827392578125,-0.5765536872863769,-8.348880464172362,9.680206224822998
1789799301546800000,4.495800048828125,-0.5907692596435546,-8.464550331878662,10.180295096588134
1789799301556772400,4.5057724609375,-0.6069301208496093,-8.728361427307128,10.619631101226807
1789799301566744300,4.515744384765625,-0.8635586112976074,-8.955810585021972,10.915913556671143
1789799301576717000,4.525717041015625,-0.9247603912353515,-8.998606939697265,10.995071849060057
1789799301586689300,4.535689208984375,-0.8078934226989746,-8.311022150421142,11.054627615356445
1789799301596661200,4.5456611328125,-0.879719472503662,-7.448062089538574,11.229254698944091
1789799301606634200,4.55563427734375,-1.3236942428588867,-6.9241808387756345,11.09637650680542
1789799301616606200,4.565606201171875,-1.590348452758789,-7.001543479919433,10.921599785614013
1789799301626578400,4.575578369140625,-1.795202332305908,-6.934505833435058,11.573421187591553
1789799301636551200,4.58555126953125,-1.2440870376586914,-7.022043831634521,11.731438497161864
1789799301646523100,4.595523193359375,-0.7803601036071777,-7.241262921142578,11.778125429534912
1789799301656495400,4.605495361328125,-0.3586813362121582,-7.727136220550537,11.707646118164062
1789799301666468000,4.615468017578125,-0.1592144104003906,-7.8152727691650385,11.811644252777098
1789799301676440300,4.6254404296875,-0.5746083984375,-7.798363719940185,11.499350573730467
1789799301686412300,4.635412353515625,-0.5526116706848144,-7.608024687957763,11.116278308105468
1789799301696385000,4.645385009765625,-0.0022445640563964844,-7.203703882598877,10.367042826080322
1789799301706357200,4.655357177734375,-0.03516483688354492,-6.5491890037536615,9.892093071746826
1789799301716329200,4.6653291015625,-0.8845078758239746,-5.801599535369872,10.231471157073974
1789799301726302200,4.67530224609375,-1.137096150970459,-5.490951869964599,10.331129801177978
1789799301736274200,4.685274169921875,-0.6117185241699218,-5.561580818939209,9.855431858825684
1789799301746246400,4.695246337890625,-0.29089550170898437,-5.66288547668457,9.323769452667236
1789799301756219100,4.70521923828125,-0.45190556335449217,-5.8551697975158685,9.113977532196044
1789799301766191400,4.71519140625,-0.6775590698242188,-6.215497147369384,9.330054232025146
1789799301776163300,4.725163330078125,-0.4933551795959472,-6.90742142715454,9.46846901550293
1789799301786136000,4.735135986328125,0.09038111267089843,-7.553556600189209,9.509469718933104
1789799301796108300,4.7451083984375,0.594959112548828,-7.787589812469482,9.554061724853515
1789799301806080300,4.755080322265625,0.4767454055786133,-7.652167781066894,9.693374333953857
1789799301816053200,4.76505322265625,-0.09337386474609374,-7.267748777008056,9.564386719512939
1789799301826025200,4.775025146484375,-0.7220014381408691,-6.804470755767822,9.40397520828247
1789799301835997400,4.78499755859375,-1.2502221794128416,-6.68386284713745,9.285611863708496
1789799301845970200,4.79497021484375,-1.6683096443176268,-6.767510267639159,9.252093040466308
1789799301855942100,4.804942138671875,-1.8882769218444824,-7.070676052856445,9.309254605102538
1789799301865914400,4.814914306640625,-1.9015946685791014,-7.392546538543701,9.4618849609375
1789799301875887000,4.82488720703125,-1.7063175956726073,-7.7310267982482905,9.704746791839598
1789799301885859300,4.834859375,-1.6493056686401366,-7.989750215148925,9.950302099609374
1789799301895831300,4.844831298828125,-1.6840215927124023,-7.865700641632079,10.115202738952636
1789799301905804000,4.854803955078125,-1.7682675636291503,-7.586626510620117,10.039935024261474
1789799301915776300,4.8647763671875,-1.6415245132446288,-7.401674432373047,9.798569569396973
1789799301925748200,4.874748291015625,-1.574337229156494,-6.972962697601318,9.694122521972655
1789799301935721200,4.88472119140625,-1.6054618507385252,-6.627000557708739,9.577554828643798
1789799301945693200,4.894693115234375,-1.4606126502990722,-6.385036552429199,9.789292037963866
1789799301955665400,4.90466552734375,-1.0027215827941893,-6.69104545211792,10.087968695068358
1789799301965638100,4.91463818359375,-0.5470750793457031,-6.964283716583251,10.41283193283081
1789799301975610400,4.9246103515625,-0.22939444656372068,-7.02309129486084,10.988188519287108
1789799301985582300,4.934582275390625,-0.04369418029785156,-6.763619689941406,11.867010166168212
1789799301995555000,4.94455517578125,-0.22954408416748046,-6.997952177429199,12.12932488555908
1789799302005527300,4.95452734375,-0.49155952835083006,-7.510161695098876,11.748497183990478
1789799302015499300,4.964499267578125,-0.7293336807250976,-7.685387329101562,11.337143411254882
1789799302025472300,4.97447216796875,-0.5704185455322265,-7.401824069976806,10.627412256622314
1789799302035444200,4.9844443359375,-0.5419874008178711,-6.943184814453125,9.821464122772216
1789799302045416400,4.99441650390625,-0.3333925811767578,-6.324882235717773,8.856151940917968
1789799302055389200,5.00438916015625,0.07781155395507812,-5.5641246582031245,7.969249863433838
1789799302065361200,5.014361083984375,-0.0570119270324707,-5.021089794158935,7.2249524223327635
1789799302075333400,5.02433349609375,0.07781155395507812,-4.273949238586425,6.481552806854248
1789799302085306000,5.03430615234375,0.729034405517578,-3.901351605224609,5.368548310089111
1789799302095278300,5.0442783203125,1.1206360145568848,-3.706673082733154,4.525190775299072
1789799302105250300,5.054250244140625,0.972943699645996,-3.2713772933959957,3.838803086853027
1789799302115223300,5.064223388671875,0.6820481979370117,-2.623296831512451,3.2007483444213864
1789799302125195300,5.0741953125,0.711227530670166,-2.2545897758483884,2.16405902557373
1789799302135167500,5.08416748046875,0.6239888076782226,-1.9635446365356444,1.0200795448303221
1789799302145140200,5.09414013671875,-0.1005564697265625,-1.0033201332092285,0.6368576416015624
1789799302155112200,5.1041123046875,-0.7231985389709472,0.12898761444091797,0.7918821990966797
1789799302165084400,5.11408447265625,-0.7550713485717773,0.6998550727844238,1.0248679481506346
1789799302175057200,5.12405712890625,-0.6619967590332031,0.5687725318908691,1.216852993774414
1789799302185029400,5.134029296875,-0.5096656784057617,-0.17687164764404295,1.20667763671875
1789799302195001300,5.14400146484375,-0.33099837951660155,-0.9941922393798828,1.2330138549804688
1789799302204974000,5.15397412109375,-0.16549918975830077,-1.4366706336975097,1.4637550399780273
1789799302214946300,5.1639462890625,-0.38232407760620113,-1.5150807380676268,2.035370686340332
1789799302224918300,5.173918212890625,-0.7887398094177246,-1.542464419555664,2.9831752685546875
1789799302234891300,5.183891357421875,-0.9349357482910156,-1.60875387802124,3.9290345619201656
1789799302244863200,5.19386328125,-0.9907505744934082,-1.8121113815307617,4.686799387359619
1789799302254835500,5.20383544921875,-1.0787374855041503,-2.161814461517334,4.929212305450439
1789799302264808200,5.21380810546875,-1.2217910346984862,-2.5974095260620116,4.872948566436767
1789799302274780200,5.2237802734375,-1.0975918235778808,-2.9370868865966795,4.962132578277588
1789799302284752100,5.233752197265625,-0.9464578437805176,-3.2026936332702634,5.342810642242432
1789799302294725000,5.24372509765625,-0.8973767097473144,-3.489548919677734,5.9762266189575195
1789799302304697300,5.253697265625,-0.9512462471008301,-3.941155207824707,6.7544917961120605
1789799302314669000,5.2636689453125,-0.9367313995361327,-4.755183772277832,7.439233470916748
1789799302324642300,5.273642333984375,-0.6854898628234863,-5.871779571533203,8.134898690795898
1789799302334614300,5.2836142578125,-0.5834370170593262,-7.5074682182312005,8.92513487625122
1789799302344586200,5.293586181640625,-0.44592005920410155,-9.233837252807616,9.835081144714355
1789799302354559200,5.303559326171875,-0.21487959899902342,-10.359710583496094,10.575188732910156
1789799302364531200,5.31353125,-0.13063362808227538,-11.05178450088501,11.512219407653808
1789799302374503200,5.323503173828125,0.10175357055664062,-11.330110443878173,12.201599848175048
1789799302384476200,5.33347607421875,0.19078794479370115,-11.158925025177002,12.070517307281493
1789799302394448400,5.343448486328125,-0.31528643112182614,-9.945812971496581,11.905766305541992
1789799302404421000,5.353421142578125,-1.054645831298828,-8.649203134918212,11.524938603973387
1789799302414393000,5.36339306640625,-1.3220482292175293,-7.5162968368530265,11.451765815734863
1789799302424365300,5.373365234375,-1.5607202072143553,-7.063044535064697,11.610830588531494
1789799302434338000,5.383338134765625,-1.746869386291504,-7.083395249176025,11.62654253692627
1789799302444310300,5.393310302734375,-1.337460902404785,-7.00363840637207,11.624597248077391
1789799302454282200,5.4032822265625,-0.9220669143676757,-7.042095270538329,10.760290448760985
1789799302464255000,5.4132548828125,-1.3069348312377929,-6.732644705963135,10.192715017700195
1789799302474227200,5.423227294921875,-2.018162361907959,-6.741473324584961,9.814131880187988
1789799302484199200,5.43319921875,-1.9410989959716796,-6.775590698242187,9.686790279388427
1789799302494172200,5.443172119140625,-1.258302610015869,-7.02892716140747,9.037213441467285
1789799302504144100,5.45314404296875,-0.785896694946289,-7.052869178009033,8.854057014465331
1789799302514116400,5.463116455078125,-1.2575544219970702,-7.1972694656372065,8.911218579101561
1789799302524089000,5.473089111328125,-1.6754922492980957,-7.205948446655273,9.200468067169188
1789799302534061300,5.483061279296875,-1.363647483062744,-7.395389653015136,9.463231699371338
1789799302544033300,5.493033203125,-1.1092635566711424,-7.626130838012695,10.124330632781982
1789799302554006000,5.503006103515625,-1.2120645904541014,-7.429806301879882,11.199327178192139
1789799302563978200,5.512978271484375,-1.3582605293273926,-6.861183407592773,11.540500914764404
1789799302573950200,5.5229501953125,-1.2179004570007324,-6.529287202453613,11.213243475341796
1789799302583923200,5.532923095703125,-1.0562918449401855,-6.3341597671508785,10.602871689605712
1789799302593895200,5.542895263671875,-0.7288847679138183,-6.263231542968749,10.133308889007568
1789799302603867400,5.552867431640625,-0.4786906944274902,-6.448931809234619,9.809343476867674
1789799302613840100,5.562840087890625,-0.16864157943725586,-6.682516108703613,9.571120411682129
1789799302623812000,5.57281201171875,0.025139117431640625,-6.656479165649413,9.358335739135741
1789799302633784300,5.582784423828125,-0.05566518859863281,-6.523002423095702,9.05935980682373
1789799302643757000,5.592757080078125,-0.4569932418823242,-6.44174920425415,8.749310691833495
1789799302653729300,5.602729248046875,-1.0232219345092772,-6.452523111724853,8.31835439300537
1789799302663701200,5.612701171875,-1.4131775299072264,-6.495469104003906,8.123077320098876
1789799302673674000,5.622674072265625,-1.4451999771118162,-6.565349864959717,8.175450481414794
1789799302683646200,5.632646240234375,-1.2425906616210938,-6.602759265899658,8.428637306976318
1789799302693618200,5.6426181640625,-0.9636661682128905,-6.5758244972229,9.019107291412354
1789799302703591200,5.652591064453125,-0.9021651130676269,-6.906673239135742,9.204957195281981
1789799302713563100,5.662563232421875,-1.290923607635498,-7.476792509460449,9.313294820404051
1789799302723535400,5.672535400390625,-1.7501614135742187,-7.791779665374755,9.758765966796874
1789799302733508000,5.682508056640625,-1.8255787658691405,-7.832032180786133,10.241347238922119
1789799302743480300,5.692480224609375,-1.2774562232971192,-7.612364178466796,10.657040502166748
1789799302753453300,5.702453369140625,-0.4629787460327148,-7.105092701721191,11.228356873321532
1789799302763425000,5.712425048828125,-0.10250175857543944,-7.200262217712402,11.433360390472412
1789799302773397200,5.722397216796875,-0.541388850402832,-7.436240718841552,11.64494796218872
1789799302783370200,5.732370361328125,-1.3165116378784179,-7.733720275115966,11.619659207153319
1789799302793342200,5.74234228515625,-1.5427636947631835,-7.959373781585693,11.01332763671875
1789799302803314200,5.752314208984375,-1.2597989860534666,-7.32939946975708,10.970680919647217
1789799302813287200,5.762287109375,-0.9877578224182129,-6.6629135826110835,11.101464185333251
1789799302823259100,5.772259033203125,-1.0975918235778808,-6.647351271820068,10.740388647460938
1789799302833231000,5.782231201171875,-0.8264484855651855,-6.667253073120117,10.513238764953613
1789799302843204400,5.792204345703125,-0.7812579292297362,-6.942586264038085,9.919027840423583
1789799302853176000,5.802176025390625,-1.1489175216674803,-7.193528525543212,9.322422714233397
1789799302863148300,5.812148193359375,-0.7435492530822754,-6.903830124664307,9.235632904052734
1789799302873121300,5.822121337890625,-0.6899789909362792,-6.6066498435974115,8.716839331817626
1789799302883093000,5.832093017578125,-0.38232407760620113,-6.253804373931884,8.208819667053222
1789799302893065200,5.842065185546875,0.22655133209228515,-5.840654949951172,7.781305033111572
1789799302903038200,5.8520380859375,-0.036361937713623046,-5.5440732192993165,6.865373260498046
1789799302913010200,5.86201025390625,0.11985972061157225,-4.868160163116455,6.242132640838623
1789799302922983200,5.871983154296875,0.5505167442321777,-4.126107286071777,5.3016603012084955
1789799302932955400,5.881955322265625,0.7989151664733887,-3.2255881866455076,4.567388579559326
1789799302942927000,5.891927001953125,0.5485714553833008,-2.3719056571960446,3.8467338798522945
1789799302952900000,5.901900146484375,0.1892915687561035,-1.8269255043029784,3.079092972564697
1789799302962872300,5.911872314453125,-0.029179332733154296,-1.5361796401977539,2.6774656440734863
1789799302972844000,5.921843994140625,-0.5002385093688965,-1.3639467582702636,1.95995333404541
1789799302982817300,5.9318173828125,-1.258302610015869,-0.9005190994262695,1.449838742828369
1789799302992789200,5.941789306640625,-1.7968483459472655,-0.17028759307861327,1.7805378471374511
1789799303002761200,5.95176123046875,-0.9923965881347656,0.2166752502441406,1.8436849159240722
1789799303012734200,5.961734130859375,-0.11148001480102539,-0.356885684967041,1.3916297149658203
1789799303022706200,5.9717060546875,-0.0016460136413574218,-1.0007762939453124,0.9632172554016113
1789799303032678100,5.98167822265625,-0.4079121078491211,-0.9775824653625488,0.9108440940856933
1789799303042651100,5.991651123046875,-0.4070142822265625,-0.8014590057373047,1.1360486877441405
1789799303052623400,6.001623291015625,-0.13437456817626953,-0.7324760704040527,1.504755743408203
1789799303062595000,6.011594970703125,-0.35299510726928707,-0.8207622566223144,2.0618565422058106
1789799303072568000,6.021568115234375,-0.8204629814147949,-1.1553519386291504,2.9501053581237793
1789799303082540300,6.031540283203125,-0.9805752174377441,-1.6733973228454588,3.9597102706909175
1789799303092513300,6.04151318359375,-0.7308300567626953,-2.135478243255615,4.701463872528076
1789799303102485200,6.0514853515625,-0.5114613296508789,-2.543390351104736,5.2636523498535155
1789799303112457200,6.061457275390625,-0.6356605407714844,-3.0439281356811523,5.57998624420166
1789799303122430200,6.07143017578125,-0.9657610946655273,-3.648464054870605,5.8171618461608885
1789799303132402200,6.081402099609375,-1.139639990234375,-4.266467358398438,6.4478843460083
1789799303142374400,6.09137451171875,-1.3874398620605468,-4.90975941696167,7.340622290039062
1789799303152347400,6.101347412109375,-1.537227103424072,-5.734561888885498,8.186822939300537
1789799303162319000,6.111319091796875,-1.3664905975341797,-6.84352617034912,8.970923983001708
1789799303172291300,6.121291259765625,-0.9909002120971679,-8.11424870147705,9.874435834503172
1789799303182264000,6.13126416015625,-0.9142857589721679,-9.696367086029053,10.941501586914061
1789799303192236300,6.141236328125,-0.7160159339904785,-11.006593944549559,11.730690309143066
1789799303202208300,6.151208251953125,-0.37484219741821284,-11.561450179290771,12.229282804870605
1789799303212181000,6.161180908203125,-0.19737199935913086,-11.465233200073241,12.128427059936524
1789799303222153200,6.1711533203125,-0.5698199951171875,-10.972925483703612,11.74056639099121
1789799303232126200,6.181126220703125,-1.1517606361389159,-9.808146376037596,11.805060198211669
1789799303242098200,6.19109814453125,-1.3410522048950195,-8.438363751220702,11.579257054138182
1789799303252070100,6.201070068359375,-1.2722189071655272,-7.11856008605957,10.970531282043456
1789799303262043100,6.211043212890625,-1.6168343086242676,-6.305728622436523,10.774206745910645
1789799303272015000,6.22101513671875,-2.0034978767395017,-6.119878718566894,10.920103409576415
1789799303281987000,6.230987060546875,-1.8275240547180174,-6.494122365570068,11.294795969390869
1789799303291960300,6.240960205078125,-1.2401964599609374,-6.889614552307129,11.382184329986572
1789799303301932000,6.25093212890625,-0.9066542411804198,-7.165546293640136,11.111489904785156
1789799303311904300,6.260904296875,-1.126920793914795,-7.192929975128173,11.141417425537108
1789799303321878000,6.2708779296875,-1.0178349807739258,-7.229890463256836,10.517278980255126
1789799303331850000,6.28085009765625,-0.7817068420410156,-7.111527118682861,9.709086282348633
1789799303341823000,6.290822998046875,-1.019032081604004,-7.033715564727783,9.042750032806396
1789799303351795000,6.300794921875,-1.2822446266174317,-7.1775173019409175,8.898200107574462
1789799303361767200,6.31076708984375,-1.2900257820129393,-7.3849150207519525,8.844929120635985
1789799303371740000,6.320739990234375,-0.6443395217895508,-7.39269617614746,9.181613729095458
1789799303381712000,6.3307119140625,-0.6874351516723632,-6.904727950286865,9.963170933532714
1789799303391684000,6.34068408203125,-0.8158242156982422,-6.297348916625976,10.578031847381592
1789799303401656800,6.35065673828125,-0.9136872085571288,-6.282834069061279,10.275314974975585
1789799303411629000,6.360629150390625,-0.9591770401000976,-6.1170356040954585,10.022277787017822
1789799303421602000,6.37060205078125,-0.7752724250793457,-6.139331607055664,9.569324760437011
1789799303431573800,6.38057373046875,-0.46462475967407224,-6.2009822998046875,9.030330111694335
1789799303441546000,6.3905458984375,-0.40970775909423823,-6.457610790252685,8.915408432006835
1789799303451519000,6.40051904296875,-0.5698199951171875,-7.006631158447266,9.048885174560546
1789799303461491000,6.410490966796875,-0.6402993064880371,-7.570914562225341,9.366565807342528
1789799303471463000,6.420462890625,-0.6380547424316406,-7.931541187286377,9.588328736114502
1789799303481436000,6.430435791015625,-0.5358522590637207,-7.860762600708007,9.574861351776123
1789799303491408000,6.440407958984375,-0.5502174690246582,-7.492504457855224,9.277531433105468
1789799303501380900,6.450380859375,-1.0254664985656738,-7.135469135284423,9.12983911819458
1789799303511353000,6.46035302734375,-1.5722423027038572,-7.034912665557861,9.150788382720947
1789799303521324800,6.47032470703125,-1.6717513092041014,-7.163451367187499,8.95102218170166
1789799303531298000,6.480298095703125,-1.4576198982238768,-7.29079296798706,8.93156929321289
1789799303541270000,6.49027001953125,-1.7133505630493162,-7.68044928817749,9.17368293609619
1789799303551242000,6.500241943359375,-2.0896891365051267,-8.029254542541503,9.68529390335083
1789799303561215000,6.510215087890625,-2.158522434234619,-8.199242860412598,10.52820252532959
1789799303571187000,6.52018701171875,-1.4395137481689453,-8.048258518218994,11.311405743408203
1789799303581160200,6.53016015625,-0.4982932205200195,-7.475146495819091,11.473014355468749
1789799303591132000,6.5401318359375,-0.32576106338500976,-7.435941443634033,11.199626453399658
1789799303601104100,6.550104248046875,-0.9298480697631836,-7.336731712341308,11.098321795654297
1789799303611077000,6.5600771484375,-1.4318822303771972,-7.505373291778564,10.382904412078856
1789799303621048800,6.570048828125,-1.1355997749328612,-7.6005428077697745,9.669581954956055
1789799303631021000,6.58002099609375,-0.8071452346801757,-6.968024656677246,9.647884502410887
1789799303640994000,6.589994140625,-1.0001777435302734,-6.3615434486389155,9.527725506591796
1789799303650966000,6.599966064453125,-0.9341875602722167,-6.087856271362305,9.565583820343017
1789799303660939000,6.60993896484375,-1.3480851722717284,-6.277596752929687,9.648931965637207
1789799303670911000,6.619910888671875,-1.1739070014953612,-6.431573847198486,10.305841046142577
1789799303680883000,6.629883056640625,-1.0555436569213867,-6.764367877960205,10.408043529510497
1789799303690856000,6.63985595703125,-1.2146084297180175,-7.030573175048827,10.152013589477539
1789799303700828200,6.649828125,-1.0187328063964842,-7.123947039794921,9.996390481567381
1789799303710801000,6.65980078125,-0.4611830947875976,-7.155670211791992,9.533561373138427
1789799303720772900,6.66977294921875,0.06688800888061523,-6.94602792892456,8.701426658630371
1789799303730744800,6.679744873046875,0.5172971961975097,-6.068702658081055,7.895179249572753
1789799303740717800,6.6897177734375,0.3076549133300781,-4.975599962615966,6.718429133605957
1789799303750690000,6.69968994140625,0.5738602104187012,-3.944896147918701,5.716455738830566
1789799303760661800,6.709661865234375,0.7490858444213867,-3.1139585342407226,4.713285243225098
1789799303770635000,6.719635009765625,0.46627077331542965,-2.5010429092407227,3.7391444427490232
1789799303780607000,6.72960693359375,0.013617021942138671,-2.2330419609069825,3.0098107620239256
1789799303790580000,6.739580078125,-0.45415012741088867,-1.9752163696289062,2.2795792556762695
1789799303800552000,6.749552001953125,-0.5069722015380859,-1.6645687042236328,1.7480664871215819
1789799303810524000,6.75952392578125,-0.5624877525329589,-1.2888286811828613,1.2114660400390624
1789799303820497200,6.7694970703125,-0.6353612655639648,-0.5015852478027344,0.9564835632324218
1789799303830468900,6.77946875,-0.6411971321105957,0.486471849822998,0.9154828598022461
1789799303840441900,6.78944189453125,-0.5358522590637207,0.7628525039672851,1.089810668182373
1789799303850414000,6.7994140625,-0.1806125877380371,0.2059013427734375,1.3422493057250975
1789799303860385800,6.8093857421875,0.07796119155883789,-0.1967734489440918,1.8573019378662108
1789799303870359000,6.819359130859375,-0.08304887008666992,-0.4390367294311523,2.482637483978271
1789799303880331000,6.8293310546875,-0.4782417816162109,-0.7356184600830078,3.033303865814209
1789799303890303700,6.8393037109375,-0.7665934440612793,-1.1273697067260742,3.2430957862854
1789799303900276000,6.84927587890625,-0.9855132583618164,-1.5640122344970702,3.385401147460937
1789799303910248000,6.859248046875,-1.2847884658813475,-1.904437783050537,3.8154596206665037
1789799303920221000,6.869220947265625,-1.3320739486694335,-2.076371389770508,4.714332706451415
1789799303930193000,6.87919287109375,-1.0538976432800293,-2.250549560546875,5.768529624938965
1789799303940166000,6.889165771484375,-0.8215104446411132,-2.717568521881103,6.439654277801513
1789799303950137900,6.899137939453125,-0.7383119369506835,-3.5194764404296874,6.458508615875243
1789799303960109800,6.90910986328125,-0.9322422714233398,-4.499902020263671,6.252008722686767
1789799303970083000,6.9190830078125,-1.1239280418395996,-5.488108755493164,6.4457894195556635
1789799303980054800,6.9290546875,-1.214907704925537,-6.393416258239745,7.24590168685913
1789799303990028000,6.939028076171875,-1.1435305679321288,-7.3675570587158195,8.052897283935547
1789799304000000000,6.949,-0.9280524185180663,-8.494328215026854,8.792256684112548
1789799304009972000,6.958971923828125,-0.8979752601623535,-9.763853645324707,9.638756608581543
1789799304019945000,6.968945068359375,-1.0316016403198243,-10.635043774414061,10.633098485565185
1789799304029917000,6.9789169921875,-0.7023989120483398,-11.108197877502441,11.687744316864013
1789799304039890200,6.98889013671875,-0.19258359603881836,-11.325322040557861,12.310236748504638
1789799304049862000,6.99886181640625,-0.13287819213867186,-10.98025772628784,12.381015335083006
1789799304059835000,7.0088349609375,-0.526125814819336,-9.701604402160644,11.834838081359862
1789799304069807000,7.01880712890625,-1.036838956451416,-8.313565989685058,11.015871475982665
1789799304079778800,7.02877880859375,-1.1103110198974608,-7.141305001831054,10.216357759094238
1789799304089752000,7.038751953125,-1.3934253662109375,-6.525396624755859,9.949404273986817
1789799304099724000,7.04872412109375,-2.009782656097412,-6.47362201385498,10.090811809539794
1789799304109696800,7.05869677734375,-2.0033482391357422,-6.720972972869872,10.49573116531372
1789799304119669000,7.0686689453125,-1.3935750038146972,-7.040449256896972,10.409839180755615
1789799304129641000,7.078640869140625,-0.9178770614624023,-7.381174080657958,10.55304236755371
1789799304139614000,7.088614013671875,-1.1315595596313477,-7.408557762145995,10.861146193695067
1789799304149586000,7.0985859375,-0.9992799179077148,-7.255628131103515,10.736946982574462
1789799304159559000,7.108558837890625,-0.9469067565917968,-7.244704586029052,10.75146183013916
1789799304169531000,7.11853076171875,-1.206079086303711,-7.1595607894897455,10.683675995635985
1789799304179503900,7.12850390625,-1.3293804718017577,-7.280467973327636,10.649408984374999
1789799304189476000,7.13847607421875,-0.8087912483215332,-6.994959425354003,10.326042122650145
1789799304199447800,7.14844775390625,-1.0242693977355957,-6.7471595535278315,10.291326198577881
1789799304209420800,7.1584208984375,-1.1167454368591307,-6.8113540855407715,10.564265187835693
1789799304219393000,7.16839306640625,-1.1284171699523926,-6.910114904022216,10.560075334930419
1789799304229366000,7.178365966796875,-1.005564697265625,-6.687454149627685,10.549301427459715
1789799304239338000,7.188337890625,-0.9790788414001464,-6.456862602233886,10.34863740081787
1789799304249310000,7.19831005859375,-1.0538976432800293,-6.406734004974365,10.075249498748779
1789799304259283000,7.208282958984375,-0.9911994873046874,-6.421248852539062,9.787646024322509
1789799304269255000,7.2182548828125,-0.7297825935363769,-6.32084202041626,9.54523310623169
1789799304279228000,7.228227783203125,-0.5790975265502929,-6.436511888122558,9.290699542236327
1789799304289200000,7.2382001953125,-0.6726210289001464,-6.7106479782104484,9.01461816329956
1789799304299172900,7.2481728515625,-0.9056067779541015,-7.004087319183349,8.965686666870116
1789799304309145000,7.25814501953125,-1.2589011604309082,-7.407360661315917,8.983493541717529
1789799304319117000,7.268116943359375,-1.405845287322998,-7.729680059814453,8.956259497833251
1789799304329089300,7.27808935546875,-1.0975918235778808,-7.751826425170898,8.93141965560913
1789799304339061200,7.288061279296875,-0.7565677246093749,-7.563283044433593,8.747515040588379
1789799304349034200,7.2980341796875,-1.1270704315185547,-7.465868964385986,8.4651488822937
1789799304359006500,7.30800634765625,-1.448641641998291,-7.284807463836669,8.366238426208495
1789799304368979200,7.317979248046875,-1.4859014053344726,-7.203703882598877,8.244732691955566
1789799304378951400,7.327951416015625,-1.4202104972839356,-7.056610118103027,8.109759573364258
1789799304388923400,7.33792333984375,-1.683572679901123,-6.777835262298583,8.551489779663086
1789799304398896000,7.347896240234375,-1.948580876159668,-6.699874070739746,9.395296227264403
1789799304408868400,7.357868408203125,-1.5007155281066893,-6.755239984130859,10.356119281005858
1789799304418841300,7.36784130859375,-0.9240122032165526,-6.804171480560302,11.4032832321167
1789799304428813300,7.377813232421875,-0.8218097198486327,-7.1297829063415525,12.059144849395752
1789799304438786300,7.387786376953125,-1.0402806213378906,-7.448959915161132,12.154164727783202
1789799304448758300,7.39775830078125,-1.2633902885437012,-7.968501675415038,11.337592324066161
1789799304458731500,7.4077314453125,-0.9343371978759765,-7.8639049903869624,10.340407332611083
1789799304468703200,7.417703125,-0.6820481979370117,-7.052270627593994,9.847351428222655
1789799304478675500,7.427675537109375,-0.8215104446411132,-6.498761131286621,9.498546173858642
1789799304488648400,7.4376484375,-1.1095628318786621,-6.328024625396728,9.67811129837036
1789799304498620200,7.4476201171875,-1.1716624374389648,-6.357503233337402,10.124180995178222
1789799304508593400,7.457593505859375,-1.2605471740722656,-6.53766690826416,10.339659144592284
1789799304518565400,7.4675654296875,-1.722478456878662,-6.909815628814697,10.114304913330077
1789799304528538000,7.4775380859375,-1.2041337974548338,-6.891709478759765,9.89598364944458
1789799304538510300,7.48751025390625,-0.814627114868164,-6.783371853637695,9.451260691070557
1789799304548483300,7.4974833984375,-0.7185597732543945,-6.515370905303954,8.794052335357666
1789799304558455300,7.507455322265625,-0.07212532501220703,-5.998223346710205,7.9752353675842285
1789799304568427300,7.51742724609375,0.43364977569580077,-5.223399834442138,7.166444119262695
1789799304578400300,7.527400146484375,0.8291419624328613,-4.4002433761596675,6.5303346656799315
1789799304588372200,7.537372314453125,0.39444472351074217,-4.025101903533935,5.683385828399658
1789799304598345200,7.54734521484375,0.3908534210205078,-3.3125276344299315,5.302558126831054
1789799304608317400,7.5573173828125,0.17163433151245117,-2.6013001037597654,4.61572152557373
1789799304618290400,7.56729052734375,-0.10848726272583008,-2.1121347770690915,3.8605005393981933
1789799304628262400,7.577262451171875,-0.45878889312744137,-1.6154875701904297,2.9768904891967773
1789799304638235400,7.5872353515625,-0.7706336593627929,-1.263539926147461,2.216132911682129
1789799304648207400,7.597207275390625,-0.45115737533569333,-0.8915408432006835,1.8001403732299803
1789799304658180400,7.607180419921875,-0.8595183959960937,-0.3064578125,1.43652099609375
1789799304668152300,7.61715234375,-0.8445546356201171,0.09771335525512695,1.2547113075256346
1789799304678125300,7.627125244140625,-0.5351040710449219,-0.18959084396362302,1.2005424949645995
1789799304688097300,7.63709716796875,-0.476895043182373,-0.5876268699645996,1.3224971420288085
1789799304698069200,7.6470693359375,-0.4016273284912109,-0.6009446166992187,1.792658493041992
1789799304708042500,7.65704248046875,-0.3892074073791504,-0.5789478889465332,2.1230583221435544
1789799304718014200,7.66701416015625,-0.6099228729248046,-0.7318775199890136,2.1398177337646485
1789799304727987200,7.6769873046875,-0.7680898200988769,-1.0296563514709471,2.395398760986328
1789799304737959400,7.68695947265625,-0.4923077163696289,-1.2886790435791016,3.1757588645935058
1789799304747932400,7.696932373046875,-0.369006330871582,-1.5342343513488768,3.974674031066894
1789799304757904400,7.706904296875,-0.7423521522521972,-1.9116203880310056,4.486135360717773
1789799304767877400,7.71687744140625,-1.314566349029541,-2.3900118072509766,4.905569564056396
1789799304777849300,7.726849365234375,-1.4408604866027832,-2.9104513931274414,5.6181438331604
1789799304787822300,7.736822265625,-1.0588356842041016,-3.424456562042236,6.6525885879516595
1789799304797794300,7.746794189453125,-0.9440636421203613,-4.042459865570068,7.615955480957031
1789799304807767300,7.756767333984375,-1.3359645263671873,-4.957793087768555,8.20373198852539
1789799304817739300,7.7667392578125,-1.8107646430969238,-5.915324114227294,8.741230261230468
1789799304827712300,7.776712158203125,-1.9313725517272948,-6.839037042236328,9.336189373779296
1789799304837684500,7.7866845703125,-1.7491139503479003,-7.737461215209961,9.980977808380127
1789799304847657500,7.796657470703125,-1.3452420578002928,-8.531438340759276,10.351330877685546
1789799304857629200,7.806629150390625,-1.032948378753662,-9.330503144836426,10.794557460021972
1789799304867602400,7.8166025390625,-0.6118681617736816,-9.797671743774414,11.093832667541504
1789799304877574400,7.826574462890625,-0.36107553787231444,-10.027215827941895,11.10879642791748
1789799304887547100,7.836547119140625,-0.26755203552246093,-9.873238733673094,10.905588562011719
1789799304897519400,7.846519287109375,-0.7758709754943848,-9.23159268875122,10.82194114151001
1789799304907491300,7.8564912109375,-1.3187562019348145,-8.625710031127928,10.709712938690185
1789799304917464300,7.86646435546875,-0.9510966094970703,-8.016684983825684,10.772261457061767
1789799304927436300,7.876436279296875,-0.8473977500915527,-7.432948691558837,10.786776304626464
1789799304937409300,7.8864091796875,-0.6280290229797363,-7.0269818725585935,10.679037229919434
1789799304947381200,7.89638134765625,-0.619948592376709,-6.77379504699707,10.562020623779297
1789799304957354200,7.906354248046875,-1.3148656242370604,-6.496516567230224,10.588207204437255
1789799304967326500,7.916326416015625,-1.3064859184265136,-6.576722322845459,10.600627125549316
1789799304977299500,7.926299560546875,-1.343895319366455,-6.843226895141601,10.659285066223143
1789799304987271400,7.936271484375,-1.0992378372192382,-6.886771437835693,10.85979945526123
1789799304997244400,7.946244384765625,-1.1852794593811034,-7.050474976348877,10.745476325988768
1789799305007216000,7.956216064453125,-1.654842259979248,-7.27163935470581,10.219200873565674
1789799305017189400,7.966189453125,-1.7368436668395995,-7.250390814971923,9.85752678527832
1789799305027161300,7.976161376953125,-1.4864999557495115,-7.173626724243164,9.383774131774901
1789799305037134300,7.98613427734375,-0.9829694190979004,-7.052569902801514,9.340977777099608
1789799305047106300,7.996106201171875,-0.5783493385314941,-6.460154629516601,9.496900160217285
1789799305057079300,8.006079345703125,-0.622492431640625,-6.051793608856201,9.534608836364745
1789799305067052300,8.01605224609375,-1.2785036865234374,-6.137087042999267,9.72300257949829
1789799305077024300,8.026024169921875,-1.7289128738403319,-6.349572440338134,10.017938296508788
1789799305086997200,8.035997314453125,-1.5059528442382812,-6.647051996612548,10.053402408599853
1789799305096969500,8.045969482421874,-1.3019967903137206,-7.075614093780517,10.019434672546387
1789799305106942500,8.0559423828125,-1.4246996253967283,-7.293486444854736,10.206930590057372
1789799305116914200,8.0659140625,-1.4148235435485839,-7.1583636886596675,10.241646514129638
1789799305126887400,8.075887451171875,-0.9901520240783691,-7.0373068672180175,9.668983404541015
1789799305136859400,8.085859375,-0.528669654083252,-6.954108359527588,8.722675198364257
1789799305146832100,8.09583203125,-0.6892308029174804,-6.771251207733154,8.046911779785155
1789799305156804400,8.105804443359375,-1.401954709625244,-6.768408093261718,8.16542476196289
1789799305166777300,8.11577734375,-1.62162271194458,-7.187393383789062,8.601319101715088
1789799305176749300,8.125749267578126,-1.141585279083252,-7.756016278076172,9.049034812164306
1789799305186722300,8.135722412109375,-0.6606500205993652,-7.971943340301514,9.584288520812988
1789799305196694300,8.1456943359375,-0.4724059150695801,-7.754968814849853,10.225934565734862
1789799305206667500,8.15566748046875,-0.7133224571228027,-7.382221543884277,10.486004721069335
1789799305216639200,8.16563916015625,-0.9047089523315429,-7.147889056396484,9.85079309310913
1789799305226612200,8.1756123046875,-1.268627604675293,-6.973261972808838,9.057713793182373
1789799305236584400,8.18558447265625,-1.941398271179199,-6.7742439598083495,8.996960926055907
1789799305246557200,8.19555712890625,-2.335842994689941,-6.782773303222656,9.370905297851563
1789799305256529400,8.205529296875,-1.8996493797302245,-7.021445281219482,9.93997710494995
1789799305266502400,8.21550244140625,-0.965910732269287,-7.089680028533935,10.593444520568847
1789799305276475400,8.225475341796875,-0.4574421546936035,-7.2906433303833005,11.238382592773437
1789799305286447400,8.235447265625,-0.6337152519226074,-7.550114935302734,11.541997290802001
1789799305296420400,8.24542041015625,-1.1008838508605956,-7.686434792327881,10.7773491355896
1789799305306392300,8.255392333984375,-1.0218751960754393,-7.6461822769165035,9.955689053344726
1789799305316365300,8.265365234375,-1.0628758995056151,-6.830058786010742,9.561393967437743
1789799305326336800,8.275336669921876,-1.215655892944336,-6.111947925567627,9.157671712493896
1789799305336310000,8.28531005859375,-1.4600140998840332,-5.874622686004638,8.985588468170166
1789799305346282000,8.295281982421875,-1.710357810974121,-5.94360562133789,9.15512787322998
1789799305356255000,8.3052548828125,-2.0006547622680664,-6.181080498504638,9.21872385482788
1789799305366227000,8.31522705078125,-1.5610194824218748,-6.278344940948486,9.830741654205323
1789799305376200000,8.325199951171875,-1.2789525993347166,-6.396857923126221,10.070161820220946
1789799305386173000,8.3351728515625,-1.0612298858642577,-6.48634121017456,9.367762908172606
1789799305396145000,8.345144775390626,-0.07377133865356444,-6.271162335968017,8.845826946258544
1789799305406118000,8.355117919921875,-0.2512415367126465,-5.81626402053833,7.891587947082519
1789799305416090000,8.365090087890625,0.14305354919433594,-5.095010770416259,7.001244204711914
1789799305426063000,8.37506298828125,0.3802291511535644,-4.182071749877929,6.281188055419921
1789799305436034800,8.385034912109376,-0.11522095489501953,-3.2014965324401854,5.806088663482666
1789799305446008000,8.395008056640625,-0.7154173835754394,-2.4634838706970212,5.072116217041016
1789799305455980000,8.40497998046875,-1.6338929954528807,-1.9189526306152342,4.049792108154296
1789799305465952800,8.414952880859374,-0.9564835632324218,-1.604414387512207,3.5046623176574707
1789799305475926000,8.424926025390626,-0.3155857063293457,-1.3034931663513183,2.7712884216308593
1789799305485898000,8.43489794921875,0.1514332550048828,-0.8047510330200195,2.109441300201416
1789799305495871000,8.44487109375,-0.11641805572509765,-0.38786066894531246,1.4932336479187012
1789799305505843000,8.454843017578124,-0.24001871643066405,-0.2654571090698242,0.988356372833252
1789799305515816000,8.46481591796875,0.20545242996215818,-0.29927520751953124,0.5178957466125488
1789799305525788200,8.4747880859375,0.4257189826965332,-0.29269115295410153,0.05102642288208008
1789799305535761000,8.484760986328125,0.17732056045532227,-0.19617489852905273,0.2642600082397461
1789799305545734000,8.49473388671875,0.10549451065063475,-0.10384849700927734,1.1133037719726562
1789799305555706000,8.5047060546875,0.20904373245239258,-0.20216040267944335,2.101061594390869
1789799305565679000,8.51467919921875,-0.1083376251220703,-0.5020341606140136,2.8547862045288084
1789799305575650800,8.52465087890625,-0.5957073005676269,-0.8821136741638184,3.5098996337890624
1789799305585624000,8.5346240234375,-0.5289689292907714,-1.2765583976745605,4.077774340057373
1789799305595597000,8.54459716796875,-0.5784989761352539,-1.5795745452880858,4.498555281829834
1789799305605568800,8.55456884765625,-1.1118073959350585,-1.9033903198242186,5.002235456085205
1789799305615542000,8.5645419921875,-1.3070844688415526,-2.236633263397217,5.7992053337097165
1789799305625514000,8.574513916015626,-1.0173860679626465,-2.6574142051696774,6.854150440216064
1789799305635486700,8.58448681640625,-0.9956886154174804,-3.362805869293213,7.653664157104492
1789799305645460000,8.5944599609375,-1.290325057220459,-4.421940828704834,7.926603146362305
1789799305655432000,8.604431884765624,-1.6570868240356444,-5.693261910247802,7.980921596527099
1789799305665405000,8.614405029296876,-1.8433856407165525,-6.936151847076416,8.340351120758056
1789799305675377000,8.624376953125,-1.849520782470703,-7.915230688476562,9.043947133636474
1789799305685350000,8.634349853515625,-1.3679869735717773,-8.54894594039917,9.584138883209228
1789799305695322000,8.644322021484374,-0.632667788696289,-9.140164112854004,9.907655382537842
1789799305705294800,8.654294921875,-0.45938744354248046,-9.67242506942749,10.48286233139038
1789799305715267800,8.664267822265625,-0.5379471855163573,-10.056993711090087,10.781239713287352
1789799305725240000,8.674239990234375,-0.6455366226196289,-10.186280600738526,10.777648410797118
1789799305735213000,8.684213134765624,-1.0992378372192382,-9.937582903289794,10.897358493804932
1789799305745185800,8.694185791015625,-1.650951682281494,-9.501688563537597,10.850521923828124
1789799305755158000,8.704157958984375,-1.6232687255859375,-8.788815019226075,10.75116255493164
1789799305765131000,8.714131103515625,-1.39177935256958,-8.034641496276855,10.590302130889892
1789799305775103000,8.72410302734375,-1.6105495292663574,-7.548618559265137,10.354024354553221
1789799305785076000,8.734075927734375,-1.8932149627685546,-7.265653850555419,10.351330877685546
1789799305795049000,8.744049072265625,-2.1356278808593747,-7.008576447296142,10.551845266723632
1789799305805021000,8.75402099609375,-2.2307973968505856,-7.110180380249023,10.574290907287597
1789799305814994000,8.763993896484376,-2.0801123298645017,-7.4895117057800284,10.5858130027771
1789799305824966000,8.7739658203125,-2.0932804389953614,-7.697657612609863,10.875810678863525
1789799305834939000,8.78393896484375,-1.9234417587280273,-7.8423571754455565,10.805181729888915
1789799305844912000,8.793912109375,-1.797895809173584,-7.656656909179687,10.333823278045653
1789799305854883800,8.8038837890625,-1.8180968856811521,-7.543530880737304,9.50572877883911
1789799305864856800,8.81385693359375,-1.915959878540039,-7.185148819732666,8.975862023925782
1789799305874830000,8.823830078125,-1.765274811553955,-6.81180299835205,8.933664219665527
1789799305884801800,8.8338017578125,-1.3555670524597168,-6.527940464019775,9.316736485290527
1789799305894775000,8.843775146484376,-0.5746083984375,-6.3426891105651855,9.56363853149414
1789799305904747000,8.8537470703125,-0.3215712104797363,-6.276848564910888,9.369558559417724
1789799305914720000,8.863719970703125,-0.996586441040039,-6.312312677001953,9.332897346496582
1789799305924693000,8.87369287109375,-1.6059107635498047,-6.5403603851318355,9.648333415222167
1789799305934665000,8.8836650390625,-1.5990274337768553,-6.997652902221679,9.924265156555176
1789799305944638000,8.893637939453125,-1.2761094848632812,-7.475445771026611,10.094103836822509
1789799305954611000,8.90361083984375,-0.8934861320495605,-7.577348979187011,10.219799423980712
1789799305964583000,8.9135830078125,-0.7727285858154297,-7.312340782928467,10.17056865234375
1789799305974556000,8.923555908203125,-0.7918821990966797,-6.861183407592773,9.840019185638427
1789799305984529000,8.93352880859375,-0.9424176284790039,-6.439205364990234,9.233238702392578
1789799305994500900,8.9435009765625,-1.3412018424987793,-6.240636264801025,8.59338830871582
1789799306004473900,8.953473876953124,-1.7226280944824217,-6.355857219696045,8.297405128479003
1789799306014446800,8.96344677734375,-1.8320131828308104,-6.591386808013915,8.371326104736328
1789799306024419000,8.973419189453125,-1.6662147178649902,-6.810306622314453,8.534281455230712
1789799306034391800,8.983391845703125,-1.4139257179260254,-6.951714157867431,8.554183256530761
1789799306044365000,8.993364990234374,-1.486200680541992,-6.993163774108886,8.79105958328247
1789799306054337000,9.0033369140625,-1.9538181922912596,-7.012467024993896,9.198672415924072
1789799306064310000,9.01331005859375,-2.206406467437744,-7.078307570648193,9.586233809661865
1789799306074283000,9.023282958984375,-2.1511901916503904,-7.179013677978515,10.01763902130127
1789799306084255000,9.0332548828125,-1.573738678741455,-7.128585805511475,10.32978306274414
1789799306094228000,9.04322802734375,-0.9738415252685546,-6.994959425354003,10.600776763153075
1789799306104201000,9.053200927734375,-1.1653776580810546,-7.09970574798584,10.799046588134765
1789799306114173000,9.0631728515625,-1.8581997634887695,-7.283460725402832,10.707618012237548
1789799306124146000,9.07314599609375,-2.2673089721679687,-7.205649171447753,10.666318033599852
1789799306134119000,9.083118896484375,-1.7772458198547363,-7.136965511322021,10.462062704467773
1789799306144091000,9.0930908203125,-1.0913070442199706,-6.912808380889892,10.332177264404296
1789799306154064000,9.10306396484375,-0.8019079185485839,-6.604255641937256,10.526706149291991
1789799306164036900,9.113036865234376,-0.5915174476623535,-6.73563745803833,10.59823292388916
1789799306174008800,9.1230087890625,-1.07245270614624,-6.679822631835937,10.861146193695067
1789799306183981800,9.13298193359375,-1.437119546508789,-6.572981382751465,10.996418587493896
1789799306193955000,9.142955078125,-1.446097802734375,-6.647949822235107,10.45772321395874
1789799306203927000,9.152927001953126,-1.9484312385559082,-6.7365352836608885,10.145878447723389
1789799306213899800,9.162899658203125,-1.697488977050781,-6.706308487701415,10.075099861145018
1789799306223873000,9.172873046875,-1.0556932945251465,-6.553678131866454,9.764751470947266
1789799306233845000,9.182844970703124,-0.47120881423950195,-6.246322493743896,9.293542656707762
1789799306243818000,9.19281787109375,-0.6778583450317383,-6.082170042419433,8.274959487915039
1789799306253791000,9.202791015625,-0.16265607528686524,-5.673659384155273,7.345560330963134
1789799306263763000,9.212762939453125,0.0652419952392578,-4.980089090728759,6.601711802673339
1789799306273736000,9.22273583984375,0.29867665710449215,-4.228010494232177,5.638195272064209
1789799306283709000,9.232708984375,0.3516483688354492,-3.590255027008056,4.566640391540527
1789799306293681000,9.242680908203125,-0.17866729888916014,-2.8464064987182613,3.4448072761535644
1789799306303654000,9.25265380859375,-0.09202712631225586,-1.8697218589782714,2.9056629898071287
1789799306313627000,9.262626953125,-0.5545569595336913,-1.135150862121582,2.3623288505554196
1789799306323600400,9.272600341796876,-0.9142857589721679,-0.7433996154785156,1.8236334770202636
1789799306333572000,9.282572021484375,-0.7468412803649902,-0.3757400230407715,1.2511200050354003
1789799306343545000,9.292545166015625,-0.5400421119689941,0.1744774459838867,0.8671499137878418
1789799306353518300,9.302518310546875,-0.4578910675048828,0.438587816619873,0.5732616600036621
1789799306363490000,9.312489990234376,-0.4779425064086914,0.07826046676635742,0.5533598587036133
1789799306373463000,9.322463134765625,-0.12045827102661132,-0.49949032135009763,0.8213608070373535
1789799306383436300,9.332436279296875,0.11611878051757812,-0.7704840217590332,1.462557939147949
1789799306393409300,9.3424091796875,0.02858078231811523,-0.8524854286193847,2.6713305023193357
1789799306403381000,9.352381103515626,-0.1592144104003906,-1.061678798675537,3.6584897743225095
1789799306413354200,9.362354248046875,-0.404769718170166,-1.36634095993042,4.125508735656738
1789799306423327200,9.3723271484375,-0.9207201759338378,-1.6576853744506834,4.370914405822754
1789799306433299200,9.38229931640625,-1.5795745452880858,-1.9276316116333008,4.752639933013915
1789799306443272200,9.392272216796876,-1.6692074699401855,-2.058564514923096,5.357175852203369
1789799306453245200,9.4022451171875,-1.3919289901733398,-2.126649624633789,5.93088642501831
1789799306463218200,9.41221826171875,-1.3754688537597655,-2.30471837310791,6.51881257019043
1789799306473190400,9.4221904296875,-1.4137760803222656,-2.812139487457275,6.983287692260742
1789799306483163100,9.4321630859375,-1.2651859397888183,-3.5793314819335937,7.385214295959472
1789799306493136100,9.44213623046875,-1.055394019317627,-4.447229583740234,7.827842327880859
1789799306503108400,9.4521083984375,-1.2161048057556152,-5.45219573059082,8.202235612487792
1789799306513081300,9.462081298828124,-1.369483349609375,-6.449679997253417,8.456769176483153
1789799306523054000,9.47205419921875,-1.4302362167358398,-7.51405227279663,8.54894594039917
1789799306533027000,9.482027099609375,-1.2298714653015137,-8.410082244110107,8.761132062530518
1789799306542999300,9.491999267578125,-1.041926634979248,-8.99576382522583,9.16784706954956
1789799306552972300,9.50197216796875,-0.985064345550537,-9.401730644226074,9.847949978637695
1789799306562945000,9.511945068359376,-0.5961562133789062,-9.78704747390747,10.280402653503417
1789799306572918300,9.521918212890625,-0.5083189399719238,-10.024971263885497,10.472836611938476
1789799306582890200,9.53189013671875,-1.09160631942749,-10.271274759674071,10.752359655761719
1789799306592863200,9.54186328125,-1.5716437522888183,-10.263493604278564,11.367070932006834
1789799306602836200,9.551836181640626,-1.3646949462890625,-9.625289224243163,11.895291673278807
1789799306612809200,9.561809326171876,-0.9108440940856933,-8.643067993164061,11.655871507263184
1789799306622781200,9.57178125,-0.9293991569519042,-7.581838107299804,11.31335103225708
1789799306632754400,9.58175439453125,-1.2331634925842285,-6.789058082580566,10.81535708694458
1789799306642727200,9.59172705078125,-1.9755156448364257,-6.38413872680664,10.750115091705322
1789799306652700200,9.6017001953125,-1.9985598358154295,-6.290764862060547,10.942249774932861
1789799306662672400,9.61167236328125,-1.9129671264648436,-6.4649430328369135,11.039963130187987
1789799306672645000,9.62164501953125,-1.6588824752807616,-6.736984196472168,10.977414611816405
1789799306682618000,9.6316181640625,-1.9003975677490232,-7.467215702819824,10.994922211456299
1789799306692591000,9.641591064453126,-2.0178630867004395,-7.963114721679687,11.094580855560302
1789799306702564400,9.651564453125,-1.7494132255554198,-8.042871564483642,11.24257244567871
1789799306712536000,9.6615361328125,-1.8733131614685057,-7.4962453979492185,11.048043560791015
1789799306722509000,9.671509033203124,-1.6955436882019042,-6.555024870300293,10.527005424499512
1789799306732482300,9.681482421875,-1.4471452659606934,-5.746233621978759,10.132560700988769
1789799306742455300,9.691455322265625,-0.9491513206481933,-5.370194323730469,9.602693946075439
1789799306752427000,9.701427001953125,-0.38801030654907226,-5.427206250762939,9.169642720794677
1789799306762400300,9.711400146484374,-0.41793782730102536,-5.794117655181885,9.03392141418457
1789799306772373200,9.721373291015626,-0.7228992637634277,-6.168211664581299,9.08524711227417
1789799306782346200,9.73134619140625,-0.9522937103271484,-6.665906334686279,9.189095609283447
1789799306792319200,9.7413193359375,-1.0586860466003418,-7.138761162567138,9.340528864288329
1789799306802291200,9.751291259765624,-1.1710638870239256,-7.2541317550659175,9.464728075408935
1789799306812264200,9.76126416015625,-1.294065997314453,-7.088931840515136,9.583989245605467
1789799306822237200,9.7712373046875,-1.3308768478393553,-6.840683055877685,9.617358431243895
1789799306832210200,9.781210205078125,-1.317110188293457,-6.662015756988525,9.428515775299072
1789799306842182100,9.79118212890625,-1.352873575592041,-6.612336072540283,8.987234481811523
1789799306852155100,9.801155029296876,-1.5471031852722168,-6.7268088394165035,8.340351120758056
1789799306862128400,9.81112841796875,-1.928679074859619,-6.925228302001953,7.955932116699218
1789799306872101400,9.821101318359375,-2.228702470397949,-7.198765841674804,8.069058145141602
1789799306882074000,9.83107421875,-2.0260931549072265,-7.381174080657958,8.685265797424316
1789799306892046300,9.84104638671875,-1.4332289688110351,-7.312640058135986,9.707290631103515
1789799306902019300,9.851019287109375,-0.7070376777648926,-7.095216619873047,10.517727893066406
1789799306911992300,9.860992431640625,-0.22595278167724608,-6.8399348678588865,10.599729299926757
1789799306921965000,9.870965087890625,-0.8185176925659179,-6.669198361968994,10.503961233520506
1789799306931938000,9.88093798828125,-1.7658733619689941,-6.811204447937011,10.376469995117187
1789799306941911300,9.890911376953126,-2.026990980529785,-6.829460235595703,10.5980832862854
1789799306951883300,9.90088330078125,-1.5614683952331543,-6.914903307342529,10.525209773254394
1789799306961856000,9.91085595703125,-1.1903671379089356,-7.049577150726318,10.715848080444335
1789799306971829200,9.920829345703124,-1.285835929107666,-7.069778227233886,11.183315954589844
1789799306981802200,9.93080224609375,-1.3631985702514648,-7.232583940124512,11.349563332366943
1789799306991775200,9.940775146484375,-0.8074445098876952,-7.248894438934326,10.833463236999512
1789799307001747200,9.950747314453125,-0.7299322311401367,-6.709001964569091,10.561272435760497
1789799307011720200,9.96072021484375,-1.018882444000244,-6.368426778411865,9.915735813140868
1789799307021693200,9.970693115234376,-1.4540285957336425,-6.1653685501098625,9.414449840545654
1789799307031666200,9.980666259765625,-1.9672855766296387,-6.223128665161132,9.300725261688232
1789799307041639200,9.99063916015625,-2.011877582550049,-6.41646044921875,9.380631742095947
1789799307051612200,10.000612060546874,-1.4043489112854004,-6.60141252746582,9.51904652557373
1789799307061584100,10.010584228515626,-1.009305637359619,-6.78651424331665,9.53176572189331
1789799307071557400,10.020557373046875,-0.9081506172180175,-6.753743608093261,9.207949947357177
1789799307081530000,10.030530029296875,-0.09980828170776367,-6.41586189880371,8.884583085632324
1789799307091503000,10.040503173828125,0.5309142181396485,-5.8654947921752925,8.417564124298096
1789799307101476000,10.05047607421875,0.36855741806030273,-5.356876576995849,7.506720030212402
1789799307111449300,10.060449462890626,0.8940846824645996,-4.407725256347656,6.695684217834472
1789799307121421000,10.070421142578125,0.8699930282592773,-3.435529744720459,5.499181938171386
1789799307131394000,10.08039404296875,0.5764040496826172,-2.6262895835876465,4.3531075309753415
1789799307141367300,10.0903671875,-0.23597850112915036,-1.8848352569580078,3.3068414054870603
1789799307151340300,10.10034033203125,-1.1373954261779784,-1.113453409576416,2.5005939964294432
1789799307161313300,10.110313232421875,-1.131260284423828,-0.7047931137084961,2.039111626434326
1789799307171286000,10.1202861328125,-1.0452186622619628,-0.45714287948608395,1.7974468963623045
1789799307181259300,10.13025927734375,-0.66394204788208,-0.4987421333312988,1.6455647285461426
1789799307191231200,10.140231201171876,-0.2979284690856933,-0.5672761558532714,1.5301941360473632
1789799307201204200,10.150204345703125,-0.35883097381591794,-0.43065702362060543,1.3736732025146483
1789799307211177200,10.16017724609375,-0.3226186737060547,-0.3060088996887207,1.2113164024353027
1789799307221150200,10.170150146484374,-0.18465280303955078,-0.35090018081665036,1.1661258460998534
1789799307231123200,10.180123291015626,-0.428412459564209,-0.4170400016784668,1.3416507553100585
1789799307241096200,10.19009619140625,-0.7864952453613281,-0.5220855995178222,1.585260774230957
1789799307251069200,10.200069091796875,-0.8476970252990722,-0.6925228302001952,2.089539498901367
1789799307261041200,10.210041259765624,-0.7662941688537597,-0.8933364944458008,2.831293100738525
1789799307271014100,10.22001416015625,-0.7781155395507812,-1.1834838081359862,3.773710729217529
1789799307280987100,10.229987060546875,-0.560542463684082,-1.6226701751708983,4.717026183319091
1789799307290960400,10.23996044921875,-0.4809352584838867,-2.1505916412353514,5.464166738891601
1789799307300933000,10.24993310546875,-0.9005190994262695,-2.6966192573547363,6.16072978439331
1789799307310906000,10.259906005859374,-1.0779892974853515,-3.2511762168884277,6.824971107482909
1789799307320879000,10.269879150390626,-1.0269628746032715,-3.9242461585998534,7.2441060356140135
1789799307330852900,10.279852783203125,-1.2508207298278808,-4.736628709411621,7.613710916900635
1789799307340826000,10.289826171875,-1.4363713584899902,-5.664681127929687,8.206575102996826
1789799307350797800,10.2997978515625,-1.4145242683410644,-6.681618283081054,9.006837007904052
1789799307360770800,10.309770751953126,-1.3350667007446289,-7.794922055053711,9.766696759796142
1789799307370744000,10.319744140625,-1.0172364303588866,-8.770409593963622,10.209175154113769
1789799307380717000,10.329717041015625,-0.7185597732543945,-9.370606022644042,10.321702632141113
1789799307390689800,10.339689697265625,-0.8125321884155273,-9.61496422958374,10.528501800537109
1789799307400662800,10.349662841796874,-0.8993219985961913,-9.82610288848877,10.80203934020996
1789799307410636000,10.359635986328126,-0.7463923675537109,-9.809343476867674,10.867430973052977
1789799307420609000,10.369609130859375,-0.7115268058776855,-9.290998817443848,10.69370171508789
1789799307430582000,10.37958203125,-1.0338462043762207,-8.491485100555419,10.313622201538085
1789799307440554000,10.389553955078124,-1.5867571502685547,-7.596652230072021,10.096946951293944
1789799307450527000,10.39952685546875,-1.866130556488037,-6.881983034515381,10.421959826660157
1789799307460500000,10.4095,-1.6802806526184082,-6.825719295501709,10.958260998535156
1789799307470473000,10.419472900390625,-1.5122376235961914,-7.324461428833008,11.361983253479004
1789799307480446000,10.429446044921875,-1.46195938873291,-7.745691283416748,11.940332592010497
1789799307490419000,10.4394189453125,-1.252017830657959,-7.933486476135253,12.261454889678955
1789799307500392000,10.449391845703126,-0.9738415252685546,-7.596951505279541,11.964873159027098
1789799307510365000,10.459364990234375,-0.9822212310791015,-7.184550269317627,11.423933221435545
1789799307520338200,10.469338134765625,-1.6406266876220703,-6.878092456817627,10.50216558227539
1789799307530311000,10.479310791015624,-2.0504840843200682,-6.7645175155639645,9.809044201660155
1789799307540283000,10.489282958984376,-2.273444113922119,-7.116016246795654,9.292794468688964
1789799307550256000,10.499256103515625,-1.8065747901916502,-7.267748777008056,9.466374089050293
1789799307560229000,10.50922900390625,-1.295412735748291,-7.318176649475097,9.655665657806395
1789799307570201900,10.519201904296875,-0.6221931564331055,-6.966827555847168,9.900173502349853
1789799307580174800,10.5291748046875,-0.678007982635498,-6.520757859039306,10.160542932891845
1789799307590148000,10.539148193359376,-1.1133037719726562,-6.150105514526367,10.026467639923094
1789799307600121000,10.54912109375,-1.2005424949645995,-6.117185241699218,9.528324057006836
1789799307610094000,10.559093994140625,-1.243039574432373,-6.222380477142334,9.150489107513428
1789799307620066800,10.56906689453125,-1.4420575874328612,-6.348674614715576,9.23144305114746
1789799307630039800,10.579039794921876,-1.6500538566589356,-6.526743363189697,9.550470422363281
1789799307640013000,10.589012939453125,-1.5240589942932128,-6.768707368469238,9.712827222442627
1789799307649986000,10.598986083984375,-1.2907739700317382,-7.061997071838379,9.877578224182129
1789799307659958800,10.608958740234375,-0.9216180015563964,-7.075464456176757,9.899275676727294
1789799307669931800,10.618931884765624,-0.7110778930664062,-6.8025254669189446,9.601197570037842
1789799307679905000,10.628905029296876,-0.8500912269592285,-6.500706420135498,9.144952516174316
1789799307689877000,10.638876953125,-1.116595799255371,-6.323086584472656,8.678232830047607
1789799307699849700,10.648849609375,-1.1643301948547362,-6.352864467620849,8.460360478973389
1789799307709823000,10.658822998046874,-0.8168716789245605,-6.456413689422607,8.571541218566894
1789799307719796000,10.6687958984375,-0.6548141540527344,-6.421398490142822,9.216778565979004
1789799307729769000,10.67876904296875,-0.6385036552429199,-6.504447360229491,10.15740054321289
1789799307739742000,10.688741943359375,-0.5352537086486816,-6.926425402832031,10.779593699645995
1789799307749715000,10.69871484375,-0.6756137809753417,-7.447912451934814,10.993276197814941
1789799307759688000,10.70868798828125,-1.2220903099060059,-7.764545621490478,10.95556752166748
1789799307769661000,10.718660888671875,-1.539920580291748,-7.91687670211792,10.620528926849365
1789799307779634000,10.728634033203125,-2.0745757385253905,-8.011597305297851,10.704625260162352
1789799307789607200,10.738607177734375,-2.412158172607422,-7.832481093597412,10.735600244140624
1789799307799580000,10.748579833984374,-1.8248305778503418,-7.746140196228027,10.855908877563476
1789799307809553000,10.758552978515626,-1.226429800415039,-7.4417773101806635,10.881796183013915
1789799307819526000,10.76852587890625,-1.0818798751831054,-6.88243194732666,10.539275708007812
1789799307829499000,10.778498779296875,-1.50026661529541,-6.482749907684326,10.197353783416748
1789799307839472000,10.78847216796875,-1.4315829551696777,-6.335057592773437,10.0104564163208
1789799307849444900,10.79844482421875,-1.2868833923339842,-6.07139613494873,10.106823033142089
1789799307859417900,10.80841796875,-1.1988964813232421,-6.000018997955322,10.096198763275146
1789799307869390800,10.818390869140625,-0.951844797515869,-6.066009181213379,9.701155489349365
1789799307879364000,10.828364013671875,-0.9322422714233398,-6.205022515106201,9.225607184600829
1789799307889337000,10.838337158203124,-1.0758943710327147,-6.340145271301269,8.760832787322997
1789799307899309800,10.848309814453126,-0.9207201759338378,-6.440103190612793,8.298452591705322
1789799307909282800,10.85828271484375,-0.7867945205688476,-6.235398948669433,8.055740398406982
1789799307919256000,10.868256103515625,-0.8810662109374999,-6.102820031738281,7.633911993408202
1789799307929229000,10.87822900390625,-0.541388850402832,-5.557390966033935,7.313837158966064
1789799307939202000,10.8882021484375,-0.21517887420654297,-4.832546413421631,6.638672290802002
1789799307949174800,10.8981748046875,-0.4282628219604492,-4.228309769439697,5.7608981071472165
1789799307959148000,10.90814794921875,-0.3666121292114258,-3.7030817802429197,5.299864649963379
1789799307969120000,10.9181201171875,-0.2929904281616211,-2.8476035995483397,4.791545709991455
1789799307979093000,10.928093017578124,-0.3226186737060547,-2.1402666465759275,4.327070587921142
1789799307989066000,10.93806591796875,-0.42108021697998044,-1.5521908638000488,3.7855320999145508
1789799307999039000,10.9480390625,-0.45489831542968745,-1.0848726272583007,3.1082723052978514
1789799308009012000,10.958011962890625,-0.46686932373046874,-1.0024223075866698,2.644246096038818
1789799308018985000,10.96798486328125,-0.45444940261840816,-0.9238625656127929,2.4417864181518554
1789799308028958000,10.9779580078125,-0.49260699157714843,-0.70868369140625,2.5049334869384765
1789799308038931000,10.987930908203126,-0.42751463394165035,-0.23418284988403318,2.6850971618652344
1789799308048904000,10.997904052734375,-0.15083470458984374,0.14395137481689452,2.503886023712158
1789799308058877000,11.007876953125,-0.023942016601562498,0.009427169036865234,2.281674182128906
1789799308068850000,11.017849853515624,-0.2672527603149414,-0.4348468765258789,2.3171382942199705
1789799308078823000,11.027822998046876,-0.7600093894958496,-0.8077437850952148,2.405723755645752
1789799308088796000,11.0377958984375,-1.2421417488098143,-1.0519523544311522,2.595763512420654
1789799308098769000,11.047768798828125,-1.25126964263916,-1.2087725631713866,2.976591213989258
1789799308108742000,11.057741943359375,-1.2376526206970213,-1.313219610595703,3.762338271331787
1789799308118715100,11.067715087890624,-1.103876602935791,-1.4695909065246582,4.8877626892089845
1789799308128687900,11.07768798828125,-0.6540659660339355,-1.7317559883117675,5.932831713867187
1789799308138662000,11.087661865234375,-0.5205892234802246,-2.348113278198242,6.244077929687499
1789799308148635000,11.097634765625,-0.8049006706237792,-3.1425393165588376,6.149955876922607
1789799308158608000,11.10760791015625,-1.1902175003051758,-3.9055414581298824,6.190657305145264
1789799308168581000,11.1175810546875,-1.2761094848632812,-4.586542192840576,6.5963248489379875
1789799308178554000,11.12755419921875,-1.2102689392089843,-5.2265422241210935,6.929717430114746
1789799308188526800,11.13752685546875,-1.1653776580810546,-5.874473048400879,7.025485496520996
1789799308198499800,11.147499755859375,-1.2140098793029785,-6.428281819915771,7.254281392669677
1789799308208473000,11.15747314453125,-1.4055460121154784,-7.146841593170166,7.909394821929931
1789799308218446000,11.167446044921874,-1.2939163597106933,-8.054244022369383,8.751106343078613
1789799308228419000,11.177419189453126,-0.8818143989562988,-8.771008144378662,9.813084416961669
1789799308238391800,11.187391845703125,-0.4599859939575195,-9.490465743255614,10.787823767852782
1789799308248364800,11.19736474609375,-0.49021278991699213,-10.064475591278075,11.401038668060302
1789799308258338000,11.207338134765624,-0.4370914405822754,-10.34250225906372,11.484386813354492
1789799308268311000,11.21731103515625,-0.2599205177307129,-10.20169327392578,11.371560060119629
1789799308278284000,11.227283935546875,-0.7742249618530272,-9.29518867034912,11.163563790893553
1789799308288256800,11.2372568359375,-1.4682441680908203,-8.369231178283691,10.587309378814696
1789799308298230000,11.24722998046875,-1.7042226692199707,-7.520037776947021,10.320206256103514
1789799308308203000,11.257203125,-1.6876128952026366,-7.292588619232177,10.805929917907715
1789799308318176000,11.267176025390626,-1.7245733833312988,-7.490110256195068,11.480795510864256
1789799308328148500,11.2771484375,-1.7769465446472168,-7.71232209777832,12.019041971588134
1789799308338121700,11.287121826171875,-1.6518495079040527,-7.845349927520751,12.255469385528563
1789799308348094700,11.2970947265625,-1.5342343513488768,-7.4591352722167965,12.116755326843261
1789799308358067700,11.307067626953126,-1.831115357208252,-7.051522439575195,11.741913129425049
1789799308368040700,11.317040771484375,-1.6780360885620116,-6.526593725585937,10.748917990875244
1789799308378013700,11.327013671875,-1.7197849800109861,-6.176591370391845,9.88341409072876
1789799308387986700,11.336986572265625,-1.1887211242675781,-5.824194813537598,9.44901612701416
1789799308397959700,11.346959716796874,-0.6916250045776366,-6.111947925567627,9.128043466949462
1789799308407932700,11.3569326171875,-0.469263525390625,-6.534075605773926,9.1554271484375
1789799308417906700,11.36690673828125,-0.6124667121887206,-6.930016705322266,9.439439320373534
1789799308427880000,11.3768798828125,-1.0298059890747069,-6.913556568908691,9.715969612121581
1789799308437852700,11.386852783203125,-1.2797007873535156,-6.527341913604736,9.87712931137085
1789799308447825700,11.39682568359375,-1.409137314605713,-6.280140592193603,9.969754988098144
1789799308457798700,11.406798583984376,-1.2681786918640137,-6.158185945129394,9.927108271026611
1789799308467771600,11.416771728515625,-1.0494085151672363,-6.22477467880249,9.97828433151245
1789799308477745000,11.426744873046875,-0.8740332435607909,-6.37171880569458,10.15740054321289
1789799308487717600,11.436717529296875,-0.956333925628662,-6.56924044265747,10.20932479171753
1789799308497690600,11.446690673828124,-0.9934440513610839,-6.719626234436035,10.185532412719725
1789799308507663600,11.45666357421875,-0.8316858016967773,-6.769156281280517,9.899425314331054
1789799308517636900,11.466636962890625,-0.5494692810058593,-6.832303350067138,9.312097719573973
1789799308527609900,11.47660986328125,-0.33907881011962887,-6.8770449935913085,8.74616830215454
1789799308537582600,11.48658251953125,-0.5174468338012695,-6.829460235595703,8.56211404953003
1789799308547555600,11.4965556640625,-0.7709329345703124,-6.808959883880615,8.594884684753417
1789799308557529600,11.506529541015626,-0.9675567459106444,-6.726210289001465,8.788515744018554
1789799308567502800,11.5165029296875,-1.0333972915649414,-6.641515405273437,8.735544032287597
1789799308577475800,11.526475830078125,-1.2831424522399901,-6.717232032775878,8.421753977203368
1789799308587448600,11.536448486328124,-1.7015291923522948,-7.076063006591797,8.506149585723877
1789799308597421600,11.546421630859374,-2.0866963844299313,-7.532607335662841,8.942343200683593
1789799308607394800,11.556394775390626,-2.4506150367736814,-7.920617642211914,9.70444751663208
1789799308617367800,11.566367919921875,-2.657713480377197,-8.118887467193604,10.549151789855957
1789799308627340800,11.5763408203125,-2.231844860076904,-7.90385823059082,11.192743123626709
1789799308637313500,11.5863134765625,-1.3178583763122558,-7.324162153625488,11.340285800933838
1789799308647286500,11.59628662109375,-0.7341220840454101,-6.808510971069335,11.259780770111083
1789799308657259800,11.606259765625,-0.9919476753234863,-6.648249097442626,10.921749423217772
1789799308667232800,11.616232666015625,-1.6027683738708496,-6.762422589111328,10.194660306549071
1789799308677206800,11.626206787109375,-1.4321815055847167,-6.815693576049804,10.016441920471191
1789799308687179800,11.6361796875,-0.9958382530212402,-6.566098052978515,10.097994414520263
1789799308697152500,11.646152587890626,-1.1424831047058104,-6.158934133148193,10.45083988418579
1789799308707125800,11.656125732421875,-1.0447697494506836,-6.1070098846435545,10.461314516448974
1789799308717098800,11.6660986328125,-1.356614515686035,-6.4178071876525875,10.228328767395018
1789799308727071700,11.67607177734375,-1.7809867599487303,-6.892158391571044,9.80051485824585
1789799308737044700,11.686044677734374,-1.1201871017456053,-7.1674915824890135,9.556755201721192
1789799308747017700,11.696017822265626,-0.9084498924255371,-7.352443660736084,9.093327542877196
1789799308756990700,11.70599072265625,-0.66394204788208,-7.171681435394286,8.513781103515624
1789799308766964700,11.71596484375,0.09292495193481445,-6.479008967590332,8.125321884155273
1789799308776937700,11.725937744140625,-0.07018003616333007,-5.833472344970703,7.216273441314697
1789799308786910700,11.73591064453125,0.17387889556884764,-5.04383470993042,6.7173816703796385
1789799308796883700,11.7458837890625,0.436043977355957,-4.362983612823486,6.063016429138183
1789799308806856700,11.755856689453125,0.19078794479370115,-3.4693478431701656,5.191078112030029
1789799308816829700,11.76582958984375,-0.28206688308715816,-2.5092729774475098,4.173542406463623
1789799308826802700,11.775802734375,-0.3107973030090332,-1.9174562545776366,3.706673082733154
1789799308836775700,11.785775634765624,-0.7655459808349608,-1.505354293823242,3.1865327720642087
1789799308846748700,11.795748779296876,-0.9151835845947265,-1.3037924415588378,2.6596587692260742
1789799308856722700,11.80572265625,-0.792929662322998,-0.8794201972961425,2.2616227432250975
1789799308866695700,11.81569580078125,-0.40761283264160153,-0.3778349494934082,1.6497545814514158
1789799308876668700,11.825668701171875,-0.37125089492797847,0.13063362808227538,1.3175591011047363
1789799308886641700,11.8356416015625,-0.3929483474731445,0.34267011260986324,1.0794856735229492
1789799308896615000,11.845614990234376,-0.18525135345458985,0.09367313995361327,0.9286509689331054
1789799308906587600,11.855587646484375,-0.07811082916259765,-0.07586626510620116,0.9801263046264648
1789799308916560600,11.865560546875,-0.18944120635986328,-0.05192424850463867,1.3862427612304686
1789799308926534700,11.87553466796875,-0.32231939849853514,-0.10160393295288085,2.179770973968506
1789799308936507600,11.885507568359374,-0.2721908012390137,-0.5211877738952636,2.703053674316406
1789799308946480600,11.895480712890626,-0.411802685546875,-1.1397896278381348,2.7817630538940428
1789799308956454000,11.905453857421875,-0.9548375495910644,-1.5972317825317381,3.1114146949768067
1789799308966426600,11.915426513671875,-1.2737152832031249,-1.74926358795166,4.292055388641357
1789799308976399600,11.925399658203125,-0.8327332649230956,-1.8357541229248047,5.712714798736572
1789799308986372600,11.93537255859375,-0.3661632164001465,-2.3395839347839353,6.525695899963378
1789799308996345900,11.945345947265626,-0.5229834251403809,-3.1727661125183104,7.089380753326416
1789799309006319900,11.95531982421875,-1.057339308166504,-4.104709108734131,7.690774282836913
1789799309016292900,11.96529296875,-1.1361983253479002,-5.134215822601318,8.248772907257079
1789799309026265600,11.975265625,-1.0914566818237303,-6.251410172271728,8.788815019226075
1789799309036238600,11.985238525390624,-1.3643956710815428,-7.3934443641662595,9.297433234405517
1789799309046211800,11.9952119140625,-1.5043068305969238,-8.39511848373413,9.916932913970946
1789799309056184800,12.005184814453125,-1.171512799835205,-9.19328546218872,10.296413877105712
1789799309066158800,12.015158935546875,-0.7926303871154785,-10.008660765075684,10.648511158752441
1789799309076131800,12.0251318359375,-0.5590460876464843,-10.209773704528809,11.230302162170409
1789799309086104600,12.0351044921875,-0.6522703147888184,-10.079439351654052,11.470171240997313
1789799309096077600,12.04507763671875,-0.8390180442810058,-9.726593881988524,11.354052460479735
1789799309106050800,12.05505078125,-1.0302549018859863,-8.99546455001831,11.279084020996093
1789799309116023800,12.06502392578125,-1.125574055480957,-8.053944747161864,10.964845053100586
1789799309125996500,12.07499658203125,-1.0184335311889647,-7.213579964447021,10.315717127990721
1789799309135970600,12.084970458984374,-0.9675567459106444,-6.701520084381103,9.748141696929931
1789799309145943600,12.094943603515626,-1.1656769332885741,-6.624755993652343,9.799018482208252
1789799309155916800,12.104916748046875,-1.8463783927917479,-7.021295643615722,10.356268918609619
1789799309165889800,12.114889892578125,-2.254889051055908,-7.560140654754639,11.07632506790161
1789799309175862800,12.12486279296875,-1.9327192901611328,-7.780107932281494,11.531821933746338
1789799309185835500,12.13483544921875,-1.3816039955139159,-7.513453722381591,11.864466326904296
1789799309195809500,12.1448095703125,-1.4469956283569334,-7.171681435394286,11.959935118103026
1789799309205782500,12.154782470703125,-1.5620669456481933,-6.751947956848144,11.657517520904541
1789799309215755800,12.164755859375,-1.8338088340759275,-6.613533173370361,11.199177540588378
1789799309225728800,12.174728759765625,-1.7935563186645507,-6.677877342987061,10.565312651062012
1789799309235701800,12.18470166015625,-1.9425953720092772,-7.175422375488281,9.984120198059081
1789799309245674500,12.194674560546876,-1.550095937347412,-7.465270413970947,9.788394212341307
1789799309255648500,12.2046484375,-1.3639467582702636,-7.420528770446777,10.264989980316162
1789799309265621800,12.214621826171875,-0.9534908111572266,-6.8499605873107905,10.385597888946533
1789799309275594800,12.2245947265625,-0.32920272827148434,-6.166116738128662,9.7806130569458
1789799309285567700,12.234567626953124,-0.42317514343261714,-5.820902786254883,9.185653944396972
1789799309295540700,12.244540771484376,-1.179293955230713,-5.702988354492187,9.38512087020874
1789799309305514800,12.2545146484375,-1.4615104759216309,-5.7888803390502925,9.597157354736327
1789799309315487700,12.26448779296875,-1.3452420578002928,-5.998971534729003,9.354445161437988
1789799309325461200,12.274461181640625,-1.1821370697021483,-6.110750824737549,8.796296899414061
1789799309335434200,12.284434326171874,-1.1661258460998534,-6.12870733718872,8.751106343078613
1789799309345407000,12.294406982421876,-1.4158710067749023,-6.217143161010742,9.07148045272827
1789799309355380000,12.3043798828125,-1.3986626823425292,-6.49935968170166,9.34741219406128
1789799309365354000,12.31435400390625,-0.9677063835144042,-6.799831990051269,9.616460605621338
1789799309375327200,12.3243271484375,-0.4339490509033203,-7.006182245635986,9.945812971496581
1789799309385300200,12.33430029296875,-0.20605098037719724,-7.108235091400146,10.24044941329956
1789799309395273000,12.34427294921875,-0.2694973243713379,-7.1312792823791495,10.402207662963866
1789799309405246000,12.354245849609375,-0.4617816452026367,-7.240065820312499,10.385897164154052
1789799309415220000,12.364219970703125,-0.9329904594421387,-7.445218975067138,10.172065028381347
1789799309425193000,12.37419287109375,-1.443404325866699,-7.5159975616455075,10.065074141693115
1789799309435166200,12.384166259765625,-1.7968483459472655,-7.5339540740966795,9.969605350494383
1789799309445139200,12.39413916015625,-1.789516103363037,-7.344063954925537,9.956586878967284
1789799309455112000,12.40411181640625,-1.5674538993835447,-7.1026985000610345,9.835230782318115
1789799309465086000,12.4140859375,-1.456273159790039,-6.883329772949218,9.92770682144165
1789799309475059000,12.424058837890625,-1.3549685020446776,-6.563554213714599,10.47597900161743
1789799309485032200,12.4340322265625,-1.2099696640014648,-6.580762538146972,10.781987901306152
1789799309495005200,12.444005126953124,-1.0549451065063475,-6.6060512931823725,10.737096620178223
1789799309504978200,12.453978271484376,-1.0808324119567871,-6.491279251098632,10.30404539489746
1789799309514952200,12.4639521484375,-0.8536825294494629,-6.900238822174072,9.265261149597167
1789799309524925000,12.473925048828125,-1.0133458526611328,-6.552181755828857,8.894309529876708
1789799309534898000,12.48389794921875,-1.3456909706115723,-6.258592777252197,8.877699755859375
1789799309544871200,12.49387109375,-1.2508207298278808,-6.209511643218994,9.076268856048584
1789799309554845200,12.50384521484375,-1.2138602416992186,-6.395511184692382,9.171887284851074
1789799309564818200,12.513818115234375,-0.9941922393798828,-6.528090101623535,9.496301609802245
1789799309574791200,12.523791259765625,-0.5665279678344726,-6.521506047058105,9.671527243804931
1789799309584764000,12.533763916015625,-0.905307502746582,-6.487239035797119,9.053823215484618
1789799309594737200,12.543737060546874,-0.5888239707946777,-6.155642105865478,8.633042273712158
1789799309604711200,12.553711181640624,-0.30570962448120115,-5.6568999725341795,7.959224143981933
1789799309614684200,12.56368408203125,-0.6914753669738769,-5.04368507232666,7.031321363067627
1789799309624657200,12.5736572265625,-0.29134441452026366,-4.225466654968262,6.635679538726806
1789799309634630000,12.5836298828125,-0.04414309310913086,-3.2008979820251464,6.32054274520874
1789799309644603100,12.59360302734375,-0.7146691955566405,-2.564040340423584,5.306448704528808
1789799309654577000,12.603576904296874,-0.6530185028076172,-2.4616882194519043,4.700117134094238
1789799309664550100,12.613550048828126,-0.9162310478210449,-2.3796868125915527,4.045751892852783
1789799309674523100,12.623523193359375,-1.1622352684020996,-1.992574331665039,3.515735500335693
1789799309684496100,12.63349609375,-0.9639654434204101,-1.5925930168151854,2.7756279121398926
1789799309694470100,12.64347021484375,-0.6868366012573242,-1.2042834350585936,1.8507178833007811
1789799309704443000,12.65344287109375,-0.5615899269104003,-0.5588964500427246,0.654365241241455
1789799309714416000,12.663416015625,-0.7700351089477538,0.27249007644653317,-0.05237316131591797
1789799309724389000,12.67338916015625,-0.9241618408203125,0.6482300994873047,-0.023942016601562498
1789799309734362000,12.683362060546875,-0.5153519073486328,0.3547907585144043,0.5089174903869629
1789799309744336100,12.693336181640625,0.0474351203918457,-0.15876549758911132,1.0908581314086914
1789799309754309000,12.70330908203125,-0.15292963104248045,-0.5939116493225097,1.6707038459777832
