time,seconds_elapsed,z,y,x
1789799297107893500,0.0568935546875,-0.16060440345406532,-0.7217717210382223,-0.49470630194395776
1789799297117865200,0.066865234375,-0.5338344895005226,-0.5551280374199151,-0.6755469262842089
1789799297127837400,0.07683740234375,-0.8808400009661912,-0.3993324955523014,-0.7680971996877342
1789799297137810400,0.086810546875,-1.1400602614730595,-0.2629746446043253,-0.7783417495220899
1789799297147782400,0.096782470703125,-1.2563234188973902,-0.045053778213262556,-0.7172508826129138
1789799297157754400,0.10675439453125,-1.2078811672896146,0.14353636427521704,-0.46785811557210977
1789799297167726300,0.116726318359375,-1.2027847209334372,0.16852292149364947,-0.08325593696609139
1789799297177699300,0.12669921875,-1.298463940012455,0.14590660053789614,0.28493637410886585
1789799297187671300,0.13667138671875,-1.3422434605062008,0.05897182892858982,0.37654395983479916
1789799297197643300,0.146643310546875,-1.1786498121082782,-0.06875964797139167,0.24414975182078777
1789799297207615500,0.156615478515625,-0.7241366966038942,-0.22724282148778438,0.1203629939585924
1789799297217587500,0.16658740234375,-0.21265257059931753,-0.5261603016108274,0.1985632549703121
1789799297227560200,0.176560302734375,-0.5230313559353351,-0.8154056980252266,-0.2191850411079824
1789799297237532400,0.186532470703125,-1.2822189076542854,-0.9085814098507166,-1.0329818426318467
1789799297247504400,0.19650439453125,-1.1734954980850218,-1.0971417417228222,-1.7954149521432816
1789799297257476400,0.206476318359375,-1.3559054906338452,-1.4362433481961487,-1.9412410347908735
1789799297267449300,0.216449462890625,-1.4911772999107837,-2.0456401514202356,-1.5990180814266204
1789799297277421600,0.226421630859375,-1.2714409085303544,-2.235530270591378,-1.6899205876231194
1789799297287393300,0.236393310546875,-0.8386988953292369,-1.4884978515684604,-2.213052627453953
1789799297297365500,0.246365478515625,-0.5089911401450634,-1.2182552617877722,-1.802531944541633
1789799297307338500,0.25633837890625,-0.3224760503649711,-1.229585634097457,-0.8506557289741933
1789799297317310200,0.266310302734375,-0.17489479461312293,-1.1761878059089184,0.365679232275486
1789799297327282200,0.2762822265625,0.487665443521738,-0.8609288473159075,0.7016770275145768
1789799297337254100,0.286254150390625,1.0733774197757244,-0.49901452053189277,0.7295973000973462
1789799297347227100,0.29622705078125,1.5473036762803791,0.06728168437331915,0.8608267021156847
1789799297357199000,0.30619921875,1.5929647727370262,0.40108401539474725,0.8934041528545319
1789799297367171000,0.316171142578125,0.9383446799516677,-1.3023349362269043,0.5203405094161629
1789799297377143000,0.32614306640625,0.37159634736478325,-2.0047236191421747,1.1524778444975614
1789799297387115000,0.336114990234375,1.1207131714463234,-1.425436999760568,1.4760282460957765
1789799297397088000,0.346087890625,3.3919992305517193,-1.6117717645376919,1.721624178136885
1789799297407060200,0.356060302734375,3.8799750551968812,0.9109700585529208,1.7461432639740406
1789799297417032000,0.366031982421875,0.6665279727220534,3.1495638083681463,1.2465335540279745
1789799297427004200,0.376004150390625,-1.2621329819589853,3.3744162275880574,0.7036389752373099
1789799297436977200,0.38597705078125,-1.0982026489526033,2.500209673286974,0.7064886655800044
1789799297446949000,0.39594921875,-1.479927007099986,0.9210065916597843,1.21966023321487
1789799297456921000,0.405921142578125,-2.9248189411759373,-0.6975526410609484,1.389854814247787
1789799297466893300,0.415893310546875,-4.084453671690821,-1.9495605348467826,0.5483460125969722
1789799297476866000,0.425865966796875,-4.834185412800312,-2.9880349835455418,-1.0271765173539518
1789799297486838000,0.435838134765625,-4.777127308538556,-3.4746465341001747,-3.02623290451467
1789799297496810200,0.445810302734375,-2.6799288193166255,-4.374228060415387,-3.7007279105931516
1789799297506782000,0.455781982421875,4.519145065394044,-6.282412628778815,-2.595594001072645
1789799297516755200,0.465755126953125,1.6810183192431927,-5.676100347566604,-4.238813043275475
1789799297526727200,0.47572705078125,-1.0420651666671037,-3.547033724918961,-4.216960107907653
1789799297536699100,0.48569921875,-0.6198989080160856,-0.30132980196177955,-4.243991322696209
1789799297546671000,0.495671142578125,1.1491536685109138,2.733156551635265,-5.786771968594193
1789799297556644000,0.50564404296875,1.2833470349013805,3.2453403503417966,-4.9439463487237685
1789799297566616000,0.515615966796875,-0.15245032309293746,0.13613865523934363,0.4907043728262186
1789799297576588000,0.525588134765625,-0.3408504959672689,-1.528389132452011,4.60843925961107
1789799297586560000,0.53556005859375,0.13862228874862192,-1.246482408362627,5.28579871520996
1789799297596532200,0.5455322265625,0.6878279503822327,-0.3054606181561947,3.711397188645601
1789799297606505200,0.555505126953125,0.17653730112314223,0.7120008531302213,1.8678464204952119
1789799297616477000,0.565476806640625,-0.9409709368020296,0.9396902493417263,1.2320932330042123
1789799297626449200,0.57544921875,-1.7427192808747292,1.10042850830853,1.7414093673199413
1789799297636420900,0.5854208984375,-1.5866367387592792,1.9448270765841007,2.4978575572028756
1789799297646394000,0.59539404296875,-0.864269974437356,2.619094703647494,2.8886700616911054
1789799297656366000,0.605365966796875,0.11418635115027427,2.572915136274695,2.818591732336581
1789799297666338000,0.615338134765625,1.1938941429913044,2.34641933376193,2.333932192632556
1789799297676310000,0.62531005859375,2.2104197947323323,2.081743730458617,1.8982865669444202
1789799297686283000,0.635282958984375,2.3741852925658224,1.8180109609633683,1.735114066568017
1789799297696255000,0.6452548828125,1.8325486048817634,2.0107962170541285,1.5551237023815512
1789799297706227000,0.65522705078125,1.3765689239561556,2.6820103017657995,1.4559300454407929
1789799297716199200,0.66519921875,1.5756453891456126,2.8634803831160065,1.5347238884314893
1789799297726172000,0.675171875,2.1063351508796213,2.6104215678483245,1.5142404878512024
1789799297736144100,0.68514404296875,2.5250457161188122,2.237382620459795,1.4288862634316086
1789799297746116000,0.6951162109375,2.7272955506473777,1.8348668186962604,1.6177245354622602
1789799297756088000,0.705088134765625,2.482561496132612,1.5458926404386757,1.709833056447655
1789799297766061000,0.71506103515625,2.3561995540201663,1.1322697537273168,1.7015440976604819
1789799297776033300,0.725033203125,2.4930682770997286,0.8954828588247299,1.8305019014850257
1789799297786005000,0.7350048828125,2.56986627009809,1.0111965656727553,1.9641196599446236
1789799297795977200,0.744977294921875,2.5409078866392374,0.8810358157992363,2.228807392077148
1789799297805949000,0.754948974609375,2.544019296658039,0.5935153434813022,2.376962502194196
1789799297815922000,0.764921875,2.0036755713939667,0.3844920692950487,2.194034477120638
1789799297825894100,0.77489404296875,0.7011965505212545,0.3090174338549375,1.8355686833553015
1789799297835865900,0.784865966796875,-0.6506523581981658,0.0048860184758901595,1.2835719296984374
1789799297845838000,0.794838134765625,-1.1881062072396278,-0.6103671095609664,0.48434477466642856
1789799297855811000,0.80481103515625,-1.7494120565116404,-0.7171236029714345,-0.45870296840965746
1789799297865783000,0.814782958984375,-2.57650585424304,-1.1030804841220379,-1.1526190065339208
1789799297875755000,0.824755126953125,-2.190447850805521,-1.6624994967341422,-1.4233292138263582
1789799297885727200,0.834727294921875,-1.5107447546899317,-1.4815174911618232,-1.2203101484909653
1789799297895700000,0.844699951171875,-1.4622399592399595,-1.3074562247633934,-0.41634865841344
1789799297905672200,0.854672119140625,-1.1867302427113056,-1.2475748797744513,-0.058930035613477226
1789799297915644200,0.86464404296875,-1.1771633729428053,-1.4190835390806198,-0.15687091601416467
1789799297925616000,0.8746162109375,-1.4913918194442985,-1.5222510680884123,-0.022105594954639672
1789799297935589000,0.884589111328125,-1.6108090569853781,-1.4073282193571328,-0.015725830789655445
1789799297945561000,0.89456103515625,-2.093851516881585,-1.1714274596393108,-0.13035174240097402
1789799297955533000,0.904532958984375,-2.769541870224476,-0.9437836561352014,-0.6256497266277671
1789799297965505000,0.914505126953125,-2.9227602550804614,-0.9132201755672693,-0.7065905185192823
1789799297975478300,0.924478271484375,-2.4531670593440533,-0.7697481086999177,-0.3516914773248136
1789799297985450000,0.934449951171875,-2.1795698984384537,-0.5475403587698936,0.02947802341878414
1789799297995422200,0.944422119140625,-2.0821604945659637,-0.4693342525392771,0.0354880774885416
1789799298005394000,0.954393798828125,-1.564596171864867,-0.5587327839136124,-0.23834245378151533
1789799298015367000,0.964366943359375,-0.6871522430777549,-0.6649871730208397,-0.521986376927048
1789799298025339100,0.974339111328125,-0.1349590900659561,-0.43090895255506034,-0.4873750822730362
1789799298035311000,0.98431103515625,0.3043365825623274,-0.2471229954779148,-0.43872167213261126
1789799298045283000,0.994282958984375,0.8942606235533952,-0.31869828539192674,-0.6683006814830005
1789799298055256000,1.004256103515625,1.418040752029419,-0.40464813761711116,-0.9476315637350082
1789799298065228000,1.01422802734375,1.9011960246503352,-0.4746954873114824,-0.8729396031051874
1789799298075200000,1.024199951171875,2.317010283926129,-0.5216752651512623,-0.47251317483633754
1789799298085172200,1.034172119140625,2.588559280130267,-0.8520388538956641,-0.29777737017720934
1789799298095145000,1.04414501953125,2.4567349809587,-1.0275000502198934,-0.6785565564289688
1789799298105117200,1.0541171875,1.7690899859279392,-0.8976239625066518,-1.008830421063304
1789799298115089200,1.064089111328125,0.9619055882811546,-0.5078180047124624,-0.6881526522919535
1789799298125061000,1.07406103515625,0.5507949766516685,-0.02202303123772144,-0.3773004042252898
1789799298135034000,1.0840341796875,0.3821078045070171,-0.04662438853085041,-0.5172749843657016
1789799298145006000,1.094006103515625,0.3491349247097969,-0.2792161698311567,-0.7469774739652871
1789799298154978000,1.10397802734375,0.04668810141682624,-0.41584757702350617,-0.6447685608565807
1789799298164950000,1.113949951171875,-0.5036696528613567,-0.4018821800351143,-0.30125819803029297
1789799298174923300,1.12392333984375,-1.198542261058092,-0.24620880324244498,-0.07269611063748598
1789799298184895000,1.13389501953125,-2.0349819792836903,-0.3355225789427757,-0.04776888239085674
1789799298194867200,1.1438671875,-2.703671513953805,-0.6870335851341486,-0.1280865739479661
1789799298204839000,1.1538388671875,-2.9915713409781453,-0.9717863463044166,-0.24763708247989413
1789799298214812200,1.163812255859375,-3.064973261797428,-1.054056633234024,0.008610884217917919
1789799298224784100,1.1737841796875,-3.135869337275624,-0.9916863940387963,0.5449515113204717
1789799298234756000,1.183756103515625,-3.2770220212846994,-0.9462579372942447,0.5773714334100485
1789799298244728000,1.19372802734375,-2.9618595088034865,-0.8645897079110145,0.23674042541235685
1789799298254701000,1.203701171875,-1.7364146277725696,-0.5772896003454924,-0.34472295348644255
1789799298264673000,1.213673095703125,-1.4071774127095937,-1.0237944737002254,0.1854927609950304
1789799298274645000,1.22364501953125,-1.2703858465194702,-1.0013938413217662,0.51726884688586
1789799298284617200,1.2336171875,-0.8778221144497395,-0.4082654513314366,0.740463269765675
1789799298294590000,1.24358984375,-0.1680249088436365,0.08071604322493076,0.9584466799989342
1789799298304562200,1.253562255859375,0.8209697618931532,0.16670535067766903,1.098425351792574
1789799298314535000,1.263534912109375,0.9988397729247808,-0.2607517078578472,1.5458590304300188
1789799298324507000,1.2735068359375,1.2658406043052672,-0.07674421698451042,1.3687263937622307
1789799298334478800,1.283478759765625,1.5824714357733725,0.07954933753311634,1.049699899329245
1789799298344451800,1.293451904296875,1.7579115893095731,0.10132891540378332,0.9552721416160463
1789799298354424000,1.303424072265625,1.6096335834652185,0.26396950086057186,0.9620672085836529
1789799298364395800,1.313395751953125,1.1716150911659002,0.2663517198219895,1.2907111339285968
1789799298374369000,1.323369140625,0.9836293443113565,0.050453591430187225,1.4247870114192365
1789799298384341000,1.333341064453125,0.9109645055949688,-0.207647894179821,1.0815478667497633
1789799298394313000,1.34331298828125,0.3927817587345838,-0.5736150034859776,0.5789373675525188
1789799298404285000,1.353284912109375,-0.37919279384315013,-1.1305322624102234,-0.06842237884104252
1789799298414258000,1.3632578125,-1.452940215975046,-1.8492311518743634,-0.8418886312812566
1789799298424230000,1.37322998046875,-2.6940228111207483,-2.808369321268797,-1.534323783197999
1789799298434201900,1.383201904296875,-3.290845379453897,-3.400418683850765,-1.7068430808514357
1789799298444174000,1.393174072265625,-3.3797546660065647,-3.5748201419889925,-1.5337918682783842
1789799298454146800,1.403146728515625,-3.6809354148864744,-3.8633100438609715,-1.6701169860005378
1789799298464119000,1.413119140625,-4.286516459214687,-4.392022075781226,-2.291668337398767
1789799298474091000,1.423091064453125,-4.654088957890868,-5.201212552553415,-3.1115456278800964
1789799298484063000,1.43306298828125,-4.6874517137885094,-6.123791508096456,-3.9251463223099705
1789799298494036000,1.443035888671875,-4.720406473407149,-6.71592387278676,-4.926113754913211
1789799298504008000,1.453008056640625,-4.65306019936502,-6.923091289973258,-5.544582922387122
1789799298513980000,1.46297998046875,-4.538159270204603,-7.042917108315229,-5.106280936971307
1789799298523952000,1.4729521484375,-4.258596771153807,-7.776331920874118,-3.465978074476123
1789799298533925000,1.482925048828125,-4.3048911970779296,-8.124642085197568,-2.528624743649363
1789799298543896800,1.492896728515625,-4.302988286066055,-5.132205067300796,-4.245749564540386
1789799298553869000,1.502869140625,-3.263353561416268,-3.471350415164232,-3.5473873606622215
1789799298563840800,1.5128408203125,-1.6984370715558528,-3.9899207000374792,-0.9980828170776367
1789799298573814000,1.52281396484375,-0.5025041162133217,-4.69651414116621,1.8622469930529593
1789799298583786000,1.532785888671875,1.0043383703410624,-4.122764405384659,4.127216708618402
1789799298593758000,1.542758056640625,2.629126852840185,-2.8120775281369683,5.635538620075583
1789799298603730000,1.55272998046875,3.46035088224411,-1.7888292901426552,6.776410197931527
1789799298613703000,1.562702880859375,3.2444132986247536,-1.0394343797720969,7.735030188670754
1789799298623675000,1.5726748046875,2.4359447063863278,-0.6131720839791,8.069404766622185
1789799298633646800,1.582646728515625,1.8791547271035611,-0.1376476167638786,7.7812495035320515
1789799298643619000,1.592619140625,1.7549017399691045,0.5017418996691704,7.224083238282799
1789799298653591800,1.602591796875,2.265390425195545,0.8276764199249446,6.6125114291071885
1789799298663564000,1.61256396484375,3.3873359149157998,0.9469614093884825,6.019573593252897
1789799298673536000,1.622535888671875,4.226744419819116,1.141247425431013,5.528972680801153
1789799298683508000,1.632508056640625,4.2462990151166915,1.642303680923581,5.314657145425677
1789799298693481000,1.64248095703125,3.076850746595859,2.18911660220176,5.648471166884899
1789799298703453200,1.652453125,1.1102161812208593,2.3513912769556042,5.936524723166227
1789799298713425000,1.6624248046875,0.013212532794475554,2.6833491491541266,5.762064812839031
1789799298723397000,1.672397216796875,0.10770166530609131,3.2391856271043418,5.422143706676364
1789799298733370000,1.6823701171875,1.0468587576191872,3.4155443567901846,4.823815994477272
1789799298743341800,1.692341796875,2.4256372473835945,3.0079826698139307,4.405571293184161
1789799298753314000,1.70231396484375,2.9650433995366097,2.644207517594099,4.23544736623466
1789799298763285800,1.71228564453125,2.127172187203169,2.799394864435494,4.150465482258796
1789799298773259000,1.722259033203125,0.771968707358837,2.9124896209567783,3.7666058656483887
1789799298783231000,1.73223095703125,0.21165533972289413,2.8244816671580075,2.838749846485257
1789799298793203000,1.742202880859375,-0.13554595004320144,2.7225679376035927,1.7440327015608548
1789799298803175000,1.7521748046875,-0.8318903843581676,2.4016566523373126,0.7036714162021875
1789799298813148000,1.76214794921875,-1.4976701690614223,1.8204668296828865,-0.041886254093050954
1789799298823120000,1.772119873046875,-3.7814334324240684,2.168141618712246,0.17192191628217696
1789799298833092000,1.782092041015625,-3.6103088039994238,2.4140198748260735,0.5716185689717531
1789799298843065000,1.792065185546875,0.22993103765845296,1.847099985064566,1.1329483836412428
1789799298853036800,1.802036865234375,2.3428303693592545,1.2386910238340496,1.7639368409484624
1789799298863009000,1.812009033203125,3.0561785454452037,1.2068944943398237,2.0147949313014744
1789799298872981000,1.82198095703125,2.836959455937147,0.8846250724628567,1.831670653003454
1789799298882954000,1.8319541015625,2.389067219877243,0.39084085379987954,1.1362947714596987
1789799298892926000,1.841926025390625,0.8245990583062172,0.6069277827620506,0.15556114858984946
1789799298902898200,1.851898193359375,-2.7098317901492117,0.9563996843412518,-1.1823106727033852
1789799298912870000,1.861869873046875,-5.223423215317726,0.8467270112231373,-1.5542460427641869
1789799298922843000,1.8718427734375,-4.8942304239183665,0.9435621223390102,-1.1710323228418826
1789799298932815000,1.881815185546875,-3.947522404769063,0.856602800810337,-0.9670452892571687
1789799298942786800,1.891786865234375,-1.9059084401249884,0.07512041517496108,-0.4089326830685138
1789799298952759000,1.901759033203125,0.23519173466563223,-0.4805658406496048,-0.5132172334074974
1789799298962732000,1.91173193359375,0.5204740726679563,-0.8616203367114067,-0.5331944380313157
1789799298972704000,1.9217041015625,-0.7672662287563086,-1.1236150303676724,-0.21701719554960727
1789799298982676000,1.931676025390625,-1.9471821152776478,-0.6619958822503685,0.8384142331689596
1789799298992648000,1.94164794921875,-1.7583634247303008,0.1946408208295703,3.216600578069687
1789799299002621000,1.951620849609375,-1.4897832152038812,1.4405442602604628,5.774513960045576
1789799299012593200,1.96159326171875,-0.428276265963912,1.4062299027264118,8.229736198353766
1789799299022564900,1.97156494140625,0.7980576728612184,0.7144064529672265,9.275229585903883
1789799299032537000,1.981537109375,0.8543909699797629,-0.31663258503377434,7.924999218297004
1789799299042510000,1.991510009765625,0.42177813611626624,-1.032910969352722,5.7725289237082
1789799299052481800,2.001481689453125,0.031241525959968566,-1.0221113429188728,4.672224918562174
1789799299062454000,2.0114541015625,1.3657201976835727,-0.35249241844415663,5.397801877102255
1789799299072427000,2.021427001953125,5.953664074015617,1.707717233337462,9.251596196860074
1789799299082399000,2.03139892578125,-8.174225323534012,4.0475148108720775,5.200558472558856
1789799299092371000,2.041370849609375,-12.147108379530906,1.9791732905611394,2.2109634000897405
1789799299102343000,2.051343017578125,-0.7214180852949619,1.1719225496798753,4.4000294411480425
1789799299112316000,2.06131591796875,0.2941231950512156,1.3719164219751954,4.012071741569042
1789799299122287900,2.071287841796875,-0.9693255091488361,-0.3283993029341101,-2.7490274899840355
1789799299132259800,2.081259765625,0.9953202935617417,-1.2400874466285108,-7.159561374011635
1789799299142232000,2.091232177734375,-1.2981319315791129,-1.2910872737646102,-7.996964384311437
1789799299152205000,2.101205078125,-0.17067929580993949,-0.5897235499829053,-5.4199283687144515
1789799299162176800,2.1111767578125,-0.6791279265761375,-0.05386982961446046,-5.394646627941727
1789799299172149000,2.12114892578125,0.23615385769605635,0.060819502621889114,-5.39395221593678
1789799299182121000,2.131120849609375,0.04488762786611914,-0.5420183804780244,-6.515013177907466
1789799299192094000,2.141093994140625,-0.03454538981094956,-1.3631132300555706,-8.293327503776549
1789799299202066000,2.15106591796875,0.42880394309982656,-0.9757307000160217,-6.655588938811421
1789799299212038100,2.1610380859375,0.6507059880815446,0.3187526459276676,-2.825709747648239
1789799299222011000,2.171010986328125,0.8851941045224666,0.6861006881982088,-3.4355566327273843
1789799299231982800,2.18098291015625,0.9293816943604498,-0.16188479865342378,-6.155978790473938
1789799299241955000,2.190955078125,0.5216716118894517,-1.2994517820060252,-9.082283586293459
1789799299251926800,2.2009267578125,0.5147906202040612,-1.7714868179365992,-10.152693972957133
1789799299261900000,2.210900146484375,0.031665961917117236,-1.3201397652477025,-8.523331022149323
1789799299271872000,2.2208720703125,-1.112574142523855,0.046427112393081185,-4.729965744391084
1789799299281844000,2.230843994140625,-0.8069966199897229,3.1009330484509467,3.1285973004460335
1789799299291816000,2.24081591796875,-1.8715023126542567,6.224222890138626,9.277112915432452
1789799299301789000,2.250788818359375,-3.207964851671457,6.901718247076869,8.540058869588375
1789799299311761000,2.260760986328125,-2.803282811784744,7.4848355306625365,8.954072801443933
1789799299321733000,2.270733154296875,-1.7195969100929795,6.678059129294753,11.335071865677833
1789799299331706000,2.2807060546875,-1.557760334495455,5.12488685324192,11.533657332479953
1789799299341678000,2.290677978515625,-1.895645550916344,3.620139000879228,7.7674454345852135
1789799299351650000,2.300650146484375,-2.1615360829673707,2.9140903341516853,6.546030247461795
1789799299361622000,2.3106220703125,-2.6125720238804817,2.4184435364872217,6.593705021828413
1789799299371595300,2.32059521484375,-3.0773429140269752,2.498421036304533,7.554853069740533
1789799299381567000,2.33056689453125,-1.8936361107900737,2.093187207753956,8.820700103786587
1789799299391539200,2.340539306640625,0.12761866417527198,-0.8746624813750385,7.11272188142538
1789799299401511200,2.35051123046875,0.6150573132038116,-3.4535362337931987,2.827913395172357
1789799299411484000,2.36048388671875,-0.527423745675385,-0.45374841474220157,5.059823137179016
1789799299421456100,2.3704560546875,1.4221850122272968,1.827855917020887,10.469535232305526
1789799299431428000,2.380427978515625,0.3154658793419599,1.111438124231249,8.07795690639019
1789799299441401000,2.390401123046875,0.7749746111765503,-0.1622022671047598,1.6360826144516467
1789799299451373000,2.400373046875,0.9778270877733826,-0.9499714048594236,-0.8126812414973974
1789799299461345300,2.41034521484375,0.45012949359267945,0.03893734115958213,-0.992849008077383
1789799299471317000,2.42031689453125,2.4173674316883087,-3.476607897301018,-3.514885020986199
1789799299481290000,2.4302900390625,1.8524533287912606,-7.115353983494639,-8.056717719006539
1789799299491262200,2.44026220703125,-0.58383069255203,-5.342675617685914,-6.972879695492982
1789799299501234200,2.450234130859375,0.686667089909315,-6.063845865699649,-5.096878902375698
1789799299511206100,2.4602060546875,1.1011761118054388,-8.358760053151846,-3.1840280957669016
1789799299521179100,2.47017919921875,0.6666323098793625,-7.129674185270071,-2.1213941883236167
1789799299531151000,2.480151123046875,0.3378027988344431,-6.536283929473162,-0.10928104345202445
1789799299541123000,2.490123046875,0.6029682314813136,-5.697400909748673,1.1336012945920229
1789799299551096300,2.500096435546875,1.19455523724854,-4.647503734281659,1.1941852348923683
1789799299561068000,2.510068115234375,2.462037763541937,-4.223030075471103,0.01862462097108364
1789799299571040300,2.520040283203125,3.072980042642355,-4.065191921859979,-0.8094570187538862
1789799299581012000,2.530011962890625,3.519404544237256,-3.079104078480601,-1.729011658039689
1789799299590985000,2.53998486328125,3.8749139724150297,-2.139169498988986,-2.0672142698466778
1789799299600957200,2.549957275390625,2.6490976277232168,-1.437399240233004,-2.175934756806493
1789799299610929000,2.559928955078125,1.001855029092729,-0.9486665328059345,-2.236797514048219
1789799299620902100,2.569902099609375,-0.33477965162098405,0.6037058250408619,-2.4233394918352364
1789799299630874000,2.5798740234375,-0.6704103671133518,0.24860333369616416,-2.7370576507270337
1789799299640846000,2.58984619140625,1.7180612249583005,-0.13440215030293912,-3.110600455984473
1789799299650818000,2.599818115234375,2.8706612345308065,-1.153911092171073,-3.811571965578198
1789799299660791000,2.609791015625,1.5942568583741783,-0.8766420378196984,-4.617358186864853
1789799299670763000,2.619762939453125,0.7758657147973775,-0.16076660827845335,-5.4247430755198
1789799299680735200,2.6297353515625,0.9417018814250826,-0.3548837340274825,-6.270283215045929
1789799299690707000,2.63970703125,1.6610370229661464,-0.8982959434840828,-7.6559443769961595
1789799299700680000,2.649679931640625,2.981447421848774,-1.0699530713502317,-8.235892382895946
1789799299710652200,2.659652099609375,2.016088770504296,-0.152698306504637,-7.462527252742648
1789799299720623900,2.669623779296875,-0.3042822220265865,0.29465090871974825,-5.602950355681776
1789799299730597000,2.67959716796875,0.36266894454360005,0.08992343203127384,-4.422772018831968
1789799299740569000,2.689569091796875,1.1581317786060272,0.12412366166636347,-7.609953610193729
1789799299750541000,2.699541015625,0.7454398891344666,1.059833609200269,-7.313741297376155
1789799299760513000,2.709512939453125,0.036620296388864514,1.466922271837294,-3.6933991751402613
1789799299770486000,2.719486083984375,1.8849194281101225,-0.18305355114936828,0.5793284126967191
1789799299780458000,2.7294580078125,1.5209890853285788,-1.2881304697856306,5.601757346504926
1789799299790430000,2.739429931640625,1.0102303509891033,-0.6608698008298873,6.907129166209697
1789799299800402200,2.749402099609375,0.4381973559975624,-2.039003782145679,6.137608436524868
1789799299810375000,2.759375,-0.6013116964459418,-4.102923978883028,6.641801236477494
1789799299820347100,2.76934716796875,0.2508732696558349,-4.032317241740227,7.492403335568309
1789799299830319000,2.779319091796875,0.6730781250178813,-4.856519117422402,8.256041436955332
1789799299840292000,2.7892919921875,0.2564379363119602,-4.869219609041512,7.52457191324532
1789799299850264000,2.79926416015625,-0.2664122178375721,-3.8709146736457942,4.9412721610784525
1789799299860236300,2.809236328125,-0.4913584528207779,-3.325984789635241,2.6446546768397092
1789799299870208000,2.8192080078125,-0.5052629864674061,-2.3161019369095563,-0.4053735292822122
1789799299880181000,2.829180908203125,-0.20178389751724898,0.14333938039839267,-2.7810709799766538
1789799299890153200,2.8391533203125,1.2538145048163831,2.5688842733234165,-5.167075305151939
1789799299900125000,2.849125,1.3116402324497698,1.2365747623324395,-2.702850260698795
1789799299910098200,2.85909814453125,-0.5894296816028655,-0.6523433800250291,-0.5205073904156684
1789799299920070100,2.869070068359375,1.6377844499334693,-1.3031477139145136,1.6865145785719156
1789799299930042000,2.8790419921875,0.9653424308620393,-1.956945384401083,4.198410305738449
1789799299940014000,2.88901416015625,-3.74642407836318,-2.955639026853442,3.749712013992667
1789799299949987000,2.898987060546875,-2.7820167363941666,3.344551250678301,3.9272441713720556
1789799299959959000,2.908958984375,-2.1455742514647542,3.0965713461101054,-0.6224070914447307
1789799299969931000,2.918930908203125,-1.2016119508270173,2.4811259103715417,-2.554071904116869
1789799299979904300,2.928904296875,-0.31446561625823377,2.1230822875410316,-1.0730734683930874
1789799299989876000,2.9388759765625,-0.21720358496718106,1.840658261579275,1.7881997600674628
1789799299999848200,2.94884814453125,0.5601636934995651,0.9031693216741085,3.9874394046157597
1789799300009820000,2.95881982421875,1.2849065393030643,-1.3169868541747332,4.880073303750157
1789799300019793200,2.968793212890625,1.2606452276192606,-4.184498100242019,4.221698242345452
1789799300029765000,2.97876513671875,-0.22998466754183172,-2.1434704110532996,4.194779840281606
1789799300039737000,2.988737060546875,-1.0360054282367228,0.11306056199073791,1.943058313345909
1789799300049710000,2.9987099609375,-1.861134063374996,2.5956781722247597,1.9778753597050904
1789799300059682000,3.00868212890625,-1.6629332119762896,5.047074714764952,2.388500233644247
1789799300069654000,3.018654052734375,-0.2957305206499994,7.140612927913665,1.8772984317123889
1789799300079626000,3.0286259765625,0.9483190345425159,9.611041503182053,1.7064257322221994
1789799300089599200,3.03859912109375,1.1030361335236578,10.998899298393725,1.7777438325047492
1789799300099571000,3.048571044921875,0.9461679939884692,10.741999589788913,1.7796283310770988
1789799300109543200,3.058543212890625,1.900690997737646,9.676739425495267,2.395840659534931
1789799300119516200,3.06851611328125,1.2002163317501544,8.104518165579437,2.305908459675312
1789799300129488000,3.07848779296875,-0.8149252210319041,7.859308310246467,0.7234709261715412
1789799300139460000,3.088460205078125,-1.7060674203038215,8.495815823236107,-1.2312141120821236
1789799300149432000,3.09843212890625,-0.8164204280257225,6.162336635068058,-2.1164064630389214
1789799300159405000,3.108405029296875,-1.8361472138956187,2.8393361219406126,-2.1678888129949567
1789799300169377000,3.118376953125,-2.6409926472008225,-1.6975941909909247,-2.016397690322995
1789799300179349200,3.128349365234375,0.2963605621818453,-5.970417640417814,-0.8893173219323157
1789799300189322000,3.138322021484375,1.3253764968574047,-7.868551354888081,4.027860846853256
1789799300199294200,3.148294189453125,-2.76199919975996,-9.004430531284212,11.957288402986526
1789799300209266200,3.15826611328125,-5.466830989664793,-11.86261456155777,14.574538940072058
1789799300219238100,3.168238037109375,-3.8879356588125225,-13.459876739227772,12.915796750044821
1789799300229211100,3.178211181640625,-0.6043221303083002,-11.040975522100926,7.204383681556582
1789799300239183000,3.18818310546875,1.6270293932937085,-9.822180746608971,1.8572627748996018
1789799300249155000,3.198155029296875,1.0844948799870908,-10.583957730299234,-1.2544792523354291
1789799300259127000,3.208126953125,-0.991384050091356,-10.94825632187128,-2.9837264726966617
1789799300269100300,3.218100341796875,-1.652684205162525,-2.7111194918721915,-5.370462034755945
1789799300279072000,3.228072021484375,-2.4571055678367615,6.228025205031037,-5.461747987312078
1789799300289044200,3.238044189453125,-0.29440380209088324,-9.41598771763742,-0.2432762569218874
1789799300299017200,3.248017333984375,0.678643942451477,-7.900766109794378,-0.567359157961607
1789799300308989000,3.257989013671875,1.3716495877325534,-3.751315942057967,0.8092980287998914
1789799300318960600,3.267960693359375,0.7868212624453008,-2.6244647062480446,2.2715742283970117
1789799300328933400,3.277933349609375,0.3540658052407205,-0.8159194927662611,2.554642397481203
1789799300338905600,3.287905517578125,0.14965747750401495,-0.3608145488485694,1.2642191405832768
1789799300348877600,3.297877685546875,-0.1734546057421714,-0.7715463902935386,0.14485095400512218
1789799300358849500,3.307849609375,-0.3660075874470174,-0.7006383321166038,-0.9595704233318567
1789799300368822500,3.317822509765625,-0.03065357000418007,-1.3833794807538389,-2.0819763701707124
1789799300378794800,3.327794677734375,-0.21605098086595534,-1.2366530882656575,-2.5879583916276694
1789799300388766500,3.337766357421875,-0.042326399075984955,-2.9005908011093733,-2.025071995165944
1789799300398739500,3.347739501953125,-0.0065104048073291775,-3.660517773018777,-2.423198037537932
1789799300408711700,3.357711669921875,1.1725731956083327,-2.9519983322635293,-2.079551188850403
1789799300418683600,3.36768359375,1.8319488854229449,-1.4604036837235093,-1.9780384413123129
1789799300428655600,3.377655517578125,1.604113943260908,-1.4811534801550208,-3.5582267345845695
1789799300438628600,3.387628662109375,1.0525578460436313,-1.6052230735465882,-5.11584313056469
1789799300448600600,3.3976005859375,0.6048796180605888,-1.732473927322775,-5.453932929646968
1789799300458572500,3.407572509765625,0.858234785926342,-1.5607447571337223,-5.530090871176124
1789799300468545800,3.4175458984375,1.0878607031583785,-1.3339471951954065,-5.577264125761389
1789799300478517500,3.427517578125,0.8035083394825459,-0.9616190264247357,-5.5145998720556495
1789799300488489700,3.43748974609375,0.5659083746314049,-0.2770524159260094,-5.5502481085419655
1789799300498461400,3.44746142578125,0.9669359836637973,-0.06949073872491716,-6.064369012790918
1789799300508434400,3.457434326171875,1.0384302442308515,0.004319762895256281,-6.189397660472989
1789799300518406700,3.46740673828125,1.125539057232812,-0.15292539325878024,-6.416804732611775
1789799300528378400,3.47737841796875,1.0878281160630285,-0.15422843868136404,-7.60321933350265
1789799300538351600,3.4873515625,1.218910583891347,0.22580562829151749,-5.415976416218281
1789799300548323600,3.497323486328125,0.5894751281797885,-0.17692410848364232,-5.220885805794596
1789799300558295600,3.507295654296875,-0.18583127223439513,-0.23116905502080917,-6.004698095682263
1789799300568268500,3.5172685546875,-0.3146551474809646,-0.1799861264027655,-5.652419612249732
1789799300578240500,3.527240478515625,-0.08740830740518868,-0.3252713801719248,-5.048708453446626
1789799300588212500,3.53721240234375,-0.17629297097325325,-0.42972120407521724,-4.2341912286937236
1789799300598184700,3.547184814453125,-0.4517138036420569,-0.7664867688164114,-3.367060604128241
1789799300608157700,3.55715771484375,-1.057158106380701,-0.9375792485371232,-2.8534149161756037
1789799300618129400,3.56712939453125,-1.3510218102455138,0.6953229823127388,-3.5100738213121887
1789799300628101600,3.5771015625,-0.1482616392314434,1.867779492738843,-3.420150389280915
1789799300638074600,3.58707470703125,0.6401181047022342,2.116188728635013,-2.3249282174438237
1789799300648046600,3.597046630859375,0.7276210315883159,1.7651567381322384,-0.9231710762172937
1789799300658018600,3.6070185546875,0.7070961299538612,0.7296995914280414,0.8105196795493363
1789799300667991600,3.616991455078125,0.4601835623562336,-0.49161301210373637,1.42807231670022
1789799300677963500,3.626963623046875,0.007573029070161282,-1.457562030556798,1.4569617265760897
1789799300687935500,3.636935546875,0.29503862939570097,-2.559670454776287,1.7377946839541196
1789799300697907700,3.64690771484375,0.2702852598786354,-3.628132629981637,1.9855840343862772
1789799300707880400,3.65688037109375,0.05453943597171455,-4.77982370801568,2.229457672679424
1789799300717852700,3.666852783203125,0.5240495930671691,-5.2117029669076205,2.5616665970295665
1789799300727824600,3.67682470703125,0.7663210568606853,-4.971578452014922,3.126324094817042
1789799300737797400,3.68679736328125,0.3451998502831906,-3.8623014513403175,3.2832284747093916
1789799300747769600,3.69676953125,-0.10088029485344886,-2.4121160870313645,3.016549714890122
1789799300757741600,3.706741455078125,-0.6310299583613872,-1.1467857703357933,2.9993443130671977
1789799300767714600,3.716714599609375,-1.2709294518768786,-0.41080139954984185,3.51171282069087
1789799300777686500,3.7266865234375,-0.8453835607249289,-0.02243921082317829,3.904946999368071
1789799300787658800,3.73665869140625,-0.538863715839386,0.20782032813727855,4.214084260210394
1789799300797630500,3.74663037109375,-0.7362649412930011,0.18319792805612087,4.333418495643139
1789799300807603700,3.756603759765625,-0.7958078481078148,0.42926293891370293,4.4856291647613045
1789799300817575700,3.76657568359375,-0.3227391582805663,0.04612053066194057,4.3866585029214615
1789799300827547600,3.776547607421875,-0.38947986764498055,-0.20062953985035417,4.106410067433119
1789799300837520600,3.786520751953125,-0.8846377127487212,-0.47058103772997856,3.6216035204738377
1789799300847492600,3.79649267578125,-1.1138205623883752,-0.062057519984245295,3.678698449614644
1789799300857464600,3.806464599609375,-0.9016365591488779,0.32528526256680484,3.36439635335505
1789799300867437600,3.8164375,-1.3034218546807765,0.6898445509016513,3.358437152689695
1789799300877409800,3.826409912109375,-1.2473241198837757,1.062771854609251,3.4906039816886185
1789799300887381500,3.836381591796875,-1.04343353241086,0.9668927290439605,3.296922653540969
1789799300897353700,3.846353759765625,-1.0703309647519141,0.8564403037250041,3.1386569221675393
1789799300907326700,3.85632666015625,-1.0002104767560958,0.7788947072297334,2.896516391277313
1789799300917298400,3.86629833984375,-0.8738380132496356,0.4878460607856512,2.5986925516098736
1789799300927270700,3.876270751953125,-0.8039465847693383,0.14937047725617886,2.3189923976540565
1789799300937243600,3.88624365234375,-0.3913093480944633,-0.047716275420784944,1.9285960727512836
1789799300947215600,3.896215576171875,0.11034721137881279,-0.04163081802725792,1.5412772555977106
1789799300957187600,3.9061875,0.3324737127661705,-0.05983458323776722,1.139744035130739
1789799300967160600,3.91616064453125,0.33159459184408185,-0.08010638689398765,0.9366203403770923
1789799300977132500,3.926132568359375,0.39123460235781965,-0.16172200930714606,0.9138304164201021
1789799300987104800,3.936104736328125,0.5818132152497768,-0.4154670532733202,0.922056977495551
1789799300997077500,3.946077392578125,0.716934875466302,-0.6344733768135309,0.869986013996601
1789799301007049500,3.956049560546875,0.4205856383960694,-0.6027396834224462,1.1958084521800278
1789799301017021700,3.966021728515625,-0.24010763682313263,-0.5053150819808244,2.119409151986241
1789799301026993400,3.975993408203125,-0.7256418404698372,-0.5406628742158412,2.9716847372472284
1789799301036966700,3.985966552734375,-0.8682769450563937,-0.98075057400465,3.4463223568916317
1789799301046938600,3.995938720703125,-0.6647394088048487,-1.2522311811476945,4.159361905419826
1789799301056910600,4.00591064453125,-0.37647060233764346,-1.3605652991384267,4.479234495288133
1789799301066883600,4.015883544921875,-0.3003799538910389,-0.891420431691408,4.73722667530477
1789799301076855600,4.02585546875,-0.4533937560856342,-0.5768044471770525,4.489014131024479
1789799301086827500,4.03582763671875,-0.9913035322010516,-0.524072389420867,3.826785901322961
1789799301096800500,4.045800537109375,-1.3138941488564013,-0.552323501393199,3.160916684770584
1789799301106772700,4.055772705078125,-1.0357903972465545,-0.745073686170578,2.7625200087636705
1789799301116744400,4.065744384765625,-0.7069534335475415,-1.1056243233859537,2.635665314698219
1789799301126716700,4.075716552734375,-0.3929997853994369,-1.5870651933044195,2.2734452829658984
1789799301136689700,4.085689697265625,0.3212999923229217,-1.5555796294555067,2.438817631474137
1789799301146661600,4.09566162109375,0.7300223205763846,-1.919466133095324,1.9243495212227104
1789799301156633600,4.105633544921875,1.2442274690426884,-1.9883608056232331,1.8268085999250412
1789799301166606600,4.115606689453125,1.442998813805729,-2.2968621066495776,1.4420084875941275
1789799301176578600,4.12557861328125,1.571015975779295,-2.8889599845483898,0.8876017501860857
1789799301186550500,4.135550537109375,1.9410709389209746,-3.328994492845237,0.3222603617876768
1789799301196523800,4.145523681640625,2.1381622216425833,-3.488633558398485,-0.3959089508444071
1789799301206495500,4.15549560546875,2.1054503308691084,-3.414624319335818,-0.593038373619318
1789799301216467700,4.1654677734375,2.3303403056204317,-3.2087393431752917,-0.5850713402628899
1789799301226440700,4.175440673828125,2.968836946600675,-2.9612948606580494,-0.8343629119515419
1789799301236412400,4.185412353515625,3.422849126845598,-2.711560221377015,-1.9824124186128376
1789799301246384600,4.195384521484375,3.0776264071434736,-2.1153286046743394,-3.3425545239031313
1789799301256357600,4.205357666015625,2.6622745046824217,-1.3327290515772998,-4.75848924356401
1789799301266329600,4.21532958984375,2.3716977135337887,-0.41285029490366576,-5.648146172714233
1789799301276301600,4.225301513671875,2.2670520747974514,0.20204422895386814,-6.2078907640188925
1789799301286274600,4.235274658203125,1.8305626917615532,0.612687223071605,-6.574436842256784
1789799301296246500,4.24524658203125,1.38213707947731,0.7689877918519079,-6.888263137698173
1789799301306218800,4.25521875,1.4188377476260066,0.8321741697356104,-7.055510632428526
1789799301316190500,4.2651904296875,1.8697991619981824,0.827511584752053,-7.078711475273966
1789799301326163200,4.2751630859375,2.045707663698494,0.6889027400068939,-7.357992527034878
1789799301336135200,4.28513525390625,1.7336974777683614,0.5223167779251933,-7.60237937554717
1789799301346107100,4.295107177734375,1.6172658319093287,0.5452415803082287,-7.504567820614576
1789799301356080400,4.305080322265625,1.702813971465826,0.6626058308422565,-7.54969349502027
1789799301366052000,4.315052001953125,2.0344141162678597,0.8190716731868684,-8.129743792250752
1789799301376024300,4.3250244140625,1.7263456537008284,1.3220898764021694,-8.021649912756681
1789799301385997300,4.334997314453125,1.318193599615991,1.6310561645917594,-7.181058920070528
1789799301395969300,4.34496923828125,1.2071651279747486,1.5595340661697088,-6.205933784732222
1789799301405941200,4.354941162109375,0.8982102379620075,1.116871693587303,-5.426102088913321
1789799301415914200,4.364914306640625,0.3299076616704464,0.48837972927093504,-4.890419925719499
1789799301425886200,4.37488623046875,-0.08207140335664152,0.05159954659491777,-4.159139787101745
1789799301435858200,4.384858154296875,-0.29408911011852323,-0.16759411621093748,-3.3275627064764497
1789799301445831400,4.39483154296875,-0.5776875866871327,-0.46663171558231115,-2.4874860930532217
1789799301455803100,4.40480322265625,-0.8299627772964536,-1.0691513265132904,-1.9643541993528604
1789799301465775400,4.414775390625,-1.056920717428252,-1.860994654904306,-1.5968874991387128
1789799301475748400,4.424748291015625,-1.1991606121521443,-2.7422406063228846,-1.2981857075929641
1789799301485720000,4.434719970703125,-1.1539688867729156,-3.504403958982229,-1.0853899291306734
1789799301495692300,4.4446923828125,-0.9286053762257098,-3.871448634392023,-0.795109928971529
1789799301505665300,4.454665283203125,-0.6718728408813476,-3.8069688556969163,-0.348951969358325
1789799301515637200,4.46463720703125,-0.4246668067624792,-3.7041020632013675,-0.017879940083622932
1789799301525609200,4.474609130859375,-0.2430967721691355,-3.5433255180507897,0.4507131386995315
1789799301535581400,4.48458154296875,-0.1991383879771456,-3.081021310278773,1.1764625311970711
1789799301545554200,4.49455419921875,-0.22451599033977834,-2.8425872326910495,1.839822979798913
1789799301555526100,4.504526123046875,-0.27684005181696264,-2.856735585030913,2.466311787599325
1789799301565498400,4.514498291015625,-0.4410334562063217,-2.8877368724942207,3.003239566940069
1789799301575471000,4.52447119140625,-0.6889268515348435,-2.9266555089533326,3.311774770236015
1789799301585443300,4.534443359375,-0.6138976217746734,-2.4322651410907508,3.520737838667631
1789799301595415300,4.544415283203125,-0.5398433745265007,-1.3796657209277152,3.749945238226652
1789799301605388300,4.55438818359375,-0.8480325408637523,-0.44549569631218905,4.07610143840909
1789799301615360300,4.5643603515625,-1.1648702930808066,-0.22720190495550632,3.7521880487173793
1789799301625332500,4.57433251953125,-1.4386054011523723,-0.08168342695236205,4.274091861927509
1789799301635305200,4.58430517578125,-1.1464122608482836,-0.01713233658671379,4.7917426938682794
1789799301645277200,4.594277099609375,-0.5686123363604769,0.02948153055012226,5.026636322370171
1789799301655249400,4.60424951171875,-0.1350245199849829,-0.41785073353946206,5.000524560514092
1789799301665222100,4.61422216796875,0.3808229523282498,-0.5710504136949778,5.1612219029486175
1789799301675194400,4.6241943359375,0.11825118943639099,-0.5417167671829461,5.127679698830843
1789799301685166300,4.634166259765625,-0.14593641115427017,-0.43185412445068355,4.80421756003797
1789799301695139000,4.64413916015625,0.23731475470159202,-0.09681494511067866,4.290550244775414
1789799301705111300,4.654111328125,0.6115244629025459,0.443468574398756,3.536846092903614
1789799301715083300,4.664083251953125,0.07421564835496246,1.1819441774785517,3.51055663639307
1789799301725056300,4.67405615234375,-0.6595102029144764,1.766214722752571,3.8957553926527497
1789799301735028200,4.6840283203125,-0.36428580515570935,1.7938982639700174,3.5919986558049914
1789799301745000400,4.69400048828125,0.10358188196234404,1.681774690568447,3.03598740580976
1789799301754973200,4.70397314453125,0.19378190244529395,1.500641293826699,2.5592893465042112
1789799301764945200,4.713945068359375,-0.10873623251821846,1.2164122642695903,2.5734984891206025
1789799301774917400,4.72391748046875,-0.1383224290192127,0.6389578287512063,2.7550860593706368
1789799301784890000,4.73389013671875,0.2682872909944504,-0.1557546253353357,2.7635405839830636
1789799301794862300,4.7438623046875,0.9002220892410725,-0.6505073967695236,2.7382664419949054
1789799301804834300,4.753834228515625,1.1380827508550138,-0.7577344303011894,2.7919857572227715
1789799301814807300,4.763807373046875,0.7085445751965046,-0.5423673400461674,2.7470991522699593
1789799301824779300,4.773779296875,0.07801500410530715,-0.15901742652356624,2.4753473269701
1789799301834751500,4.78375146484375,-0.49797640965580936,0.06650865417420863,2.269464688897133
1789799301844724200,4.79372412109375,-0.9960790760397911,-0.031905542826652526,2.079233208942413
1789799301854696200,4.8036962890625,-1.3076467788994313,-0.34464345850944517,2.0057903715908525
1789799301864668200,4.813668212890625,-1.409642341518402,-0.7751262946069241,1.98423612690866
1789799301874641200,4.82364111328125,-1.2933844447910785,-1.2377502358525991,2.1221067205071447
1789799301884613400,4.83361328125,-1.093491987043619,-1.6766677228182554,2.2553829720526934
1789799301894585000,4.843585205078125,-1.0765724164247512,-1.9322253691643476,2.3568664934962986
1789799301904558000,4.85355810546875,-1.1352210047483444,-1.7556021433234215,2.3446213444292545
1789799301914530300,4.8635302734375,-1.0614636215548963,-1.733178130069375,2.017643890991807
1789799301924502000,4.873501953125,-0.877602261153981,-1.5577525895804165,1.7557494428396223
1789799301934475300,4.883475341796875,-0.82475461419411,-1.2969219712674618,1.5145990920305252
1789799301944447200,4.893447265625,-0.7409095522284508,-1.1491437316387891,1.4706997445493937
1789799301954419200,4.903419189453125,-0.3920341552376747,-1.3302619308114052,1.6366466780751943
1789799301964392200,4.91339208984375,0.23505744076147675,-1.8255419409900904,1.8824188434660434
1789799301974364200,4.9233642578125,0.6206991915483028,-2.265526764926314,2.1299720470547676
1789799301984336100,4.933336181640625,1.0156067833304405,-2.2171479339435693,2.9090707524240016
1789799301994309000,4.94330908203125,0.996331735626608,-2.3878856088772413,3.399058501413464
1789799302004281300,4.95328125,0.8337411267913878,-3.033411710102856,3.221320592328906
1789799302014253000,4.963253173828125,0.6069299747191369,-3.669656480503082,2.6635809111058713
1789799302024226300,4.973226318359375,0.7117769812464714,-3.7873862033486363,2.097943170109391
1789799302034198300,4.9831982421875,0.9275004837237298,-3.6202570743009446,1.204333119419217
1789799302044170200,4.993170166015625,1.143437044429779,-3.302261384220421,0.30636721160709857
1789799302054143200,5.003143310546875,1.5773917944215237,-2.802309582838416,-0.7659229974538088
1789799302064115200,5.013115234375,1.9478803266748785,-2.3437390086367724,-1.583220208314061
1789799302074087200,5.023087158203125,1.8863149741217493,-1.8829820303067564,-2.2809663261204958
1789799302084060200,5.03306005859375,2.5055823062360285,-1.4377245266646146,-3.308739348062873
1789799302094032400,5.043032470703125,3.211360923850536,-1.401541598779708,-4.3244186121076345
1789799302104004000,5.053004150390625,3.4473394249796865,-1.2208268658414483,-5.069018835547566
1789799302113977000,5.06297705078125,3.236687965069711,-0.78133961616382,-5.713355434727668
1789799302123949300,5.07294921875,3.199560595941543,-0.3123703975446522,-6.5054328641355035
1789799302133921000,5.082921142578125,3.351990168507397,-0.16254413934499023,-7.696794858300685
1789799302143894300,5.092894287109375,3.001990151400864,0.3725586165256798,-8.523725574424862
1789799302153866200,5.1028662109375,2.1951205187916756,1.5087641022667289,-8.540117906299233
1789799302163838200,5.112838134765625,1.9350386730194091,2.3879085513614116,-8.338248010998964
1789799302173811200,5.122811279296875,1.9473156785294412,2.6266572478562593,-8.095943813979625
1789799302183783200,5.132783203125,2.03718328872025,2.1888225876912473,-8.027417390242219
1789799302193755100,5.142755126953125,2.125757644230127,1.3618233363755046,-8.06518276501298
1789799302203728100,5.15272802734375,2.2548270917356015,0.8008025876551866,-7.933900317633151
1789799302213700400,5.162700439453125,2.175980641774833,0.6553374472744763,-7.596760366621613
1789799302223672000,5.172672119140625,1.6564447267398237,0.7589347460016608,-6.761099231553077
1789799302233645300,5.182645263671875,1.250115504167974,0.8481780868142843,-5.809985670921206
1789799302243617300,5.1926171875,1.0602373676955699,0.8792550698623061,-4.886251700124144
1789799302253589200,5.20258935546875,0.8665241831049323,0.7618880428493022,-4.361163411659002
1789799302263562200,5.212562255859375,0.6035657589830458,0.5319111202225089,-4.285266751414537
1789799302273534200,5.2225341796875,0.4420671831682324,0.3175815563216805,-4.2787241979032755
1789799302283506200,5.232506103515625,0.5014461315929889,0.23581512726098297,-3.988011651545763
1789799302293479200,5.242479248046875,0.4671978250324726,0.19660510663986205,-3.412822822871804
1789799302303451400,5.252451416015625,0.34753815703764557,0.08522972125709057,-2.601705761951208
1789799302313423000,5.262423095703125,0.1930045248646289,-0.29614041662514207,-1.771034105733037
1789799302323396000,5.27239599609375,0.23541736011505127,-1.0226733607158065,-0.9933119494140148
1789799302333368300,5.282368408203125,0.3815677062809467,-2.1111784992575644,-0.1554372299492359
1789799302343340000,5.292340087890625,0.36757417917661367,-3.6739801889210937,0.8659773628771305
1789799302353313300,5.302313232421875,0.5337316136479378,-4.8703906986474985,1.825387627211213
1789799302363285200,5.31228515625,0.6590577099066227,-5.500408265095949,2.768566303190589
1789799302373257200,5.32225732421875,0.7420563111107796,-5.75930528499782,3.860401755198836
1789799302383230200,5.332230224609375,0.9777613290607928,-5.6446454711169,4.237694268378615
1789799302393202400,5.342202392578125,0.7393523859143256,-4.748888471525907,4.207614771935344
1789799302403175200,5.352175048828125,0.023849589077755806,-3.174813108175993,4.076495990684628
1789799302413147100,5.362147216796875,-0.5422738165438175,-1.806668313694,3.8972558603435754
1789799302423119400,5.372119384765625,-0.669800126260519,-0.765793818116188,4.159218697556853
1789799302433092000,5.382092041015625,-1.0018249262154102,-0.5425327597409486,4.335875825667381
1789799302443064300,5.392064208984375,-0.8520937989532947,-0.35517537391781806,4.565850702467561
1789799302453036300,5.402036376953125,-0.27171616946458815,-0.3057002721309662,4.18304147169292
1789799302463009000,5.412009033203125,-0.22071904574222861,0.02967500729560852,3.4922172621041536
1789799302472981200,5.421981201171875,-0.8960241991598159,0.21578560792803764,3.1043887418627736
1789799302482953200,5.431953125,-1.221511633235216,0.3469938210278749,3.039452451571822
1789799302492926200,5.44192626953125,-0.8036999895971267,0.18067688514590263,2.690500482213497
1789799302502898200,5.451898193359375,0.06504449990577996,0.134319623118639,2.250306399440765
1789799302512870400,5.461870361328125,-0.0830710088532418,0.12501111202538012,2.2967086696535346
1789799302522843100,5.471843017578125,-0.6856792479157447,0.016436171016097068,2.512045364770293
1789799302532815000,5.481815185546875,-0.6278138458590954,0.038298458734154696,2.834074255889654
1789799302542787300,5.491787353515625,-0.34842991824559866,-0.22430852160155773,3.2313515724778172
1789799302552760000,5.501760009765625,-0.2003892282884568,-0.28522388581335545,4.206449235287309
1789799302562732300,5.511732177734375,-0.46209129567369817,0.1643394983291626,5.007608381295204
1789799302572704300,5.521704345703125,-0.3849649475038051,0.6415677189886569,4.94129554195404
1789799302582677200,5.53167724609375,-0.2545861709654331,0.8437848202913999,4.389019971355796
1789799302592649200,5.541649169921875,-0.011594503138586879,0.9629068742781877,3.7780496352046726
1789799302602621400,5.551621337890625,0.2877719628609717,0.8670359320193529,3.353677975463867
1789799302612594200,5.56159423828125,0.5426035599548369,0.550182397711277,3.00896262076199
1789799302622566100,5.571566162109375,0.8091386004544794,0.3896382000118494,2.7619278880894185
1789799302632538400,5.581538330078125,0.8712871597230434,0.4467109173208475,2.4164263514459132
1789799302642511000,5.591510986328125,0.5946528230786323,0.4943494513303041,2.0715970149755476
1789799302652483300,5.6014833984375,0.07720489329881966,0.4570189608454704,1.6044155565559863
1789799302662455300,5.611455322265625,-0.4426794698476791,0.33928514634668827,1.1670727715611457
1789799302672428000,5.621427978515625,-0.6569277121406049,0.200066645270586,1.0563543887823819
1789799302682400300,5.631400146484375,-0.5358475828886031,0.046108255702257156,1.0823761342674494
1789799302692372200,5.641372314453125,-0.27386370288729667,-0.057474868369102476,1.4613298586577177
1789799302702345200,5.65134521484375,-0.07320318337678909,-0.23101766385138034,1.8141110309153794
1789799302712317200,5.661317138671875,-0.25429858619570733,-0.9202771083414554,1.7456202630132436
1789799302722289400,5.671289306640625,-0.7771428951263427,-1.502316533562541,1.9093506895333527
1789799302732262100,5.68126220703125,-1.0910719933550803,-1.8265391353338956,2.34304430437088
1789799302742234000,5.691234130859375,-0.8715992213468998,-1.8826088130801915,2.6155092463761567
1789799302752207400,5.701207275390625,-0.07178973638229072,-1.668743944081664,2.9958932958304882
1789799302762179000,5.711178955078125,0.5877905360937118,-1.506152750724554,3.350748351752758
1789799302772151300,5.7211513671875,0.6139875650804489,-1.9752964491277931,3.3360213227421043
1789799302782124300,5.731124267578125,-0.12906703635267913,-2.4029718265891074,3.426269164422154
1789799302792096300,5.74109619140625,-0.6795603997092694,-2.928351791477203,2.9143507386535403
1789799302802068200,5.751068115234375,-0.5331623623926193,-2.9563132728531953,2.370215219891071
1789799302812041200,5.761041259765625,-0.1907529465455562,-2.272489297415316,2.514075993815064
1789799302822013200,5.77101318359375,-0.11647183173894882,-2.2433082111164926,2.189362393656373
1789799302831985200,5.780985107421875,0.015537833936884998,-2.446722120988369,1.8286375689178704
1789799302841958400,5.79095849609375,0.45919586649313565,-2.7419661732956766,1.4177210185557603
1789799302851930000,5.80093017578125,0.16817863810062408,-3.3563986325994133,0.5580939014881849
1789799302861902300,5.81090234375,0.3239676040969789,-3.5195761014118787,0.239890121614933
1789799302871875300,5.820875244140625,0.8517933547019958,-3.365839537900686,-0.04439560656547546
1789799302881847000,5.830846923828125,1.0033774163544178,-3.2491841662883756,-0.7096241871267557
1789799302891819300,5.8408193359375,1.688789976157993,-3.0654984547153115,-1.136178451603651
1789799302901792300,5.850792236328125,2.0781714249297973,-2.9140254522219298,-1.8748095375061034
1789799302911764200,5.86076416015625,1.963213797146082,-2.624384626749158,-2.698675020840764
1789799302921737200,5.8707373046875,2.5115318622902034,-2.042582517415285,-3.432302599367499
1789799302931709200,5.880709228515625,2.9164406966701146,-1.399927587711811,-4.4259792904406785
1789799302941681200,5.89068115234375,3.1461203899160024,-0.5742807739183307,-4.9702474956721066
1789799302951654100,5.900654052734375,2.6937597762703893,0.008628712135553359,-5.891798861733078
1789799302961626400,5.91062646484375,2.580964587217569,0.34379210237711666,-6.389405853554606
1789799302971598000,5.92059814453125,2.2565905942767857,0.4850019234009087,-6.913579949784278
1789799302981571000,5.930571044921875,1.6965964121252297,0.7208841245487332,-7.70329532623589
1789799302991543300,5.940543212890625,0.879635593612492,1.3331025610648095,-7.7093480504035945
1789799303001515300,5.950515380859375,1.002535704833269,2.0150173418805,-7.401080558133125
1789799303011488300,5.96048828125,2.022904295738041,1.9223359894432126,-7.639962379488349
1789799303021460200,5.970460205078125,2.4876862918004394,1.192712239730358,-8.145111457252503
1789799303031432200,5.98043212890625,2.1857073782801626,0.9416479592807591,-8.42460644402504
1789799303041405200,5.9904052734375,1.7957938684582708,1.2122056063599884,-8.285617660051583
1789799303051377400,6.00037744140625,1.9577241136886179,1.4357798223376272,-8.007560012605786
1789799303061349000,6.01034912109375,1.8981892440497874,1.5662022918872534,-7.535922159299254
1789799303071322000,6.020322021484375,1.355012925708294,1.486700008366257,-6.841027339270711
1789799303081294300,6.03029443359375,0.838085147345066,1.195146481139958,-5.80166149469018
1789799303091267000,6.04026708984375,0.7715797080412506,0.8424185003742575,-4.8991480065763
1789799303101239300,6.0502392578125,0.9110065911710262,0.6206085175901651,-4.225765345653891
1789799303111211300,6.060211181640625,0.8354828558921813,0.3827084007486701,-3.724660574844479
1789799303121184000,6.07018408203125,0.41027956763282414,0.03949614408612251,-3.451732691502571
1789799303131156200,6.08015625,0.02192790030017495,-0.3331806919917464,-2.972176320156455
1789799303141128200,6.090128173828125,-0.30134441500902176,-0.7105684822395444,-2.0782108801573513
1789799303151101200,6.10010107421875,-0.6370329251032322,-1.1568775407612324,-1.0768623392820358
1789799303161073200,6.1100732421875,-0.7248479866784066,-1.8892612567067144,-0.1733838055282831
1789799303171045400,6.12004541015625,-0.47579365781173105,-2.8067496111124752,0.8012602682948112
1789799303181018000,6.13001806640625,-0.27452180146984756,-3.9753406782820817,1.931519851243496
1789799303190990300,6.139990234375,-0.2557844043066725,-5.282620085173845,3.0676778445810076
1789799303200962300,6.14996240234375,0.048011385909840464,-5.992332535105944,3.85776497695446
1789799303210935000,6.15993505859375,0.33776473184637723,-5.943510928791761,4.2537078300684685
1789799303220907300,6.1699072265625,0.2450316126892343,-5.455566668328642,4.049094189018011
1789799303230880300,6.17988037109375,-0.3384369685521349,-4.419910784181952,4.02192210445404
1789799303240852200,6.189852294921875,-0.7643781791646033,-2.90187470344007,4.23100850700438
1789799303250824200,6.19982421875,-0.7305459791243076,-1.375300511455536,3.84659301007688
1789799303260797200,6.209797119140625,-0.7959248255509883,-0.07537351315319538,3.527196221026778
1789799303270769200,6.21976904296875,-1.2902233504116534,0.5289245056271553,3.6656951756566762
1789799303280741000,6.2297412109375,-1.3773568594634533,0.5499912590533494,4.070944786298274
1789799303290714400,6.23971435546875,-0.8632230957329273,0.19583236870169637,4.501608239659666
1789799303300686000,6.24968603515625,-0.37147294018082316,-0.04798515549004077,4.348723616802692
1789799303310658300,6.259658203125,-0.2970459140975028,-0.08591010473668574,4.46534625518918
1789799303320632000,6.269632080078125,-0.4451017285585403,-0.08342354861795902,4.224691578942537
1789799303330604000,6.27960400390625,-0.09562076689004897,0.07325812843441963,3.5337563101947307
1789799303340576800,6.28957666015625,-0.21199556799530983,0.21924539299309254,2.790742479163408
1789799303350549000,6.299549072265625,-0.3818050952333957,0.22946984988749025,2.41197463273406
1789799303360521000,6.30952099609375,-0.7302068833630532,0.023711130455136297,2.3906828383803367
1789799303370494000,6.319493896484375,-0.21309088895134626,-0.05443184741139412,2.511066290605068
1789799303380466000,6.3294658203125,0.06184365803785622,0.11404840398430824,3.060055094617605
1789799303390438000,6.33943798828125,-0.13871274351105092,0.818931534063816,3.903502645778656
1789799303400411000,6.349410888671875,-0.18274024741649628,1.0510919382095336,4.019567650282383
1789799303410383000,6.359383056640625,-0.3468096966326237,1.0836685121655463,3.580740179687738
1789799303420356000,6.369356201171875,-0.26135500751324,1.1631424463748932,3.284109349197149
1789799303430327800,6.379327880859375,-0.010930559337139129,1.0468103153675794,2.6549118669599294
1789799303440300000,6.389300048828125,0.20239892414305358,0.8752852894484996,2.258169972422719
1789799303450273000,6.39927294921875,0.0935935719113797,0.4039274221271276,2.237221876940131
1789799303460245000,6.409244873046875,-0.05525726538486778,-0.24888415993154048,2.4131226337254046
1789799303470217000,6.419217041015625,-0.07733699524588883,-0.7959674225836991,2.6339713702619076
1789799303480190000,6.42918994140625,-0.04488773746397346,-1.0436679256886243,2.703939224979281
1789799303490162000,6.439161865234375,0.03864515327997505,-0.8438789283156395,2.430564766913652
1789799303500135000,6.449135009765625,-0.21909626684598624,-0.5451981795579195,2.0746090562731028
1789799303510107100,6.459107177734375,-0.8039081524550914,-0.38024551776647564,1.9765712913691997
1789799303520078800,6.469078857421875,-1.199318579192832,-0.5386427665650845,1.7933757014006375
1789799303530051800,6.4790517578125,-1.0482149214684962,-0.7725327709823846,1.5209323867052793
1789799303540024000,6.489024169921875,-1.0328525171637535,-1.1433481971025465,1.5520155072331427
1789799303549995800,6.498995849609375,-1.4477379711568354,-1.6977549345105885,1.7808593341767787
1789799303559969000,6.508968994140625,-1.690652409029007,-2.0885078177660703,2.372345217657089
1789799303569941000,6.51894091796875,-1.4127192647457123,-2.2946523216456174,3.1587352490782736
1789799303579913700,6.528913818359375,-0.3672199589114636,-2.04115569948256,3.5171845301002262
1789799303589886000,6.538885986328125,0.2592588389515877,-1.8553993191152809,3.2723119438976047
1789799303599858000,6.54885791015625,0.01928337714076042,-2.0112883844852445,2.9914421616405247
1789799303609831000,6.558830810546875,-0.6562579231202602,-2.2251024000793693,2.4885925929903983
1789799303619803000,6.568802978515625,-0.730438354031369,-2.6368787821412085,1.5259557678252458
1789799303629775000,6.578775146484375,-0.22846739484667777,-2.5828496703118082,1.0733154604554176
1789799303639747800,6.588747802734375,-0.1878044720035046,-1.9979490104407072,0.9828682968109845
1789799303649720000,6.598719970703125,-0.2411957973860204,-1.791115939775109,0.7839297787874937
1789799303659693000,6.608693115234375,-0.2503903997760266,-1.949554105105996,0.742639737021923
1789799303669664800,6.618664794921875,-0.44374812199249863,-2.405943828137219,1.0172405220121146
1789799303679637000,6.628636962890625,0.044049569606781004,-2.774946359616518,1.5109896693617104
1789799303689610000,6.63860986328125,-0.05413724837899208,-3.378516064122319,1.1718816331475972
1789799303699582000,6.64858203125,0.07049319376572966,-3.7403298531413074,0.9855594355911016
1789799303709555000,6.658554931640625,0.590868482234329,-3.996172161647677,0.6118558868139982
1789799303719527000,6.66852685546875,1.2989056924305855,-4.1598391675427555,-0.06560732142031192
1789799303729499000,6.678498779296875,1.9044598487518727,-3.820845113097131,-0.9939321271389723
1789799303739472000,6.688471923828125,2.1369792954683304,-2.9630677155494687,-1.9673142182022332
1789799303749444000,6.698444091796875,2.199293858953565,-2.014158094702661,-3.1499399482041595
1789799303759415800,6.708415771484375,2.648559867584705,-1.2491425674825907,-4.090191338559985
1789799303769388800,6.718388916015625,2.660922797812521,-0.6543044509649276,-5.2059050942838185
1789799303779361000,6.728361083984375,2.3599252965450286,-0.3277221343249082,-5.979757131171226
1789799303789334000,6.738333984375,1.9193217561885714,-0.19852759913504123,-6.735564392802119
1789799303799306000,6.748305908203125,1.7107655149921774,0.019214841949194667,-7.379891055110097
1789799303809278000,6.75827783203125,1.7785092639192939,0.3040944443695247,-7.8861121460199355
1789799303819251000,6.7682509765625,1.7141365988604724,0.8032970348194242,-8.319542726007104
1789799303829223000,6.778222900390625,1.6770573066577315,1.7801314582936465,-8.450952014636993
1789799303839196000,6.78819580078125,1.6706465628325937,2.5419869140475986,-8.375176350423693
1789799303849168100,6.798168212890625,1.8674261492565274,2.34265267470479,-8.183311131787299
1789799303859139800,6.808139892578125,2.140836263157427,1.845942777853459,-7.790864888617396
1789799303869113000,6.818113037109375,2.1159785930156705,1.6526289678439496,-7.232534255763888
1789799303879085000,6.8280849609375,1.6895196056067943,1.4883987751081584,-6.580960691067576
1789799303889057800,6.838057861328125,1.2129328977212308,1.2667660485871135,-6.212551157045364
1789799303899030000,6.848030029296875,0.8847510369300842,0.9927207055225967,-6.055578388091922
1789799303909002000,6.858001953125,0.4966204650022089,0.7401704242989421,-5.805635074496269
1789799303918975000,6.86797509765625,0.1163185408733785,0.668614131346345,-5.105655498549342
1789799303928947000,6.877947021484375,0.1510194135069847,0.7336769706264138,-4.025806836932897
1789799303938920000,6.887919921875,0.2853668014153838,0.6306131942540407,-3.0387282289505
1789799303948892000,6.897891845703125,0.3462368651807308,0.20996376990675925,-2.6504087103217837
1789799303958864000,6.90786376953125,0.1586426018618047,-0.47391865772008895,-2.7470558976501227
1789799303968837000,6.917837158203125,-0.18596330111622808,-1.2359624756529926,-2.7546079204648732
1789799303978808800,6.927808837890625,-0.40854916364364324,-1.914432230581343,-2.105323343488574
1789799303988781800,6.93778173828125,-0.5428572424549609,-2.5768308484137057,-1.1229565664589405
1789799303998754000,6.947754150390625,-0.4438519842257723,-3.376697908784449,-0.2626736158311367
1789799304008725800,6.957725830078125,-0.32797753385808315,-4.348386055411398,0.6544955896228551
1789799304018699000,6.967698974609375,-0.4929506904482841,-5.25295793735981,1.6987638192921877
1789799304028671000,6.9776708984375,-0.49252161484863605,-5.6581187006741755,2.9149013582736254
1789799304038644000,6.98764404296875,-0.005125051396153867,-5.785580128461122,3.9347126075565813
1789799304048616000,6.997615966796875,0.31211481534838675,-5.598728354072571,4.431093272453547
1789799304058589000,7.0075888671875,0.08899115614984184,-4.546238239502906,4.326113725587725
1789799304068561000,7.017560791015625,-0.4314788248648867,-2.940262009501457,3.713763333255052
1789799304078532900,7.027532958984375,-0.7511550519108772,-1.4711638549298047,3.0251509544968602
1789799304088505900,7.037505859375,-0.7769196077644824,-0.37662498918175696,2.545134564423561
1789799304098477800,7.047477783203125,-1.3375602711260317,0.06847732389867306,2.6916134118914603
1789799304108450800,7.057450927734375,-1.6551391970992086,0.053744449669122694,3.055069707420468
1789799304118423000,7.067423095703125,-1.2609691988766192,-0.0603407791942358,3.4834500182807444
1789799304128394800,7.077394775390625,-0.5712578824331983,-0.3943739963620901,3.3982413398116824
1789799304138368000,7.087367919921875,-0.44846397153325374,-0.42807285234630105,3.893001710030436
1789799304148340000,7.097340087890625,-0.6502023494083434,-0.313296718609333,4.002117333787679
1789799304158313000,7.10731298828125,-0.28463417629189786,-0.11972937223017215,4.000206531730294
1789799304168285000,7.117284912109375,-0.5375299099523574,-0.03675473642349243,4.052608334618807
1789799304178258000,7.1272578125,-0.7121861465692519,-0.06190729785859585,4.0444115841597315
1789799304188230100,7.137230224609375,-0.46943069865107534,0.07200958967804909,3.9166345145523547
1789799304198201900,7.147201904296875,-0.2724035672068596,0.3955570686668157,3.6286855876892803
1789799304208174800,7.1571748046875,-0.5115981077730656,0.513273932030797,3.8679987861990925
1789799304218147000,7.16714697265625,-0.5439139849662781,0.3442892382442951,3.998880836084485
1789799304228119800,7.177119873046875,-0.48473461423423136,0.40095863544940946,3.9569355452805755
1789799304238092000,7.187092041015625,-0.35249588904287665,0.6583838292330503,3.8466093766897913
1789799304248064000,7.19706396484375,-0.41481304634399707,0.7614023051589727,3.55759194381237
1789799304258036700,7.20703662109375,-0.43019642037153244,0.7083622043669223,3.243523071786761
1789799304268009000,7.217009033203125,-0.25518464831523596,0.7419137608349323,2.918522471380234
1789799304277982000,7.22698193359375,-0.0035188217759132383,0.7027420263975859,2.640723182609677
1789799304287954000,7.236953857421875,0.00319850378036499,0.41797289861440656,2.284433125448227
1789799304297927000,7.246927001953125,-0.15884272754378617,0.08551438341736793,2.051961755657196
1789799304307899000,7.25689892578125,-0.48328266186024993,-0.3374322119563818,2.0173183122992513
1789799304317870800,7.266870849609375,-0.7817652942299842,-0.8026637053519486,1.9013515074729919
1789799304327843300,7.27684326171875,-0.7147802547156811,-1.090111112433672,1.8265847280412912
1789799304337815300,7.286815185546875,-0.2609048525929451,-1.0394856715679168,1.653929821309447
1789799304347788300,7.296788330078125,-0.3061118486065417,-1.0167208820521831,1.267392509922385
1789799304357760500,7.306760498046875,-0.7496142522096634,-0.9656745854258537,0.9924281523168086
1789799304367733200,7.316733154296875,-0.9158230515420437,-0.9533569556444883,0.8200427101761102
1789799304377705200,7.326705322265625,-0.8634522283136844,-1.0067109446913003,0.538580222722888
1789799304387677400,7.336677490234375,-0.9234007202547043,-0.8731932856053114,0.5317097524315119
1789799304397650200,7.346650146484375,-1.2710697371304034,-0.8275748592466116,1.1254016215234994
1789799304407622400,7.356622314453125,-1.2139735658805817,-0.9972551340818404,1.9424498260587453
1789799304417595400,7.366595458984375,-0.46117374243736264,-1.2171300571501253,2.8073341330021617
1789799304427567400,7.3765673828125,-0.1436474964994937,-1.5470961710095406,3.681262747144699
1789799304437540400,7.386540283203125,-0.14419804305434225,-2.074681536987424,3.856202549943328
1789799304447512300,7.39651220703125,-0.448453304008767,-2.719261297273636,3.5072131711840626
1789799304457485300,7.4064853515625,-0.3821685217183083,-3.2262574642091986,2.2368033592671153
1789799304467457300,7.416457275390625,0.03473696686029434,-2.85930602004081,1.4525082542985677
1789799304477429500,7.426429443359375,0.1263057549457997,-2.2635738772928713,0.9503425762593746
1789799304487402500,7.436402587890625,-0.1423824449997395,-2.147075742068887,0.7048708551198244
1789799304497374200,7.446374267578125,-0.2070423295021057,-2.2910452370643615,1.0294336486309765
1789799304507347500,7.456347412109375,-0.11240005225539207,-2.5522318292081354,1.3318962540149688
1789799304517319400,7.4663193359375,-0.44843233428597445,-3.125464847639203,1.20507370865345
1789799304527292200,7.476292236328125,-0.36948227782025933,-3.546558800883591,0.8642956934005022
1789799304537264400,7.486264404296875,0.49608036677613854,-3.5881902034327386,0.6080126553893089
1789799304547237400,7.4962373046875,0.5686017053686082,-3.6743478531897065,-0.11252630898356437
1789799304557209300,7.506209228515625,1.1746155881561338,-3.4409932708233595,-0.8345686636567116
1789799304567181300,7.516181396484375,1.8924061306037008,-3.009203443780541,-1.7634236307293176
1789799304577154300,7.526154296875,2.5566777027010916,-2.279630985863507,-2.396333411487937
1789799304587126300,7.536126220703125,2.528644032871723,-1.9118197099953889,-3.2999218353569506
1789799304597099300,7.546099365234375,2.4151791278637944,-1.5654706166118382,-3.8748324316114187
1789799304607071500,7.556071533203125,2.451009881310165,-0.8971788490876554,-4.335827894872427
1789799304617044500,7.56604443359375,2.2183505877316,-0.4381126003235578,-5.1392093931049105
1789799304627016200,7.57601611328125,2.1134274472281334,-0.016561989352852104,-5.886245903781056
1789799304636989400,7.585989501953125,1.513169059227407,0.35009529417455193,-6.866849762791395
1789799304646961400,7.59596142578125,1.8339345062822103,0.640007483934611,-7.3477856057971715
1789799304656934100,7.60593408203125,1.751663634830713,1.0815231706999242,-7.739706363788247
1789799304666906400,7.61590625,1.4403484454274176,1.6892055712215601,-8.04729639518857
1789799304676879400,7.62587939453125,1.699918396154791,1.7630986365586518,-8.134471989816427
1789799304686851300,7.635851318359375,1.8342803971104322,1.3636857692465185,-8.145738649240135
1789799304696823300,7.6458232421875,1.8048098263457417,1.225060119497031,-7.8207766272783275
1789799304706796300,7.65579638671875,1.824624826145172,1.3901744015909732,-7.353469496652483
1789799304716768300,7.665768310546875,1.6373039729401468,1.4275032846406102,-7.203271336400508
1789799304726741200,7.6757412109375,1.271900634996593,1.319271019589156,-7.143817276912928
1789799304736713500,7.68571337890625,1.2351403456151484,1.1674867591895162,-6.583199994426965
1789799304746686200,7.695686279296875,1.4254396301090717,1.0929676709085703,-5.711343510383367
1789799304756658400,7.705658447265625,1.1427576838634907,0.9721852824941277,-5.028733586910366
1789799304766631400,7.71563134765625,0.48612581286430356,0.7159449145808816,-4.580163305458426
1789799304776603100,7.72560302734375,-0.09028875821232796,0.41281595424264667,-3.9985412288665767
1789799304786576400,7.735576416015625,-0.020784283223003148,0.0958835094794631,-3.055602206861973
1789799304796548400,7.74554833984375,0.16724924829602242,-0.19818302348107097,-1.9072955105692146
1789799304806521300,7.755521240234375,-0.09616451837792991,-0.752908617579937,-1.088309615969658
1789799304816493300,7.765493408203125,-0.7214882279217243,-1.489815363907814,-0.46502574169039723
1789799304826466300,7.77546630859375,-1.1184043830472976,-2.1770392109170555,0.20282208145856856
1789799304836438500,7.7854384765625,-1.1421441550750284,-2.8611712293908,0.965008230471611
1789799304846411300,7.795411376953125,-0.8573650904197245,-3.442373911526799,1.605255514511466
1789799304856383200,7.80538330078125,-0.523420501383394,-4.017786027562618,2.1045038437992334
1789799304866356500,7.8153564453125,-0.17180040879435837,-4.43573028460443,2.6769448350697753
1789799304876328200,7.825328125,0.1919884796898812,-4.54412285478413,2.9708208138942718
1789799304886301200,7.83530126953125,0.3649217649716884,-4.4138054530441755,2.9899300035119056
1789799304896273400,7.8452734375,0.23713110523037612,-3.7498973074316977,2.9815824464052914
1789799304906245000,7.8552451171875,-0.5296259318947791,-2.9187358218699693,3.035703328171372
1789799304916218400,7.86521826171875,-0.46841479960680005,-2.141627998057008,3.1385078690856694
1789799304926190300,7.8751904296875,-0.2008288618147373,-1.3757073386907577,3.3478900397121905
1789799304936163300,7.885163330078125,-0.030610169253870844,-0.7425158183813094,3.4157775810241695
1789799304946135300,7.89513525390625,0.17882051668949425,-0.24913433530032633,3.4071453617572782
1789799304956108300,7.9051083984375,-0.23532968183159828,0.0657820934653282,3.452134842562675
1789799304966080500,7.91508056640625,-0.6013502748906612,0.35999417237639425,3.58476578194201
1789799304976053200,7.92505322265625,-0.5570739107906818,0.21130115599036214,3.720869950389862
1789799304986025200,7.935025146484375,-0.5235726232051849,0.11514204443991184,3.9347307277351615
1789799304995998500,7.94499853515625,-0.27835633813142774,0.12334113298654556,4.125055731192231
1789799305005970200,7.95497021484375,-0.6022059418719261,-0.01167991639971733,3.8162691834837195
1789799305015943200,7.964943115234375,-1.0278280400652438,-0.1439303320288658,3.3694828628391025
1789799305025915400,7.974915283203125,-0.8399895196616649,0.0604495002657175,3.0649691701442
1789799305035888400,7.984888427734375,-0.4791092121005058,0.04814005379080772,2.7050311118692156
1789799305045860400,7.9948603515625,0.07225508887171744,0.4887818803310394,2.89644741769433
1789799305055833300,8.004833251953125,0.21957688996978103,1.0506430253982544,2.96177884478271
1789799305065806300,8.014806396484374,-0.10723170970678329,1.1884446454137563,3.011999211978912
1789799305075778300,8.0247783203125,-0.8165361633598804,0.965036287522316,3.286796980845928
1789799305085751300,8.034751220703125,-0.8695803558051586,0.6952841116070747,3.4353029502272605
1789799305095723300,8.04472314453125,-0.5479214670419693,0.2821580685019493,3.3361884960025545
1789799305105696500,8.054696533203124,-0.5154734879016876,-0.14642565597593785,3.3617730191141364
1789799305115668200,8.064668212890625,-0.6094085667271166,-0.2123445275634527,3.5026094767808913
1789799305125641500,8.074641357421875,-0.37534846643991765,-0.10387772310376167,3.1998329831421373
1789799305135613400,8.084613525390624,0.16351773361749947,-0.09067220457196234,2.3064479733794925
1789799305145586200,8.094586181640626,0.37751813862919803,-0.006698036333918571,1.3496253874510526
1789799305155558400,8.104558349609375,-0.1487140591740608,0.056391749307513235,0.9923878203064203
1789799305165531400,8.114531494140625,-0.703176326161623,-0.21419804647564886,1.2963690135598183
1789799305175503400,8.12450341796875,-0.49690088937878607,-0.8529244045585394,1.6573481053203343
1789799305185476400,8.134476318359376,0.07893252080902456,-1.3926117117404937,2.049085323438048
1789799305195448300,8.1444482421875,0.44026312942095097,-1.4699644160121679,2.57846400257349
1789799305205421600,8.154421630859375,0.40532618300914763,-1.234842823973298,3.022899376177788
1789799305215393300,8.164393310546876,0.14550152686834333,-1.035218077251315,2.7416601760864254
1789799305225366300,8.1743662109375,-0.051278863273188466,-0.9831313316613435,1.7458008802771567
1789799305235338500,8.18433837890625,-0.6290251944102346,-0.9330074105769395,1.2047557287454604
1789799305245311200,8.194311279296874,-1.2264625336408614,-0.953536403864622,1.284910630956292
1789799305255283500,8.204283447265626,-1.231213527560234,-1.2488643350630997,1.6912947985857725
1789799305265256400,8.21425634765625,-0.35589185162410136,-1.6054589281290768,2.1911703198611736
1789799305275229200,8.224229248046875,0.4736849220294505,-1.8757360047012566,2.723839272713661
1789799305285201400,8.234201416015624,0.6914451179660857,-2.3458628689229486,3.1893291247844693
1789799305295174400,8.24417431640625,0.33396409745439887,-2.7269357774242757,2.8751445174247023
1789799305305146000,8.25414599609375,0.07025134783387184,-3.0555446314558385,1.7547405580580233
1789799305315119400,8.264119384765625,0.3199954855956137,-2.7853149011567235,1.1369383300602436
1789799305325090800,8.2740908203125,0.13509221492633222,-2.0977800885021685,0.6528852318167686
1789799305335063800,8.284063720703125,0.08216039681434631,-1.8320628671914339,0.20834172166287898
1789799305345036000,8.2940361328125,-0.08646613118425012,-1.9447507964774966,0.2394803717702627
1789799305355008800,8.3040087890625,-0.3319581644594669,-2.3581951117515563,0.19449965879321096
1789799305364981000,8.31398095703125,-0.20907529663443564,-2.7716011408418417,0.4398527219891548
1789799305374954000,8.3239541015625,0.5597169726453721,-3.0186385038629173,1.0789964287012814
1789799305384927000,8.333927001953125,0.5787365842834115,-3.3950074724569914,0.6141659173220396
1789799305394899000,8.34389892578125,1.4335212297558784,-3.5441520320028066,-0.06512567538321018
1789799305404872000,8.353871826171876,2.09377699034065,-3.4092668839558957,-0.7436503753691911
1789799305414844200,8.36384423828125,2.0132731285616754,-2.9913503917038438,-1.8388409830242394
1789799305424817000,8.37381689453125,2.7482696573540566,-2.358233105674386,-2.5852923872888085
1789799305434788900,8.383788818359376,2.577204942423105,-1.5303690542228519,-3.2646775034964084
1789799305444762000,8.39376220703125,2.3130913569167255,-0.7807699995823204,-3.6591964612871406
1789799305454733800,8.40373388671875,1.2520868042409419,-0.2915415445275605,-4.794029343500733
1789799305464706800,8.413706787109374,1.4181801605001092,0.05831614149883389,-5.442139031478762
1789799305474680000,8.42368017578125,2.1912410470098256,0.24301205302774906,-6.109158587110042
1789799305484652000,8.433652099609375,2.9010546192288396,0.6062688804619014,-6.780766055053472
1789799305494624800,8.443624755859375,3.004746756632626,1.0860999770961701,-7.426518366250395
1789799305504597000,8.453596923828124,2.69234172616601,1.3420461843684315,-7.990756177321076
1789799305514570000,8.463570068359376,2.863556078700721,1.3837138272747396,-8.439626318502425
1789799305524542000,8.4735419921875,3.287003609333932,1.3839296619825063,-8.971429009914397
1789799305534515000,8.483514892578125,3.1331475110962983,1.5178690536119044,-9.179101454013585
1789799305544488000,8.493488037109374,2.8340654880613085,1.7176880077317356,-8.597424432364106
1789799305554460200,8.503460205078126,2.790558062507212,1.8445672517165541,-7.616212670588493
1789799305564433000,8.513432861328125,2.649473475298285,1.7475059306293725,-6.742645290973782
1789799305574404900,8.52340478515625,1.9707272415161132,1.5434417401552198,-6.063351944702863
1789799305584378000,8.533378173828124,1.6254957539856434,1.2888581995382904,-5.423262481573223
1789799305594351000,8.54335107421875,1.6047522411644457,1.1366530833780766,-4.945311207336187
1789799305604322800,8.55332275390625,1.0971697987735272,1.026754784810543,-4.47243358310163
1789799305614296000,8.563296142578125,0.4681937042020261,0.8844704664230346,-3.8355560677558183
1789799305624268000,8.57326806640625,0.4113783226549625,0.7602955129608512,-2.8149568829655647
1789799305634240800,8.58324072265625,0.49665422114133834,0.4240820291444659,-1.7753987306833265
1789799305644214000,8.593214111328125,0.20229250462651252,-0.22283231156915426,-1.167387244337797
1789799305654186000,8.60318603515625,-0.2911820635654032,-1.1830810725539922,-0.9943027140170335
1789799305664159000,8.613158935546876,-0.6464521300293505,-2.2164687195077537,-0.7269494159370661
1789799305674131000,8.623130859375,-0.8540298815824091,-3.115201520039141,-0.059058922690153115
1789799305684104000,8.63310400390625,-0.6866695741273462,-3.64368997233659,0.7720645689487456
1789799305694076200,8.643076171875,-0.020190701244026422,-3.9861327059313654,1.2608873658120632
1789799305704049000,8.653048828125,0.45456638006158173,-4.327247113531827,1.849677434337139
1789799305714022000,8.66302197265625,0.3771593152541667,-4.564044529828429,2.5239129126966
1789799305723994000,8.672994140625,0.29838666118197144,-4.628182363218069,2.7161767752617596
1789799305733967000,8.682967041015624,0.004878419691324234,-4.339395231965184,2.945953499141335
1789799305743939800,8.69293994140625,-0.6243254922866821,-3.800641406241059,3.1445518254250286
1789799305753912000,8.702912109375,-0.9168610893528908,-3.0504794570207596,3.1662159602224826
1789799305763885000,8.712885009765625,-0.6869289557158946,-2.0988503480821845,3.2335341772139072
1789799305773856800,8.722856689453126,-0.6750445297200233,-1.2997311834692955,3.092560356903076
1789799305783830000,8.732830078125,-0.9871312149524688,-0.8504413555711507,3.103149555456638
1789799305793803000,8.742802978515625,-1.2212310627281666,-0.3920908538609743,3.297411898362636
1789799305803775000,8.75277490234375,-1.451257961976528,-0.16458792013227938,3.6589778501003978
1789799305813748000,8.762748046875,-1.3450269537448882,-0.3807528827667236,3.6067812143951654
1789799305823720000,8.772719970703125,-1.2999766826629637,-0.607663695821166,3.9237744494348763
1789799305833693000,8.78269287109375,-1.1683902839004994,-0.6750795279681682,4.186019026198983
1789799305843666200,8.792666259765625,-1.0676538544971494,-0.65301324211061,3.9330332761675115
1789799305853638000,8.802637939453126,-0.8850351145684718,-0.3956073375493288,3.323833456820249
1789799305863611000,8.81261083984375,-1.1013654238324613,-0.17701134837567806,2.6087691244661806
1789799305873584000,8.822584228515625,-0.949084685152769,0.26602292625904084,2.338801259973645
1789799305883555800,8.832555908203124,-0.7682581624031066,0.5947568679749965,2.552178053194284
1789799305893528800,8.84252880859375,-0.09456285533495247,0.8562924196869134,2.9925562603622673
1789799305903501000,8.8525009765625,0.5297814147174358,0.9575789572536945,2.951303627997637
1789799305913473800,8.862473876953125,0.2595662974655628,0.9746505035638808,2.741648485648632
1789799305923446800,8.87244677734375,-0.5351987635910511,0.8220540499985217,2.8900439803928135
1789799305933419000,8.8824189453125,-0.831419186649844,0.4455956495553255,3.1888848881483076
1789799305943392000,8.89239208984375,-0.6302594854455441,-0.10306640672087669,3.3670600196063516
1789799305953364700,8.90236474609375,-0.25142865678258236,-0.46563948967456814,3.4764667352646588
1789799305963337000,8.9123369140625,-0.0037269846338778734,-0.4079460101187229,3.469319201597571
1789799305973310000,8.92231005859375,-0.012597688831761478,-0.07917524352371692,3.24246158003509
1789799305983283000,8.932282958984375,-0.0901648395717144,0.3111713970184326,2.6870395281046626
1789799305993255000,8.9422548828125,-0.418798243522644,0.5797457613259553,1.9382868611603974
1789799306003228000,8.952227783203124,-0.8512005033753812,0.5317424856573343,1.3585183034807442
1789799306013201000,8.962200927734376,-1.1264590216219426,0.24279402636289596,1.1840741752445698
1789799306023172900,8.9721728515625,-1.086800380450487,-0.08202478773593902,1.2817927911967038
1789799306033145900,8.982145751953125,-0.8349685496944934,-0.36334465184807774,1.2471101848721504
1789799306043118800,8.992118896484374,-0.7036884404022247,-0.5713906054347753,1.2535340804398059
1789799306053091000,9.002091064453126,-1.0155331335723399,-0.7006055988907813,1.5045774642318486
1789799306063063800,9.012063720703125,-1.4492799399018286,-0.8630062381118535,1.8178315127432345
1789799306073036800,9.022036865234375,-1.5303763607464729,-1.0868915658652782,2.0952046850562094
1789799306083009000,9.032009033203124,-1.2167395234625786,-1.2786796276122332,2.3967706338614225
1789799306092982000,9.04198193359375,-0.488834414235875,-1.302447456690669,2.536829677414894
1789799306102954800,9.051954833984375,-0.21190788971185684,-1.424521346220374,2.7147031955778598
1789799306112927000,9.061927001953125,-0.7357283501982689,-1.7837077093452214,2.6280910800516604
1789799306122900000,9.07189990234375,-1.3555109383583068,-2.057349293914437,2.4162357973098754
1789799306132873000,9.081873046875,-1.3362275612175465,-2.118783129042387,2.22551156540215
1789799306142845000,9.091844970703125,-0.5326841504216194,-2.198193642626703,1.8766613028526304
1789799306152818000,9.10181787109375,-0.06716273416876793,-2.0573484171316028,1.8556676146626472
1789799306162791000,9.111791015625,0.31616803626194595,-2.1348951826706526,1.9065169274121523
1789799306172763000,9.121762939453125,0.16520795172676442,-2.4822961231946943,1.8979706328630446
1789799306182736000,9.13173583984375,-0.23190891360267996,-2.5104180558294056,2.1911329104602335
1789799306192708900,9.141708984375,-0.35302068010196086,-2.7274136240690945,1.802557955765724
1789799306202681000,9.15168115234375,-0.4568950422048568,-3.068152768616378,1.192611701965332
1789799306212653800,9.16165380859375,-0.6239201263561844,-3.2694477866381404,1.0585977837949991
1789799306222626800,9.171626708984375,0.0818659439124167,-3.4316274765849113,0.7770031943947077
1789799306232599000,9.18159912109375,0.9351943992272019,-3.3462361350253222,0.4301835608899593
1789799306242572000,9.191572021484374,1.0598868006922304,-3.3701159000456333,-0.4625783485382795
1789799306252544800,9.201544677734375,1.3942764300823212,-3.3017125181660054,-1.474807764390111
1789799306262517000,9.21151708984375,1.936083944288641,-2.93279591140449,-2.3278642708957196
1789799306272490000,9.221489990234375,2.200027872316539,-2.31885021270439,-3.177610045418143
1789799306282463000,9.231462890625,2.613453482890129,-1.8166791278377175,-4.179246171063184
1789799306292435000,9.24143505859375,2.2152293869711457,-1.2934648165509104,-5.426949061131477
1789799306302408000,9.251407958984375,2.1962489382997155,-0.5283380840413272,-6.187727681434154
1789799306312381000,9.261380859375,2.1257810251057148,0.3005265227548778,-6.71732204914689
1789799306322354400,9.2713544921875,1.6258017511948941,0.7338549575418234,-7.257330843368172
1789799306332326100,9.281326171875,1.6024728980556129,1.0414467425078153,-7.8451652186036105
1789799306342299100,9.291299072265625,1.8153440798416733,1.4877821045145392,-8.29760035879016
1789799306352272400,9.3012724609375,1.9687857520595191,1.9715940874785183,-8.670240077728032
1789799306362244000,9.311244140625,1.8840823927640913,1.954802965544909,-8.848098982843757
1789799306372217000,9.321217041015625,1.9795982379749417,1.4488479782253503,-8.71549083981812
1789799306382190300,9.3311904296875,2.2717281037844717,1.0677227550148964,-8.335740996614097
1789799306392163300,9.341163330078125,2.235189202068746,1.037093661864847,-7.354228790587187
1789799306402135000,9.351135009765626,1.955663820157945,1.0165858574956654,-6.155020174574852
1789799306412108300,9.3611083984375,1.6170366993285714,0.8720259953916072,-5.454453738650679
1789799306422081300,9.371081298828125,1.1276130139626561,0.7066152145691216,-5.133229149651527
1789799306432053000,9.381052978515624,0.32410788935050366,0.5889696628756821,-4.849882748147845
1789799306442026200,9.391026123046874,-0.24965645947828888,0.5453758742123842,-4.3006513675510885
1789799306451999200,9.400999267578126,-0.1786183451808989,0.6605863077133893,-3.672616499352455
1789799306461972200,9.41097216796875,-0.15316709306016563,0.770456256969273,-3.0432109273225065
1789799306471944200,9.420944091796875,-0.33081951581835745,0.6446089863806963,-2.4545745880544185
1789799306481917200,9.430917236328124,-0.4231996202867478,0.19052140281200408,-1.9754729747384785
1789799306491890200,9.44089013671875,-0.28682255318164823,-0.3892562149569392,-1.47309336168766
1789799306501862400,9.4508623046875,-0.35509010678716,-1.0913739719763398,-0.9655506667852402
1789799306511835100,9.460835205078125,-0.6448773549932986,-1.8727412067994473,-0.5275654922336339
1789799306521808100,9.47080810546875,-0.811891625489667,-2.6459628368288275,-0.278324189427495
1789799306531781000,9.480781005859376,-0.7885772392671555,-3.4324686035841703,-0.014514847564697266
1789799306541753300,9.49075341796875,-0.589204969468899,-3.910229323685169,0.39936464425623414
1789799306551726000,9.50072607421875,-0.5471066435277462,-4.141367983567714,1.118677281704545
1789799306561699000,9.510698974609374,-0.368361018705368,-4.3118104749470945,1.8716051885068417
1789799306571672300,9.52067236328125,-0.043447548593021926,-4.412071176597475,2.2719161737024782
1789799306581644300,9.530644287109375,-0.36731706261038777,-4.412570942813158,2.64069980173409
1789799306591617000,9.540616943359375,-1.0449053585290908,-4.428858060747385,3.181879393300414
1789799306601590300,9.55059033203125,-1.2024527125000952,-3.8931951867759227,4.055951799827814
1789799306611563300,9.560563232421876,-0.7880757925510407,-2.893198060509562,4.304553635686636
1789799306621535200,9.57053515625,-0.513792402946949,-1.6947656895667313,4.0594086622834205
1789799306631508200,9.58050830078125,-0.7671779659509659,-0.5303530771255492,3.8341736734867093
1789799306641481200,9.590481201171874,-1.2593886516869068,0.12476619735360145,3.515361406326294
1789799306651454200,9.6004541015625,-1.785700344467163,0.5458253715455532,3.823623637899756
1789799306661426400,9.610426513671875,-1.5867442907869815,0.5438496875584126,4.062960801807046
1789799306671399200,9.620399169921875,-1.4650830737113951,0.46784898241758344,4.141654399293661
1789799306681372200,9.6303720703125,-1.34026777651906,-0.0028179800301790237,4.226134763488173
1789799306691345200,9.64034521484375,-1.641293042576313,-0.6568535509258508,4.274734251484275
1789799306701318100,9.650318115234375,-1.3887047674298285,-0.8746323784977197,4.552105085709691
1789799306711290000,9.6602900390625,-1.3224153089642523,-0.6395733303010463,4.578076562312245
1789799306721263000,9.67026318359375,-1.3269172965586185,0.19013035766780376,4.170959988754987
1789799306731236000,9.680236083984376,-0.9951870956361293,1.1450620152831077,3.7399645269602533
1789799306741209300,9.690209228515625,-0.671003072309494,1.7321598929375408,3.294107596120238
1789799306751181000,9.70018115234375,-0.0035281741261482236,1.8814333395600318,2.741083252981305
1789799306761154000,9.710154052734374,0.29071313087940215,1.6068150189131498,2.453092825064063
1789799306771127300,9.720127197265626,0.05268420002646744,1.1932944235324858,2.3869810612529516
1789799306781100300,9.730100341796875,-0.2348410215318203,0.7401689629942179,2.4326561862349507
1789799306791073300,9.7400732421875,-0.4046938033897429,0.15702128427028655,2.525157944321632
1789799306801045200,9.750045166015624,-0.5154805021643638,-0.1973223149985075,2.615629657885432
1789799306811018200,9.760018310546876,-0.6620411826968192,-0.19368951145410537,2.682603591483831
1789799306820991200,9.7699912109375,-0.7492552827041595,-0.032393618604540826,2.716368498441577
1789799306830964200,9.779964111328125,-0.7580850703697651,0.15191899269521236,2.598794258418679
1789799306840936200,9.789936279296874,-0.7458148599267006,0.19881810651421547,2.2130191635757686
1789799306850909200,9.7999091796875,-0.8704033626258373,0.1008002153545618,1.5762579680860043
1789799306860882200,9.809882080078125,-1.1386323475617914,-0.13686112429499625,0.91771339533329
1789799306870855200,9.819855224609375,-1.543378611791134,-0.46660745792388914,0.7189099018663168
1789799306880828200,9.829828125,-1.6147066489458084,-0.8239233510017394,0.9963380192369222
1789799306890800000,9.839800048828126,-1.136416863469407,-0.993076387092471,1.7483564099788664
1789799306900773400,9.8497734375,-0.4801812983114272,-0.9518418749064207,2.6826854245483873
1789799306910746000,9.85974609375,0.2818670496661216,-0.8435118485689163,2.9806325983345507
1789799306920719000,9.869718994140625,0.2433154198884964,-0.741796856456995,2.8156916269809007
1789799306930692000,9.879692138671874,-0.6717162620801478,-0.9257529094040393,2.529801970735192
1789799306940665300,9.889665283203126,-1.387941381841898,-1.1912830837100743,2.4838573811620472
1789799306950637000,9.899636962890625,-1.1834253559470176,-1.3881710989445446,2.479029230353236
1789799306960610000,9.909610107421875,-0.599504354763031,-1.7270932571977375,2.3073247562140224
1789799306970583300,9.919583251953124,-0.48341713842749595,-1.981535051256418,2.5940391728460788
1789799306980556300,9.929556396484376,-0.5949825664896518,-2.2699276302337643,2.8915006089419126
1789799306990529300,9.939529296875,-0.3255681711614132,-2.6325615034639833,2.5197902798086402
1789799307000501200,9.949501220703125,0.2078875481545925,-2.5275588679835197,2.013130212959647
1789799307010474200,9.95947412109375,0.01537635976485908,-2.207264545571804,1.5288678558796642
1789799307020447200,9.969447265625,-0.2637257552325725,-2.186745196895301,0.695108170518279
1789799307030420200,9.979420166015625,-0.6234825386565178,-2.2622397060796615,0.4282797730952501
1789799307040393200,9.989393310546875,-0.9536006282072513,-2.618900350119173,0.3059457713246345
1789799307050366200,9.9993662109375,-0.46893604700192804,-3.0583231562584636,0.3590203589081764
1789799307060338200,10.009338134765626,0.4097418074943125,-3.3955896562591192,0.46005789014995097
1789799307070311400,10.0193115234375,0.48020460612177845,-3.7566397674292324,0.19393968682289123
1789799307080284200,10.0292841796875,1.1806498998843133,-3.7852491913199424,-0.1965951697677374
1789799307090257200,10.039257080078125,2.2229085432969033,-3.4516800845324993,-0.505929414486885
1789799307100230100,10.049230224609374,2.296507740253955,-3.1940050076410174,-1.3571452615618704
1789799307110203400,10.059203369140626,2.697266615347564,-2.6442455115169285,-2.188422482457757
1789799307120175000,10.069175048828125,3.0864930196881293,-1.7677223508365452,-3.1815760264396666
1789799307130148000,10.079148193359375,2.9163258381187913,-1.030004872647673,-4.497532953044772
1789799307140121300,10.089121337890624,2.6403029113709926,-0.39877997623607514,-5.466445789739489
1789799307150094300,10.09909423828125,1.4405059740766881,0.3068785221301019,-6.547332562232017
1789799307160067300,10.1090673828125,1.2406377739876508,0.8411379590444267,-7.093684588000178
1789799307170040000,10.1190400390625,1.3086943882562219,1.0939186880230902,-7.464999195814133
1789799307180013000,10.129012939453125,1.5868115108042955,1.1673645941145718,-7.630349332490563
1789799307189985300,10.1389853515625,2.04939921169281,1.0448672184757888,-7.754886397263407
1789799307199958300,10.148958251953125,2.195247944563627,1.0888494219347833,-7.898263771584629
1789799307209931000,10.158930908203125,2.050322756278515,1.2951803882971404,-8.052608530122042
1789799307219904300,10.168904296875,2.178418682576716,1.3852005587011575,-8.201772671151161
1789799307229877200,10.178877197265624,2.0347009703852237,1.3917339059926568,-8.117756417337059
1789799307239850200,10.188850341796876,1.5854560045421122,1.4236680903919041,-7.9270643341332665
1789799307249823000,10.198822998046875,1.2154092247068882,1.4110497240982949,-7.57045103636682
1789799307259795200,10.208795166015625,1.1730562298849225,1.355879041018337,-6.931798912563919
1789799307269768200,10.218768310546874,1.0435761557519436,1.2871138400889932,-6.069122929319739
1789799307279741200,10.2287412109375,0.9747264914095402,1.0937222886681557,-5.071056478855014
1789799307289714200,10.238714111328125,1.0571943467378615,0.7889116588532924,-4.206104367372394
1789799307299687200,10.248687255859375,0.7031681428551674,0.43441140771806236,-3.4678228255599737
1789799307309660200,10.25866015625,0.16964944130554793,0.11520751089155673,-2.7197914586275815
1789799307319633200,10.268633056640626,0.047196489330381154,-0.2782946710720658,-2.104590353038907
1789799307329607000,10.27860693359375,-0.14558438284620642,-0.7794447423279285,-1.6782476854860782
1789799307339580200,10.288580078125,-0.5342518381297588,-1.433706523194909,-1.1394260552227495
1789799307349551900,10.2985517578125,-0.6873427972137928,-2.126568960613012,-0.31166473349332807
1789799307359524900,10.30852490234375,-0.7195301526565104,-2.9760113682746887,0.6048860478013753
1789799307369498000,10.318498046875,-0.5979319908797741,-3.8017484907001253,1.3659773873150347
1789799307379471000,10.32847119140625,-0.25305589265823364,-4.3653591097831725,1.717189118298888
1789799307389443800,10.33844384765625,-0.1977659671127796,-4.528021614810824,1.9754279665529726
1789799307399416800,10.348416748046875,-0.39895485787894575,-4.490066270425915,2.3957798692584036
1789799307409390000,10.35839013671875,-0.35762327852658926,-4.435257406395674,2.7249802594423294
1789799307419363000,10.368363037109376,-0.23803017296195028,-3.9712960790663954,2.805302919435501
1789799307429336000,10.378336181640625,-0.3928361192703247,-3.077052991169691,2.6492273915827274
1789799307439308000,10.38830810546875,-0.8615782511353492,-2.0308692832678554,2.411544424623251
1789799307449281000,10.398281005859374,-1.3480278891265391,-0.9810334825992584,2.6214076567649838
1789799307459254000,10.40825390625,-1.3310475282311438,-0.432483654525876,3.2142858713865277
1789799307469227000,10.41822705078125,-1.0937176124930381,-0.524426609686017,3.8594758725255724
1789799307479200000,10.428199951171875,-0.9847616362769156,-0.95147011898458,4.388305685606599
1789799307489173000,10.438173095703124,-0.8682020531892776,-1.150753504922986,5.118033918607234
1789799307499146000,10.44814599609375,-0.5877180553793907,-0.9704156424731015,5.131490197029709
1789799307509119000,10.458118896484375,-0.3254430834770202,-0.4177753302156925,4.871467387968302
1789799307519092000,10.468092041015625,-0.7815443449556827,-0.045725978386402126,4.091358628773689
1789799307529065000,10.47806494140625,-1.2335937006950377,0.34794250005483623,3.4358640912413594
1789799307539037000,10.488036865234376,-1.6897183430492877,0.16406769565045834,2.7189094150960442
1789799307549010000,10.498010009765625,-1.447826818484068,-0.06766366942822932,2.63758430006206
1789799307558983000,10.50798291015625,-0.9146364721059799,-0.12943243559896944,2.9537258867084977
1789799307568956000,10.517955810546875,-0.3462052279334515,-0.0013479074776172636,3.0975632797569035
1789799307578929000,10.527928955078124,0.1670926694948226,0.4613935226678848,3.4332103618621823
1789799307588902000,10.53790185546875,-0.30138650058507915,0.8899299008727073,3.5356180124133822
1789799307598875100,10.547875244140625,-0.5219393959801644,1.0910609605044126,3.1545646853953597
1789799307608848000,10.557847900390625,-0.5498433750152587,1.0074918659359215,2.6512340552300215
1789799307618820900,10.56782080078125,-0.6582336071074009,0.8687877441227435,2.4499364068597553
1789799307628793900,10.5777939453125,-0.9338754255831241,0.6882604965806007,2.700401698502898
1789799307638767000,10.58776708984375,-0.9603998598933219,0.4365788148850202,2.8885540340960025
1789799307648740000,10.597739990234375,-0.7752151419341564,0.10590426049530506,2.9885107843637466
1789799307658712800,10.607712890625,-0.47530755479522047,-0.1496504632413387,3.053003422540426
1789799307668685800,10.617685791015624,-0.1534347310204059,-0.04093523697853088,2.8680560204684733
1789799307678659000,10.6276591796875,-0.1337573130607605,0.20249416467845438,2.392436404049396
1789799307688631000,10.637631103515625,-0.37160387308411297,0.3883306245446205,1.8327911814659832
1789799307698603800,10.647603759765625,-0.5689782835960387,0.3777770818263292,1.3906465491473674
1789799307708577000,10.657576904296874,-0.3649835050962865,0.19487959802150726,1.2433148842424153
1789799307718550000,10.667550048828126,-0.06264898307137191,0.05279284803271293,1.5217746827483176
1789799307728523000,10.67752294921875,0.010095789013430476,-0.019786065965890883,2.2785195174902677
1789799307738496000,10.68749609375,0.05826156176738441,-0.4194762889146805,3.0320512354046105
1789799307748469000,10.697468994140625,0.10749825168848037,-1.059088197660446,3.273773248621821
1789799307758442000,10.70744189453125,-0.26961890492439267,-1.676399427270889,3.283049611011147
1789799307768415000,10.7174150390625,-0.7385749718010425,-2.030260211458802,2.9020716873168944
1789799307778388000,10.727387939453125,-1.014180476854369,-2.356494737574458,2.6203981874614954
1789799307788361000,10.73736083984375,-1.594643519604206,-2.472747958126664,2.6483915252804753
1789799307798334000,10.747333984375,-1.2815525527000426,-2.5032553245931863,2.548743402570486
1789799307808307000,10.757306884765624,-0.5653248756550252,-2.5332740307599306,2.6085774012863636
1789799307818280000,10.767280029296876,0.014306903902441262,-2.276571890553832,2.3025468742877244
1789799307828253000,10.7772529296875,-0.1682591559909284,-1.8751862618640065,1.8496908783406019
1789799307838226000,10.787225830078125,-0.3172537126068026,-1.8832073634952307,1.4773182859063148
1789799307848199000,10.797198974609374,-0.057885056605190034,-1.8506503710225224,1.323592536050081
1789799307858172000,10.807171875,0.10539046575427055,-1.8379384812265633,1.3917501264750958
1789799307868145000,10.817144775390625,0.3267313697218895,-2.0834329987198115,1.0557587609767913
1789799307878118100,10.8271181640625,0.6508101791083812,-2.329716328503191,0.5548381145626307
1789799307888091000,10.8370908203125,0.5191396091938019,-2.6859505638241767,0.002499415600299835
1789799307898064000,10.84706396484375,0.6838533476628362,-3.0217241949185727,-0.5372948590874672
1789799307908036900,10.857036865234376,0.8998470453836023,-3.1568241547599434,-0.9266285231947898
1789799307918010000,10.867010009765625,1.0083025977969169,-3.186149617965519,-1.30052496419549
1789799307927983000,10.876983154296875,1.1299892415747046,-3.1022908928006885,-1.7397358811497687
1789799307937955800,10.886955810546874,1.7401894701361655,-2.561916187876463,-2.1515666237473487
1789799307947928800,10.8969287109375,1.7248106992185115,-2.0948938655413687,-3.1537334952682254
1789799307957902000,10.906902099609376,1.743737518006563,-1.7412014236576854,-3.7683857348024845
1789799307967874000,10.9168740234375,1.8940685108579693,-1.179359860073775,-4.2577369394540785
1789799307977846800,10.9268466796875,2.0400446695007384,-0.4956102650463581,-4.79612368543148
1789799307987820000,10.936820068359374,2.00053551980257,0.0337821503534913,-5.219328054958582
1789799307997793000,10.94679296875,2.0246739357590675,0.48482700522542,-5.888407465729117
1789799308007766000,10.95676611328125,2.0296753973081705,0.6835552414990961,-6.498528491574525
1789799308017739000,10.966739013671875,2.0885995877027512,0.6906063290543853,-6.814820884868502
1789799308027711700,10.976711669921874,2.0773086706206203,0.803223531191796,-6.878348477405309
1789799308037685000,10.98668505859375,2.078069718120992,1.1193626336202025,-6.731767338606715
1789799308047658000,10.996657958984375,2.217357777301967,1.6757728198051451,-6.664979282969236
1789799308057631000,11.006630859375,2.464044134928286,1.8251413973651824,-6.9917322800010435
1789799308067604000,11.01660400390625,2.3253170706309376,1.5616593877606093,-7.044950659969449
1789799308077577000,11.026576904296874,1.8863442002162336,1.2051358141042292,-6.979250984090566
1789799308087550000,11.036550048828126,1.2254969034790992,1.00916389080137,-6.848602742961049
1789799308097523000,11.04652294921875,0.9011014293588697,0.9436636830173433,-6.580234130358695
1789799308107496000,11.056495849609375,0.8611107797540724,0.9792840085834265,-6.008976211392879
1789799308117469200,11.06646923828125,0.7362906602561473,1.00525241644606,-5.015051683038473
1789799308127442000,11.07644189453125,0.9391745549045503,1.001394425843656,-3.819185363191366
1789799308137416000,11.086416015625,1.1579027921557425,0.7525207873061299,-3.0839269685924053
1789799308147389000,11.096388916015625,0.905458601655066,0.19987726017832755,-3.0241286257117985
1789799308157362000,11.10636181640625,0.3928139074385166,-0.3786415897011757,-3.0496301467150446
1789799308167335000,11.1163349609375,-0.0048562078595161436,-0.8786427831828594,-2.758663917857408
1789799308177308000,11.126307861328126,-0.09107903180718421,-1.2828899387836457,-2.227037167534232
1789799308187281000,11.136281005859376,-0.12386252651214599,-1.6861159346431493,-1.9664006104886531
1789799308197254000,11.14625390625,-0.19422960968017577,-2.0324913315117357,-1.7514900318294762
1789799308207227000,11.156226806640625,-0.4109867660541087,-2.3522455556973814,-1.185022854271531
1789799308217200000,11.1662001953125,-0.5807575687170028,-2.9784885720431804,-0.2993769143283367
1789799308227172900,11.1761728515625,-0.33061149909086524,-3.533718316271901,0.7879080347687005
1789799308237145900,11.186145751953125,0.09396532783322036,-4.011526382645965,1.9956021550536154
1789799308247118800,11.196118896484375,0.26755546958856286,-4.467335967701673,2.966594136109948
1789799308257092000,11.206092041015625,0.1525754838425666,-4.657269926014543,3.456125958025455
1789799308267065000,11.216065185546874,0.33035774352550507,-4.605375488126278,3.529830076661706
1789799308277037800,11.226037841796876,0.22211247286200522,-3.80966642421782,3.554951658436656
1789799308287010800,11.2360107421875,-0.5433902533531189,-2.6671201911479234,3.2910745120346543
1789799308296984000,11.245984130859375,-1.0081974569220096,-1.5617676704406738,2.901329929038882
1789799308306957000,11.25595703125,-1.0349474436163901,-0.8378150982320308,3.161825031787157
1789799308316930000,11.265929931640626,-1.026977999107167,-0.7330956636071204,3.9708518424302337
1789799308326902500,11.275902587890625,-1.0371602973602712,-0.8751794909864663,4.690243974855542
1789799308336875800,11.285875732421875,-1.0186872136890888,-0.9218862971037626,5.258031587362289
1789799308346848800,11.295848876953125,-0.8128956879656761,-0.7498726108849049,5.318636570450663
1789799308356821800,11.30582177734375,-0.8392588672995567,-0.16347382141053676,5.284124644517898
1789799308366794800,11.315794677734376,-1.03312716938667,0.28950550865530966,4.519122269040346
1789799308376767700,11.325767822265625,-0.7739175033390522,0.8341454698085784,3.667323653641343
1789799308386740700,11.33574072265625,-0.724077732958272,1.207003799933195,2.992203793662786
1789799308396713700,11.345713623046874,0.04009462143592536,1.3333750943958758,2.677445770329237
1789799308406686700,11.355686767578124,0.290239668148756,0.9014344607055187,2.5402491304695607
1789799308416660700,11.36566064453125,0.40826640117950735,0.48673196206390856,2.699979089176655
1789799308426633500,11.375633544921875,0.019418986219167707,0.2375496959686279,3.0432974365621805
1789799308436606700,11.385606689453125,-0.3160392953157425,0.4945335757255554,3.2165064700454473
1789799308446579700,11.395579833984375,-0.5134568143170327,0.8137696212559938,3.344487537792325
1789799308456552700,11.405552734375,-0.4994493317525834,0.9745417824923992,3.324728944355249
1789799308466525700,11.415525634765626,-0.3173298465829342,0.9798574245572089,3.282696559789777
1789799308476498700,11.425498779296875,-0.0798387489337474,0.804170018261671,3.3482010053575038
1789799308486471700,11.4354716796875,-0.043670726357027886,0.5904822593957185,3.456893435266614
1789799308496444700,11.445444580078124,-0.16155600509047507,0.33610476274490353,3.3802930106669664
1789799308506417700,11.455417724609376,-0.08526179689578711,0.18290274450182914,3.2089339889645574
1789799308516391000,11.465390869140625,0.1314917792815715,0.07455985868275165,2.6792759083658457
1789799308526363600,11.47536376953125,0.4367033180475235,-0.06939619230926036,1.9648487048715353
1789799308536336600,11.485336669921875,0.44521052269525824,-0.14684358912706375,1.5103794285088776
1789799308546309600,11.4953095703125,0.19761632950901983,-0.1907417675644159,1.3808306730538606
1789799308556283600,11.50528369140625,-0.022394129572436212,-0.24682430479228495,1.4223621223598717
1789799308566256600,11.515256591796875,-0.16085932806320488,-0.23439386228621004,1.4731804554492234
1789799308576230000,11.52522998046875,-0.2759164706986397,-0.3433826447933912,1.1003326467186212
1789799308586202600,11.53520263671875,-0.6480138263881207,-0.6683791535466909,0.8473772918254137
1789799308596175600,11.545175537109374,-1.067946115441993,-1.2537532761484385,1.0180424860447645
1789799308606148600,11.555148681640626,-1.4294564645349979,-1.8328484646111727,1.5176099642843006
1789799308616121900,11.565121826171875,-1.7456687783300875,-2.291665414789319,2.2251754653155804
1789799308626094800,11.5750947265625,-1.6812626493930816,-2.4644477472931143,2.93937996596992
1789799308636067600,11.585067626953125,-0.8468588209092617,-2.1669851421535014,3.2167326800167557
1789799308646040600,11.59504052734375,0.032355624681711194,-1.7996563891053199,3.086534520742297
1789799308656013800,11.605013916015626,0.26552140647768974,-1.557561450922489,2.839988448369503
1789799308665986800,11.61498681640625,-0.2606557732027024,-1.7968799101293087,2.124039734396338
1789799308675960800,11.6249609375,-0.5701591639436782,-2.0909593025714157,1.4954910714566707
1789799308685933600,11.63493359375,0.09175824624300002,-2.1875421924918887,1.437878840443492
1789799308695906600,11.644906494140624,0.0916271672092378,-1.9897882080778477,1.5539678103446959
1789799308705879800,11.6548798828125,0.22102511601671576,-1.9525556250095366,1.7104887438774108
1789799308715852800,11.664852783203125,0.2819512938834727,-2.250542254023254,1.5107278035551308
1789799308725825800,11.67482568359375,-0.249789584338665,-2.9334874007999896,1.0660662199795246
1789799308735798500,11.684798583984374,0.017168430813401938,-3.542902908724546,0.6158885033309459
1789799308745771500,11.694771484375,0.8221779686391353,-3.9564015845343468,0.3316986367404461
1789799308755744800,11.704744873046875,0.8746949223399162,-4.226424394084513,-0.37520577003359795
1789799308765718800,11.71471875,1.6359128108426928,-3.969685428999364,-0.8050386177897453
1789799308775691800,11.72469189453125,2.0698096931673584,-3.47512175039649,-1.5682827514231203
1789799308785664800,11.734664794921875,2.0812731903374195,-2.9571394945442675,-2.315186575630307
1789799308795637500,11.744637451171876,2.4679180537521836,-2.3613420314751563,-2.8821020814776417
1789799308805610800,11.75461083984375,2.7794527311250565,-1.8470484010078012,-3.5598844386637207
1789799308815583700,11.764583740234375,2.1183537977144122,-0.9114296388886869,-4.735691136300564
1789799308825556700,11.774556640625,2.1585361704990267,-0.2801930520392954,-5.393734773793816
1789799308835529700,11.78452978515625,1.914787035368383,0.11397300066053867,-5.861869587415456
1789799308845502700,11.794502685546876,1.636870842219889,0.3474633382357657,-6.400465007707476
1789799308855476700,11.804476806640626,1.6799615036666393,0.5485043814964592,-6.84000325691998
1789799308865449700,11.81444970703125,2.0015441123232245,1.0490114786736666,-7.347214527910947
1789799308875422700,11.824422607421875,2.264905418157577,1.5458004321105778,-7.855245298591256
1789799308885395700,11.834395751953124,2.1738915605410933,1.9959189659178256,-8.114477249535918
1789799308895368700,11.84436865234375,2.2452236893489954,1.9889882898718116,-8.338357316592335
1789799308905341700,11.854341796875,2.3804458142653107,1.779011514353007,-8.373179623648523
1789799308915314700,11.864314697265625,2.287135077883303,1.8282529535144567,-8.20615600080192
1789799308925288700,11.874288818359375,2.025979757660627,1.973860863366723,-7.554175608870387
1789799308935261700,11.88426171875,1.8752490979671477,1.8825420314542949,-6.806818780198693
1789799308945234700,11.894234619140626,1.7974597558438776,1.4684505043178795,-6.5408811941355465
1789799308955208000,11.9042080078125,1.2956827848613262,1.0578653778672218,-6.4221788268655535
1789799308965180700,11.9141806640625,0.5925814236320555,0.9235232506558299,-5.673617883101105
1789799308975153700,11.924153564453125,0.5498129798769951,1.0652858832567929,-4.183587415137887
1789799308985126700,11.934126708984374,0.9458967027664184,1.0117685203418134,-3.0114445007055997
1789799308995100000,11.944099853515626,1.0049965419888496,0.504452327671647,-2.347447507765889
1789799309005073700,11.95407373046875,0.389355949004367,-0.16971008545160293,-1.70910985673964
1789799309015046700,11.964046630859375,-0.09581848141923546,-0.9203694628000259,-1.0496429084450005
1789799309025019600,11.97401953125,-0.14910444673113524,-1.7606839766323565,-0.4161374998807907
1789799309034992600,11.98399267578125,-0.3406781350750476,-2.644220084814727,0.19749884060919284
1789799309044965600,11.993965576171876,-0.7261210753541439,-3.5305306261464953,0.8769020769953727
1789799309054939000,12.00393896484375,-0.6270785173218697,-4.0983556480541825,1.5659055008977651
1789799309064913000,12.013912841796875,-0.2958509321592748,-4.772257948936522,1.9678443795561789
1789799309074885600,12.0238857421875,0.05742693757414818,-5.044418062776327,2.6127175698310134
1789799309084858600,12.033858642578124,0.09335757119841873,-4.824893268319964,3.2257074291110035
1789799309094831600,12.04383154296875,-0.08116210649199783,-4.3863376004040235,3.373592051723599
1789799309104804900,12.053804931640625,-0.26827443151287733,-3.668039692956209,3.3938322911977767
1789799309114777900,12.06377783203125,-0.4455939690548926,-2.594609666210413,3.397800610306859
1789799309124750600,12.07375048828125,-0.412707598497346,-1.5070792179197072,3.0199153919309376
1789799309134724600,12.083724609375,-0.29729009811691937,-0.6450339337944984,2.47622410980463
1789799309144697600,12.093697509765626,-0.2935737079422921,-0.17415654346644877,2.2999463364005086
1789799309154670600,12.103670654296875,-0.7671054852366447,-0.2111678849995136,2.80769244492054
1789799309164643800,12.113643798828125,-1.4003414292097092,-0.5834563062816858,3.587963701200485
1789799309174616800,12.123616943359375,-1.362315942198038,-0.9437953465729951,4.339779847368598
1789799309184589600,12.133589599609374,-0.8641525586027652,-0.7394453248947859,4.795761281859875
1789799309194563600,12.1435634765625,-0.4727519520282745,-0.36693653886020183,5.138494522833824
1789799309204536600,12.15353662109375,-0.7270446930050849,0.1388929223835468,5.103392229792475
1789799309214509800,12.163509765625,-0.8081132759947329,0.4296270960509777,4.732821133822203
1789799309224482800,12.17348291015625,-0.9770927090842276,0.5476899963736533,4.230118280166387
1789799309234455800,12.183455810546874,-0.9524339955806732,0.28158640609383584,3.6487989859133956
1789799309244428500,12.193428466796876,-0.9332534212272614,-0.20882278317809103,3.14551920915246
1789799309254402600,12.203402587890626,-0.4373790253520012,-0.324136092531681,3.378651088678837
1789799309264375800,12.213375732421875,-0.2804816597223282,-0.02946808654665947,3.7927047680228947
1789799309274348800,12.223348876953125,0.3793255533773452,0.6579308247685433,3.4949072318404912
1789799309284321800,12.23332177734375,0.7498609204471111,1.1724784299969673,2.7248855668962
1789799309294294500,12.24329443359375,0.20144144075512885,1.3466641995579003,2.513492640969157
1789799309304268500,12.2532685546875,-0.3955623293638229,1.3259329616963862,2.791816830396652
1789799309314241500,12.263241455078125,-0.41547699014544487,1.107910388496518,2.7451018409729
1789799309324215300,12.27321533203125,-0.23894085806608198,0.884853912782669,2.2238433399289845
1789799309334188000,12.28318798828125,-0.1127682279806584,0.7734569000899791,1.788117342481017
1789799309344161000,12.2931611328125,-0.24561039895787834,0.6947913596540689,1.9535773692727088
1789799309354134000,12.303134033203126,-0.41523865134492516,0.4385825559228658,2.2046838814288376
1789799309364108000,12.31310791015625,-0.14059380801729857,0.04362812932431698,2.4187550866544245
1789799309374081000,12.3230810546875,0.42103462427258487,-0.2737766091257334,2.6312135959863663
1789799309384054300,12.33305419921875,0.8474221538804471,-0.5303881484389305,2.8896535197705027
1789799309394027000,12.343027099609374,0.911713862657547,-0.6631769087284803,3.0489462561041116
1789799309404000000,12.353,0.8089712810635566,-0.82763389595747,3.0293028134793043
1789799309413974000,12.36297412109375,0.4816507132768631,-1.1205641183644532,2.804756391468644
1789799309423947000,12.372947021484375,-0.026168022087961432,-1.3998819950044155,2.5144354747772217
1789799309433920300,12.382920166015625,-0.474567477017641,-1.5710218209981917,2.332719309711456
1789799309443893200,12.392893310546874,-0.6560067248381674,-1.6474918972164392,2.1550340075969694
1789799309453866000,12.402865966796876,-0.4689480297006666,-1.5387293246805667,2.004161893606186
1789799309463840000,12.412840087890626,-0.25221885731220245,-1.4975152707606554,1.7917139056682585
1789799309473813000,12.42281298828125,-0.10335048435926437,-1.4023738118201494,2.047691238731146
1789799309483786000,12.432785888671875,0.04508534239530563,-1.3548971903741358,2.481692312082648
1789799309493759200,12.44275927734375,0.31174539751410485,-1.6960072140604256,2.4129607211619613
1789799309503732000,12.45273193359375,0.38512159937024115,-1.7100249257579445,2.1844547478705643
1789799309513706000,12.4627060546875,0.48482130613699553,-2.197879462110996,1.1876660622566937
1789799309523679000,12.472678955078125,0.6753906397439539,-2.444010523942113,0.3354430839657783
1789799309533652000,12.48265185546875,0.36158071091547606,-2.1990371077135205,0.12426818470358848
1789799309543625200,12.492625244140624,0.24196619723662732,-2.2647414597675204,0.1199491524606943
1789799309553599200,12.50259912109375,0.5388331745706498,-2.579385793593526,0.22028993360996246
1789799309563572200,12.512572265625,0.5839712700664996,-2.9578353678539395,0.32153789273202416
1789799309573545000,12.522544921875,1.205254618178308,-3.2216312657132744,0.6443851144969462
1789799309583518000,12.53251806640625,1.1590391027092932,-3.458305055630207,0.2869984942704439
1789799309593491200,12.5424912109375,1.2437772410571575,-3.4792999128639694,-0.3465373094320297
1789799309603465000,12.55246484375,1.8053192371726035,-3.2087624317899346,-0.7708774049907923
1789799309613438200,12.562438232421876,1.6193649961456655,-2.895358161152899,-1.823203853431344
1789799309623411200,12.5724111328125,1.782285567587614,-2.309820518552512,-2.422249358510971
1789799309633384000,12.582384033203125,2.332361582314968,-1.561607657573372,-2.7104256643891333
1789799309643357000,12.59235693359375,2.0176020976766944,-0.7444577462293207,-3.481757242888212
