time,seconds_elapsed,z,y,x
1789799297099167200,0.048167236328125,-0.19188688695430756,0.36629703640937805,0.13752883672714233
1789799297109139500,0.058139404296875,-0.1480797380208969,0.27938157320022583,0.2830652594566345
1789799297119111400,0.068111328125,-0.10625559836626053,0.1571805626153946,0.3977329730987549
1789799297129083400,0.07808349609375,-0.06581123918294907,-0.01435310672968626,0.45990100502967834
1789799297139056400,0.088056396484375,-0.0415802001953125,-0.1765795648097992,0.46886521577835083
1789799297149028400,0.0980283203125,-0.052262406796216965,-0.23524340987205505,0.4150685667991638
1789799297159000300,0.108000244140625,-0.10225020349025726,-0.14156486093997955,0.32215940952301025
1789799297168972500,0.11797265625,-0.21014711260795593,0.0036514601670205593,0.23380902409553528
1789799297178945300,0.1279453125,-0.3477553129196167,0.06185484677553177,0.15301218628883362
1789799297188917500,0.13791748046875,-0.46575385332107544,-0.00957086868584156,0.0855226218700409
1789799297198889200,0.14788916015625,-0.5743333101272583,-0.050343066453933716,0.045090511441230774
1789799297208861400,0.157861328125,-0.6929404139518738,0.048943839967250824,-0.007192931603640318
1789799297218833400,0.16783349609375,-0.7010060548782349,0.031979236751794815,-0.2516556680202484
1789799297228806100,0.17780615234375,-0.5747058987617493,0.07014580070972443,-0.7595412731170654
1789799297238778400,0.1877783203125,-0.29174211621284485,0.3905682861804962,-1.2132432460784912
1789799297248750300,0.197750244140625,0.08430209755897522,0.7261651754379272,-1.6039724349975586
1789799297258722300,0.207722412109375,0.4769439101219177,0.9506720900535583,-1.9446772336959839
1789799297268695300,0.2176953125,0.9028965830802917,1.0790358781814575,-2.238304853439331
1789799297278667500,0.22766748046875,1.3726789951324463,1.328329086303711,-2.4805984497070312
1789799297288639200,0.23763916015625,1.8123329877853394,1.561203122138977,-2.7217304706573486
1789799297298611500,0.247611572265625,2.1573872566223145,1.630629539489746,-2.9807822704315186
1789799297308584400,0.25758447265625,2.398202896118164,1.6314343214035034,-3.2455952167510986
1789799297318556200,0.26755615234375,2.608314037322998,1.7920117378234863,-3.452700614929199
1789799297328528100,0.277528076171875,2.7695600986480713,2.030522108078003,-3.56453275680542
1789799297338500000,0.2875,2.844572067260742,2.2972240447998047,-3.5423436164855957
1789799297348473000,0.29747314453125,2.823709487915039,2.4307680130004883,-3.358873128890991
1789799297358445000,0.307445068359375,2.8397209644317627,2.349647283554077,-3.0424270629882812
1789799297368417000,0.3174169921875,2.8077452182769775,2.024765968322754,-2.6219615936279297
1789799297378389200,0.32738916015625,2.65950345993042,1.6992741823196411,-2.0017824172973633
1789799297388361000,0.33736083984375,2.1849427223205566,1.8179850578308105,-0.7413438558578491
1789799297398334000,0.347333984375,1.1849833726882935,1.4653551578521729,0.6400614976882935
1789799297408306200,0.35730615234375,0.19570185244083405,-0.23277997970581055,1.4775131940841675
1789799297418278000,0.36727783203125,-0.33294761180877686,-2.203310489654541,2.0192084312438965
1789799297428250000,0.37725,-0.5418009161949158,-3.5381357669830322,2.6003077030181885
1789799297438223000,0.38722314453125,-0.7837150692939758,-4.533653736114502,3.121988534927368
1789799297448195000,0.397195068359375,-1.2111971378326416,-5.6799750328063965,3.3708972930908203
1789799297458167000,0.4071669921875,-1.7356637716293335,-6.9133381843566895,3.347872734069824
1789799297468139300,0.41713916015625,-2.1252858638763428,-8.104323387145996,3.1211695671081543
1789799297478112000,0.427112060546875,-2.1740071773529053,-9.210261344909668,2.8392322063446045
1789799297488084000,0.437083984375,-2.005565881729126,-9.109521865844727,2.273266077041626
1789799297498056200,0.44705615234375,-1.765631079673767,-4.380871772766113,0.6754252910614014
1789799297508028000,0.45702783203125,-0.9855861067771912,-2.7677597999572754,0.3986336588859558
1789799297518001200,0.467001220703125,-0.06566955894231796,-1.85898756980896,0.11182986199855804
1789799297527973000,0.47697314453125,0.6974771022796631,-1.217663049697876,-0.11535455286502838
1789799297537945000,0.486945068359375,1.3993529081344604,-0.6923345327377319,-0.23248517513275146
1789799297547917000,0.4969169921875,1.9032267332077026,-0.48875609040260315,-0.3353188633918762
1789799297557890300,0.506890380859375,1.920628309249878,-0.5736611485481262,-0.3950519859790802
1789799297567862000,0.516862060546875,1.6404110193252563,-0.7102256417274475,-0.3159765899181366
1789799297577834200,0.526834228515625,1.2391095161437988,-0.6684696674346924,-0.14431776106357574
1789799297587806000,0.536805908203125,0.8902015089988708,-0.386925607919693,0.0277986079454422
1789799297597778200,0.546778076171875,0.7620701789855957,-0.1652510017156601,0.1384201943874359
1789799297607751200,0.556751220703125,0.8078038692474365,-0.05573037266731262,0.1510409116744995
1789799297617723000,0.566722900390625,0.8173009753227234,0.04766232892870903,0.01708444394171238
1789799297627695000,0.576695068359375,0.6756260991096497,0.2566909193992615,-0.24349281191825867
1789799297637667000,0.5866669921875,0.4628840386867523,0.5822498202323914,-0.5017169117927551
1789799297647640000,0.59664013671875,0.28386181592941284,0.883902907371521,-0.6835048198699951
1789799297657612000,0.606612060546875,0.14663338661193848,1.0523067712783813,-0.754416823387146
1789799297667584300,0.616584228515625,0.05651946738362312,1.1165870428085327,-0.6736247539520264
1789799297677556000,0.626555908203125,0.006678675301373005,1.0929501056671143,-0.5090315341949463
1789799297687529000,0.636529052734375,-0.04409102723002434,0.875246524810791,-0.36315369606018066
1789799297697501200,0.646501220703125,-0.15464895963668823,0.42785999178886414,-0.32791900634765625
1789799297707473200,0.65647314453125,-0.2771652936935425,0.07875579595565796,-0.3756609857082367
1789799297717445000,0.666445068359375,-0.3548707365989685,0.016680443659424782,-0.4261142909526825
1789799297727418000,0.676418212890625,-0.3883695900440216,0.08133480697870255,-0.4823722541332245
1789799297737390000,0.68639013671875,-0.39123326539993286,0.25721049308776855,-0.5540027618408203
1789799297747362000,0.696362060546875,-0.38495302200317383,0.4727742075920105,-0.6497647166252136
1789799297757334000,0.706333984375,-0.3620684742927551,0.6170797348022461,-0.7177437543869019
1789799297767307000,0.71630712890625,-0.3223349153995514,0.6371580958366394,-0.6607955098152161
1789799297777279200,0.726279296875,-0.3308975100517273,0.5046181678771973,-0.4953423738479614
1789799297787251000,0.7362509765625,-0.39643895626068115,0.3409663736820221,-0.2789765000343323
1789799297797223200,0.74622314453125,-0.47129401564598083,0.27797970175743103,-0.03358699008822441
1789799297807195100,0.756195068359375,-0.5396411418914795,0.2804955840110779,0.2126731127500534
1789799297817168000,0.76616796875,-0.6045926809310913,0.19759324193000793,0.3960733115673065
1789799297827140000,0.77614013671875,-0.6425983905792236,-0.00999058224260807,0.49370744824409485
1789799297837112000,0.786112060546875,-0.6127219796180725,-0.12137915939092636,0.5596803426742554
1789799297847084000,0.796083984375,-0.5246219635009766,-0.17285220324993134,0.5642753839492798
1789799297857057000,0.80605712890625,-0.3931097388267517,-0.2703515887260437,0.4535166323184967
1789799297867029200,0.816029296875,-0.22195689380168915,-0.2761373221874237,0.3754979968070984
1789799297877001000,0.8260009765625,-0.08138593286275864,-0.30148395895957947,0.4033306837081909
1789799297886973200,0.83597314453125,-0.06179412454366684,-0.42263567447662354,0.4415670335292816
1789799297896946200,0.8459462890625,-0.08086475729942322,-0.5024124979972839,0.4943585991859436
1789799297906918100,0.855918212890625,-0.07772835344076157,-0.4773702919483185,0.5130444169044495
1789799297916890000,0.86589013671875,-0.07462470233440399,-0.41546669602394104,0.47428980469703674
1789799297926862000,0.875862060546875,-0.09012962877750397,-0.34864240884780884,0.4163101315498352
1789799297936835000,0.8858349609375,-0.1243179589509964,-0.3687114417552948,0.35010555386543274
1789799297946807000,0.89580712890625,-0.13740180432796478,-0.5482212901115417,0.24848304688930511
1789799297956779000,0.905779052734375,-0.13963326811790466,-0.7680718898773193,0.12872175872325897
1789799297966751000,0.9157509765625,-0.15533366799354553,-0.879116952419281,0.0009470200748182833
1789799297976724200,0.92572412109375,-0.1847061961889267,-0.8271874189376831,-0.20300504565238953
1789799297986696000,0.935696044921875,-0.2038138508796692,-0.6284649968147278,-0.5002910494804382
1789799297996668200,0.945668212890625,-0.17944778501987457,-0.35080355405807495,-0.8107104301452637
1789799298006640000,0.95564013671875,-0.1288945972919464,-0.09502878040075302,-1.034684658050537
1789799298016613000,0.965613037109375,-0.1165338009595871,-0.020801683887839317,-1.1547229290008545
1789799298026585000,0.975585205078125,-0.12398266792297363,-0.1399669647216797,-1.1793761253356934
1789799298036557300,0.985557373046875,-0.1065240427851677,-0.35281479358673096,-1.121436357498169
1789799298046529000,0.995529052734375,-0.059312593191862106,-0.5799246430397034,-1.013466477394104
1789799298056502000,1.005501953125,-0.013890781439840794,-0.7656457424163818,-0.8688419461250305
1789799298066474200,1.01547412109375,0.0008149272762238979,-0.8372059464454651,-0.7235071063041687
1789799298076446000,1.025446044921875,0.010530139319598675,-0.7259089946746826,-0.5930489301681519
1789799298086418200,1.035418212890625,0.0996224656701088,-0.48268941044807434,-0.5056357383728027
1789799298096391200,1.04539111328125,0.21027573943138123,-0.2870136499404907,-0.4743579924106598
1789799298106363100,1.055363037109375,0.25645682215690613,-0.2728129029273987,-0.421774685382843
1789799298116335000,1.065335205078125,0.23430730402469635,-0.46617621183395386,-0.30590319633483887
1789799298126307000,1.07530712890625,0.22745685279369354,-0.6728314161300659,-0.18005526065826416
1789799298136280000,1.085280029296875,0.2696186900138855,-0.7607500553131104,-0.07339592278003693
1789799298146252000,1.095251953125,0.32500553131103516,-0.7800918221473694,0.000505734293255955
1789799298156224000,1.10522412109375,0.3537559509277344,-0.7666447162628174,0.039742887020111084
1789799298166196200,1.1151962890625,0.3552936613559723,-0.7607681751251221,0.04946235939860344
1789799298176169200,1.125169189453125,0.3500725328922272,-0.8017798066139221,0.015660984441637993
1789799298186141000,1.135140869140625,0.3639363944530487,-0.8773075938224792,-0.0570363886654377
1789799298196113200,1.145113037109375,0.4095939099788666,-0.9582892656326294,-0.16434846818447113
1789799298206084900,1.1550849609375,0.4453257918357849,-1.0201289653778076,-0.29293254017829895
1789799298216058000,1.16505810546875,0.4290142059326172,-1.02302885055542,-0.4545254409313202
1789799298226030000,1.175030029296875,0.39261865615844727,-1.0180643796920776,-0.6800256371498108
1789799298236002000,1.185001953125,0.3868880569934845,-0.9675794243812561,-0.9251922965049744
1789799298245974000,1.19497412109375,0.4660039246082306,-0.8296255469322205,-1.0589953660964966
1789799298255947000,1.204947021484375,0.5234525799751282,-0.6982278227806091,-1.1463209390640259
1789799298265919000,1.2149189453125,0.5255793929100037,-0.7410024404525757,-1.2372004985809326
1789799298275891000,1.224890869140625,0.5153759717941284,-0.8538587093353271,-1.2814239263534546
1789799298285863200,1.23486328125,0.48584607243537903,-0.9868095517158508,-1.2695726156234741
1789799298295836000,1.2448359375,0.4704548716545105,-1.015192985534668,-1.1980960369110107
1789799298305808100,1.25480810546875,0.43233731389045715,-0.9236287474632263,-1.1582093238830566
1789799298315780900,1.26478076171875,0.4065065085887909,-0.8106774091720581,-1.1596455574035645
1789799298325753000,1.274753173828125,0.41461583971977234,-0.6313127279281616,-1.149004578590393
1789799298335725000,1.28472509765625,0.42692601680755615,-0.4507831633090973,-1.114332675933838
1789799298345697800,1.29469775390625,0.42388150095939636,-0.3711269497871399,-1.0410346984863281
1789799298355670000,1.304669921875,0.3762340843677521,-0.47661715745925903,-0.9254665970802307
1789799298365642000,1.31464208984375,0.3143584728240967,-0.6937353610992432,-0.753074049949646
1789799298375615000,1.324614990234375,0.25962013006210327,-0.9495993256568909,-0.5212898254394531
1789799298385587000,1.3345869140625,0.23742960393428802,-1.262189269065857,-0.2776784896850586
1789799298395559200,1.34455908203125,0.27461159229278564,-1.5936167240142822,-0.04839016869664192
1789799298405531000,1.35453076171875,0.3659327030181885,-1.9995343685150146,0.18144063651561737
1789799298415504000,1.36450390625,0.513687014579773,-2.59875226020813,0.4209400415420532
1789799298425476000,1.37447607421875,0.6523434519767761,-3.3030524253845215,0.7120605707168579
1789799298435447800,1.38444775390625,0.7435934543609619,-3.9362783432006836,1.0562206506729126
1789799298445420000,1.394419921875,0.7916795015335083,-4.5315775871276855,1.4104747772216797
1789799298455393000,1.40439306640625,0.8462647199630737,-5.15262508392334,1.7173711061477661
1789799298465365000,1.414364990234375,0.9785194396972656,-5.677948951721191,1.9521812200546265
1789799298475337000,1.4243369140625,1.1999658346176147,-6.010613918304443,2.137207269668579
1789799298485309000,1.434308837890625,1.5219062566757202,-6.229154586791992,2.279040575027466
1789799298495282000,1.444281982421875,1.8964673280715942,-6.3357367515563965,2.33225417137146
1789799298505254100,1.454254150390625,2.2306573390960693,-6.264520645141602,2.2195088863372803
1789799298515225900,1.464225830078125,2.3635709285736084,-5.839093208312988,1.934592366218567
1789799298525198000,1.474197998046875,2.4910149574279785,-5.161014556884766,1.5631362199783325
1789799298535171000,1.484171142578125,2.911031484603882,-5.009311676025391,1.169327735900879
1789799298545142800,1.494142822265625,3.2208290100097656,-5.149503707885742,0.9554633498191833
1789799298555115000,1.504114990234375,3.350949287414551,-5.2969794273376465,0.9342944025993347
1789799298565086700,1.514086669921875,3.3136446475982666,-5.2126641273498535,0.9908874034881592
1789799298575060000,1.52406005859375,3.183776617050171,-4.9131317138671875,1.0013788938522339
1789799298585032000,1.534031982421875,3.086240768432617,-4.314405918121338,0.9484134316444397
1789799298595004000,1.54400390625,2.9888734817504883,-3.3521273136138916,0.7718101739883423
1789799298604975900,1.553975830078125,2.8080174922943115,-2.3134241104125977,0.43474987149238586
1789799298614948900,1.563948974609375,2.6055195331573486,-1.440313458442688,0.047443680465221405
1789799298624920800,1.5739208984375,2.4114110469818115,-0.790888249874115,-0.3147906959056854
1789799298634893000,1.58389306640625,2.2333154678344727,-0.4612608253955841,-0.5687188506126404
1789799298644865000,1.593864990234375,2.0700795650482178,-0.3765938878059387,-0.6538358926773071
1789799298654837800,1.603837646484375,1.9866083860397339,-0.29315465688705444,-0.5828996300697327
1789799298664810000,1.61381005859375,1.9854017496109009,-0.07101824879646301,-0.43580207228660583
1789799298674782000,1.623781982421875,2.081568956375122,0.4228585660457611,-0.30337825417518616
1789799298684754000,1.63375390625,2.1433792114257812,1.0234826803207397,-0.3224608600139618
1789799298694727000,1.643726806640625,2.074568033218384,1.3531808853149414,-0.510104775428772
1789799298704699100,1.65369921875,1.921749234199524,1.2837467193603516,-0.6619699597358704
1789799298714670800,1.6636708984375,1.7580537796020508,0.9306562542915344,-0.6872097849845886
1789799298724643000,1.67364306640625,1.6237332820892334,0.5735908150672913,-0.5869724154472351
1789799298734616000,1.683615966796875,1.6185611486434937,0.5723236799240112,-0.3922484815120697
1789799298744587800,1.693587890625,1.6509771347045898,0.9603550434112549,-0.2198985368013382
1789799298754560000,1.70356005859375,1.571591854095459,1.3775056600570679,-0.1677141636610031
1789799298764532000,1.713531982421875,1.4419184923171997,1.5164872407913208,-0.17223034799098969
1789799298774505000,1.7235048828125,1.3097690343856812,1.3583765029907227,-0.10575252771377563
1789799298784477000,1.733476806640625,1.2281612157821655,0.9434780478477478,0.03377847000956535
1789799298794449000,1.743448974609375,1.2115103006362915,0.37449103593826294,0.15745247900485992
1789799298804420900,1.7534208984375,1.2420905828475952,-0.010864365845918655,0.19340860843658447
1789799298814394000,1.76339404296875,1.3637429475784302,0.26045742630958557,-0.19135771691799164
1789799298824365800,1.77336572265625,1.4888674020767212,0.39915138483047485,-0.5591424107551575
1789799298834338000,1.783338134765625,1.4277368783950806,0.1867895871400833,-0.3751853406429291
1789799298844311000,1.79331103515625,1.2726128101348877,-0.17372837662696838,0.09866452217102051
1789799298854282800,1.80328271484375,1.1087725162506104,-0.4862005412578583,0.5980316996574402
1789799298864255000,1.8132548828125,0.9996936917304993,-0.5007869601249695,0.9782099723815918
1789799298874227000,1.82322705078125,0.945777416229248,-0.3452109098434448,1.2878122329711914
1789799298884200000,1.833199951171875,0.9398295283317566,-0.20555847883224487,1.425742506980896
1789799298894172000,1.843171875,1.019120693206787,0.16642892360687256,1.164310336112976
1789799298904144100,1.85314404296875,1.068972110748291,0.3754098415374756,0.6802099347114563
1789799298914115800,1.86311572265625,1.0132145881652832,0.509951114654541,0.3056986629962921
1789799298924088800,1.8730888671875,0.9253755211830139,0.4053562879562378,0.0883202776312828
1789799298934061000,1.88306103515625,0.803202211856842,0.158830925822258,0.16109807789325714
1789799298944033000,1.893032958984375,0.789158821105957,-0.042520295828580856,0.47328898310661316
1789799298954005000,1.9030048828125,0.846551239490509,-0.15164226293563843,0.7834511399269104
1789799298963978000,1.91297802734375,0.9308485388755798,-0.29745617508888245,0.9037301540374756
1789799298973950000,1.922949951171875,1.0035613775253296,-0.4030712842941284,0.8477699160575867
1789799298983922000,1.932921875,0.9401664137840271,-0.4978417456150055,0.8086541891098022
1789799298993894000,1.942893798828125,0.6809172630310059,-0.5859934687614441,0.7698335647583008
1789799299003867000,1.952866943359375,0.23919154703617096,-0.7240522503852844,0.8357660174369812
1789799299013839000,1.962839111328125,-0.24958080053329468,-0.8120907545089722,0.9830377101898193
1789799299023810800,1.972810791015625,-0.5646852254867554,-0.861797571182251,1.0864309072494507
1789799299033783000,1.982782958984375,-0.661558210849762,-0.9758850336074829,1.1542201042175293
1789799299043756000,1.992756103515625,-0.6806190013885498,-1.048521876335144,1.1895041465759277
1789799299053727700,2.002727783203125,-0.8117749094963074,-1.2265875339508057,1.46484375
1789799299063700000,2.012699951171875,-1.366432547569275,-1.7873730659484863,2.427962303161621
1789799299073673000,2.0226728515625,-1.5233060121536255,-1.5759847164154053,1.403333306312561
1789799299083645000,2.03264501953125,-1.4447240829467773,-0.6377400159835815,0.23628710210323334
1789799299093617000,2.042616943359375,-1.5721670389175415,-0.22610370814800262,0.1874884068965912
1789799299103589000,2.052589111328125,-1.891308307647705,-0.652286171913147,0.45561546087265015
1789799299113561900,2.062561767578125,-1.698245882987976,-1.2550325393676758,0.8223633766174316
1789799299123534000,2.0725341796875,-1.1550995111465454,-1.5800215005874634,1.2718788385391235
1789799299133506000,2.082506103515625,-0.586150586605072,-1.7367607355117798,1.2389960289001465
1789799299143478000,2.09247802734375,-0.2003064602613449,-1.518990159034729,1.1963121891021729
1789799299153451000,2.102450927734375,0.041547976434230804,-1.3498826026916504,1.0757380723953247
1789799299163423000,2.112423095703125,0.11422697454690933,-1.0473589897155762,1.0011699199676514
1789799299173395000,2.12239501953125,0.10551097989082336,-0.7433212995529175,0.8271067142486572
1789799299183367000,2.132366943359375,0.18642793595790863,-0.5656173229217529,0.6417334079742432
1789799299193340200,2.142340087890625,0.16213750839233398,-0.4621162414550781,0.5065957903862
1789799299203311900,2.152311767578125,0.020532971248030663,-0.2997358441352844,0.4260586202144623
1789799299213284000,2.1622841796875,0.031243406236171722,-0.22670158743858337,0.30465763807296753
1789799299223257000,2.172257080078125,0.30185171961784363,-0.07962451875209808,0.2207811176776886
1789799299233228800,2.182228759765625,0.8623952269554138,0.002085521351546049,0.16423794627189636
1789799299243201000,2.192200927734375,1.5110716819763184,-0.00751996785402298,0.17856813967227936
1789799299253173000,2.202173095703125,1.9492384195327759,-0.04640930891036987,0.19644780457019806
1789799299263146000,2.21214599609375,2.0906033515930176,-0.20945708453655243,0.19024823606014252
1789799299273118000,2.222117919921875,1.628455638885498,-0.31689512729644775,0.3265690505504608
1789799299283090000,2.23208984375,0.7726738452911377,-0.5687801241874695,0.4496198892593384
1789799299293062000,2.242061767578125,0.24027198553085327,-0.7243102788925171,0.37849804759025574
1789799299303035100,2.25203515625,-0.21378791332244873,-0.7028550505638123,0.27880552411079407
1789799299313006800,2.2620068359375,-0.693156898021698,-0.5750195980072021,0.1986297369003296
1789799299322979000,2.27197900390625,-1.1161412000656128,-0.6401938199996948,0.10850037634372711
1789799299332952000,2.2819521484375,-1.2072045803070068,-0.9061336517333984,0.032219190150499344
1789799299342924000,2.291924072265625,-1.2877994775772095,-1.0747634172439575,-0.05224429443478584
1789799299352896000,2.30189599609375,-1.471712589263916,-1.169165849685669,-0.2306973934173584
1789799299362868000,2.311867919921875,-1.851036787033081,-1.272662878036499,-0.4712607264518738
1789799299372841200,2.32184130859375,-2.397115468978882,-1.3730461597442627,-0.5282920598983765
1789799299382813000,2.33181298828125,-2.7994909286499023,-1.3468321561813354,-0.39899131655693054
1789799299392785200,2.34178515625,-2.8670358657836914,-1.5650126934051514,-0.39346420764923096
1789799299402757000,2.351757080078125,-3.2290093898773193,-1.8536373376846313,-0.4473913609981537
1789799299412729900,2.361729736328125,-3.878309726715088,-1.981862187385559,-0.26384469866752625
1789799299422702000,2.3717021484375,-4.088089942932129,-2.281651020050049,-0.2857092320919037
1789799299432674000,2.381674072265625,-3.8460521697998047,-2.3035757541656494,-0.2869052588939667
1789799299442647000,2.39164697265625,-3.4246068000793457,-2.277122974395752,-0.3035830557346344
1789799299452619000,2.401618896484375,-3.2245032787323,-2.4629886150360107,-0.21077242493629456
1789799299462591200,2.41159130859375,-2.738884210586548,-2.467097043991089,-0.003123888047412038
1789799299472563000,2.42156298828125,-2.2392756938934326,-2.171003580093384,0.1389605551958084
1789799299482536200,2.4315361328125,-1.7103697061538696,-1.8918044567108154,-0.02798129990696907
1789799299492508200,2.441508056640625,-1.4101054668426514,-1.8603825569152832,-0.01618216559290886
1789799299502480100,2.451480224609375,-1.2874349355697632,-1.7903214693069458,-0.028423918411135674
1789799299512452000,2.4614521484375,-1.1703873872756958,-1.5715497732162476,-0.16747021675109863
1789799299522425000,2.471425048828125,-1.0737063884735107,-1.2617779970169067,-0.4410993754863739
1789799299532397000,2.48139697265625,-0.9708836078643799,-0.6827146410942078,-0.8180953860282898
1789799299542369000,2.491369140625,-0.7690364718437195,0.04663035273551941,-1.2491905689239502
1789799299552342300,2.50134228515625,-0.46776506304740906,0.5150611996650696,-1.5243334770202637
1789799299562314000,2.51131396484375,-0.11968778818845749,0.7375541925430298,-1.5865942239761353
1789799299572286200,2.5212861328125,0.32792380452156067,0.8376682996749878,-1.5006757974624634
1789799299582258000,2.5312578125,0.7509256601333618,0.7130722999572754,-1.2109347581863403
1789799299592231000,2.54123095703125,1.1145704984664917,0.47159361839294434,-0.8924713730812073
1789799299602203100,2.551203125,1.3607336282730103,0.3042885363101959,-0.6403434872627258
1789799299612175000,2.561175048828125,1.5474648475646973,0.3617723286151886,-0.576749324798584
1789799299622148000,2.571148193359375,1.7083227634429932,0.4205608069896698,-0.6639654636383057
1789799299632120000,2.5811201171875,1.7623378038406372,0.43392321467399597,-0.6971253156661987
1789799299642092000,2.591092041015625,1.7954185009002686,0.7960076332092285,-0.750990092754364
1789799299652064000,2.60106396484375,1.8249588012695312,1.1495726108551025,-0.8675020933151245
1789799299662037200,2.611037353515625,1.903288722038269,1.2934783697128296,-0.9250902533531189
1789799299672009000,2.621009033203125,2.0372190475463867,1.5772725343704224,-0.9826462268829346
1789799299681981200,2.630981201171875,2.3546628952026367,2.2246031761169434,-1.1736968755722046
1789799299691953200,2.640953125,2.733764171600342,3.405555248260498,-1.4803961515426636
1789799299701926000,2.65092578125,3.067662477493286,4.071603298187256,-1.645583987236023
1789799299711898000,2.660898193359375,3.262293577194214,3.6432559490203857,-1.4227207899093628
1789799299721870000,2.6708701171875,3.416718006134033,3.1467151641845703,-1.2105265855789185
1789799299731843000,2.680843017578125,3.933849811553955,3.657456398010254,-1.45826256275177
1789799299741815000,2.69081494140625,4.563007831573486,4.435588359832764,-1.9065604209899902
1789799299751787300,2.700787353515625,4.684467315673828,4.6375837326049805,-2.3094735145568848
1789799299761759000,2.710759033203125,4.341472148895264,4.345455169677734,-2.2635419368743896
1789799299771732000,2.72073193359375,3.653233051300049,3.7338502407073975,-1.9474527835845947
1789799299781704200,2.7307041015625,2.930060625076294,2.447354555130005,-1.423522710800171
1789799299791676200,2.74067626953125,2.458895444869995,1.3590388298034668,-0.9727216958999634
1789799299801648000,2.750648193359375,2.11220645904541,0.8691018223762512,-0.7590762972831726
1789799299811621000,2.76062109375,1.8036748170852661,0.5363606214523315,-0.526096522808075
1789799299821593000,2.770593017578125,1.3602313995361328,0.44035449624061584,-0.3560742139816284
1789799299831565000,2.78056494140625,0.9401131868362427,0.45933616161346436,-0.2570411264896393
1789799299841538300,2.790538330078125,0.7027320265769958,0.34719204902648926,-0.2908986806869507
1789799299851510000,2.800510009765625,0.6858564019203186,0.026581808924674988,-0.4572138786315918
1789799299861482200,2.810482177734375,1.1324613094329834,-0.7579388618469238,-0.8371121883392334
1789799299871454000,2.820453857421875,2.221576452255249,-2.721100330352783,-1.3142491579055786
1789799299881427000,2.830427001953125,3.2059662342071533,-3.9503238201141357,-1.692051887512207
1789799299891399200,2.840399169921875,3.324594497680664,-3.4389617443084717,-1.556363821029663
1789799299901371000,2.850370849609375,3.2091636657714844,-2.5406956672668457,-0.8314839005470276
1789799299911344000,2.86034423828125,2.747647523880005,-0.25021010637283325,0.21221159398555756
1789799299921316000,2.870316162109375,2.040639877319336,1.4089804887771606,0.9553562998771667
1789799299931288000,2.8802880859375,1.4997847080230713,0.010395382530987263,1.8312313556671143
1789799299941260000,2.890260009765625,0.7099215388298035,-0.7740296721458435,2.1697123050689697
1789799299951233000,2.90023291015625,0.39159226417541504,-0.978571355342865,1.9768474102020264
1789799299961205000,2.910205078125,0.2933644950389862,-0.9825852513313293,1.545963168144226
1789799299971177200,2.92017724609375,0.13621482253074646,-0.890486478805542,0.8581005930900574
1789799299981150200,2.930150146484375,-0.10789983719587326,-0.8213587999343872,0.20138344168663025
1789799299991122000,2.940121826171875,-0.3628477156162262,-0.4896184206008911,-0.22377769649028778
1789799300001094100,2.95009423828125,-0.38950115442276,0.11847657710313797,-0.32051461935043335
1789799300011066000,2.960066162109375,0.2680327892303467,1.1129238605499268,-0.5984450578689575
1789799300021039000,2.9700390625,0.21922263503074646,0.7444648146629333,-0.30348557233810425
1789799300031011000,2.980010986328125,0.3146554231643677,0.9025546312332153,-0.48400288820266724
1789799300040983300,2.9899833984375,0.4794462323188782,0.5686120390892029,-0.6399120688438416
1789799300050956000,2.9999560546875,0.6249110102653503,0.23969009518623352,-0.5349603295326233
1789799300060928000,3.009927978515625,0.8546752333641052,0.17559951543807983,-0.26059457659721375
1789799300070900200,3.019900146484375,1.0937058925628662,0.2572602927684784,0.024959411472082138
1789799300080872000,3.029871826171875,1.246345043182373,0.3776535391807556,0.1419728547334671
1789799300090845200,3.03984521484375,1.2265651226043701,0.3544912338256836,0.1770184487104416
1789799300100817000,3.04981689453125,0.8178543448448181,0.3717685043811798,0.4597463011741638
1789799300110789000,3.0597890625,0.5173531174659729,0.6117891073226929,0.7126360535621643
1789799300120762000,3.06976220703125,0.5387377738952637,0.5782585740089417,0.6258750557899475
1789799300130734000,3.079734130859375,0.8171252012252808,-0.004486361052840948,0.4156877398490906
1789799300140706000,3.0897060546875,1.0505610704421997,-0.33753010630607605,0.2637554705142975
1789799300150678300,3.09967822265625,1.006292462348938,-0.49934297800064087,-0.19802813231945038
1789799300160651000,3.109651123046875,0.780422568321228,-0.5157033205032349,-0.7117868065834045
1789799300170623000,3.119623046875,0.5513268113136292,0.07549235969781876,-0.675076425075531
1789799300180595200,3.12959521484375,0.23521730303764343,0.967820942401886,-0.43596452474594116
1789799300190568000,3.13956787109375,-0.2992610037326813,0.908485472202301,-0.6172536015510559
1789799300200540200,3.1495400390625,-0.825852632522583,-0.026279807090759277,-0.9716804027557373
1789799300210512100,3.15951220703125,-1.2937010526657104,-0.8650626540184021,-1.2715888023376465
1789799300220484000,3.169484130859375,-1.653857946395874,-0.8842229843139648,-1.3059237003326416
1789799300230457000,3.17945703125,-1.939353346824646,-0.3520145118236542,-1.0838165283203125
1789799300240429000,3.189428955078125,-2.110264539718628,0.27666062116622925,-0.7753551006317139
1789799300250401000,3.199401123046875,-2.0815112590789795,0.6756085157394409,-0.6025002598762512
1789799300260373000,3.209373046875,-1.7524337768554688,1.1458375453948975,-0.4434379041194916
1789799300270346200,3.21934619140625,-1.9686166048049927,0.9172493815422058,-0.6390222907066345
1789799300280318000,3.22931787109375,-2.211397409439087,0.5536844730377197,-0.5438776612281799
1789799300290290200,3.239290283203125,-2.0266077518463135,0.5556909441947937,-0.47037577629089355
1789799300300263200,3.24926318359375,-2.0232203006744385,0.879355788230896,-0.35811474919319153
1789799300310235100,3.259235107421875,-2.1549177169799805,1.0041981935501099,-0.30606403946876526
1789799300320206600,3.26920654296875,-2.473100423812866,1.0846303701400757,-0.17287829518318176
1789799300330179600,3.2791796875,-2.7612290382385254,1.104848861694336,-0.008582568727433681
1789799300340151600,3.289151611328125,-2.98146915435791,0.9723411202430725,0.12547484040260315
1789799300350123500,3.29912353515625,-3.2108347415924072,0.7311735153198242,0.1609811633825302
1789799300360095500,3.309095458984375,-3.317962884902954,0.5136950016021729,0.14475078880786896
1789799300370068500,3.319068359375,-3.440779447555542,0.21591152250766754,0.08746380358934402
1789799300380040700,3.329040771484375,-3.43021821975708,-0.18041451275348663,0.016379505395889282
1789799300390012400,3.339012451171875,-3.1337122917175293,-0.4433760941028595,-0.1327551156282425
1789799300399985700,3.348985595703125,-2.7353413105010986,-0.4172734022140503,-0.2710626721382141
1789799300409957600,3.35895751953125,-2.4190709590911865,-0.25809574127197266,-0.3115277886390686
1789799300419929600,3.3689296875,-2.118306875228882,-0.1682092547416687,-0.2438853681087494
1789799300429901600,3.378901611328125,-1.7524936199188232,-0.16397908329963684,-0.16336283087730408
1789799300439874600,3.38887451171875,-1.373365044593811,-0.22034569084644318,-0.12317173182964325
1789799300449846500,3.398846435546875,-1.0650782585144043,-0.23949754238128662,-0.09205775707960129
1789799300459818500,3.408818603515625,-0.7901798486709595,-0.26015275716781616,-0.04496880620718002
1789799300469791700,3.418791748046875,-0.5616052746772766,-0.2977408766746521,-0.013008209876716137
1789799300479763500,3.428763427734375,-0.3641204237937927,-0.2967270016670227,0.017405888065695763
1789799300489735700,3.438735595703125,-0.18567292392253876,-0.15429902076721191,0.05276814103126526
1789799300499707600,3.448707763671875,-0.07484734058380127,0.012806875631213188,0.05914774164557457
1789799300509680400,3.458680419921875,0.13478976488113403,0.2385454624891281,0.07091785222291946
1789799300519652600,3.468652587890625,0.4976598620414734,0.38458922505378723,0.07768414169549942
1789799300529624600,3.47862451171875,0.509570837020874,0.6422497630119324,0.08418785035610199
1789799300539597600,3.48859765625,0.6665231585502625,0.782814085483551,0.06036240980029106
1789799300549569500,3.498569580078125,0.9427456855773926,0.8552643060684204,-0.007817975245416164
1789799300559541500,3.50854150390625,1.2477684020996094,0.9325721859931946,-0.0819939374923706
1789799300569514500,3.518514404296875,1.5482494831085205,1.037062644958496,-0.11881586909294128
1789799300579486700,3.52848681640625,1.787296175956726,1.0084781646728516,-0.13578152656555176
1789799300589458400,3.53845849609375,1.9488967657089233,0.8543758988380432,-0.16267412900924683
1789799300599430700,3.5484306640625,2.2045342922210693,0.45966240763664246,-0.23727646470069885
1789799300609403600,3.558403564453125,2.664039373397827,-0.0695364698767662,-0.3341979384422302
1789799300619375400,3.568375244140625,3.1275856494903564,-0.20541706681251526,-0.3035971522331238
1789799300629347600,3.57834765625,3.43218994140625,-0.04622475430369377,-0.25472816824913025
1789799300639320600,3.588320556640625,3.573676824569702,0.15300633013248444,-0.22169190645217896
1789799300649292500,3.59829248046875,3.407803773880005,0.3573906123638153,-0.15716113150119781
1789799300659264500,3.608264404296875,3.1624886989593506,0.40078550577163696,-0.07392509281635284
1789799300669237500,3.618237548828125,3.001842737197876,0.24598926305770874,-0.027603665366768837
1789799300679209500,3.62820947265625,2.901054859161377,0.0841313898563385,0.0322684571146965
1789799300689181400,3.638181396484375,2.8281450271606445,-0.16313806176185608,0.06875482946634293
1789799300699153700,3.648153564453125,2.76116681098938,-0.47875088453292847,0.039205726236104965
1789799300709126400,3.65812646484375,2.655327558517456,-0.6493239402770996,0.07540181279182434
1789799300719098600,3.6680986328125,2.50093936920166,-0.5754387974739075,0.1742548942565918
1789799300729070600,3.678070556640625,2.371894598007202,-0.5545923709869385,0.27067330479621887
1789799300739043600,3.688043701171875,2.272082567214966,-0.5449490547180176,0.3291019797325134
1789799300749015600,3.698015625,2.171478748321533,-0.5658652782440186,0.35179024934768677
1789799300758987800,3.70798779296875,2.0373992919921875,-0.670588493347168,0.3470820486545563
1789799300768960500,3.71796044921875,1.8670908212661743,-0.6934280395507812,0.39322638511657715
1789799300778932500,3.727932373046875,1.6759395599365234,-0.6813724040985107,0.4810156226158142
1789799300788904700,3.73790478515625,1.4915473461151123,-0.710415244102478,0.5639885663986206
1789799300798876400,3.74787646484375,1.2656071186065674,-0.759349524974823,0.6077682375907898
1789799300808849700,3.757849609375,1.0677942037582397,-0.648167073726654,0.633982241153717
1789799300818821600,3.767821533203125,0.8945376873016357,-0.4934659004211426,0.59079509973526
1789799300828793600,3.777793701171875,0.7621167898178101,-0.33193159103393555,0.4684564173221588
1789799300838766600,3.7877666015625,0.5342636704444885,-0.1189439669251442,0.31919291615486145
1789799300848738600,3.797738525390625,0.35507073998451233,0.1650475412607193,0.19187995791435242
1789799300858710500,3.80771044921875,0.18825513124465942,0.23114213347434998,0.06988773494958878
1789799300868683500,3.81768359375,0.01751401275396347,0.2068040370941162,-0.022155635058879852
1789799300878655700,3.82765576171875,-0.13217242062091827,0.20000126957893372,-0.11265384405851364
1789799300888627500,3.83762744140625,-0.2855779528617859,0.1940256655216217,-0.20517419278621674
1789799300898599700,3.847599609375,-0.4174180030822754,0.20537473261356354,-0.27325737476348877
1789799300908572700,3.85757275390625,-0.5236741304397583,0.2095247358083725,-0.3146594166755676
1789799300918544600,3.867544677734375,-0.6059945821762085,0.1787303388118744,-0.3508072793483734
1789799300928516600,3.8775166015625,-0.6618708968162537,0.13502226769924164,-0.3711645007133484
1789799300938489600,3.887489501953125,-0.7066415548324585,0.10666439682245255,-0.3724691867828369
1789799300948461600,3.897461669921875,-0.7509655952453613,0.06452493369579315,-0.3637968599796295
1789799300958433500,3.90743359375,-0.798500657081604,-0.0019494339358061552,-0.34019753336906433
1789799300968406800,3.91740673828125,-0.8666259050369263,-0.022590529173612595,-0.305747389793396
1789799300978378500,3.92737841796875,-0.9475843906402588,0.03458860516548157,-0.2712903618812561
1789799300988350700,3.937350830078125,-1.0208770036697388,0.1516726166009903,-0.2453056275844574
1789799300998323700,3.94732373046875,-1.099833369255066,0.24193832278251648,-0.2489379197359085
1789799301008295400,3.95729541015625,-1.222243070602417,0.2953062057495117,-0.28123006224632263
1789799301018267600,3.967267578125,-1.3502346277236938,0.3005979061126709,-0.3183223307132721
1789799301028239600,3.977239501953125,-1.458917498588562,0.28229135274887085,-0.3477438688278198
1789799301038212600,3.987212646484375,-1.571156620979309,0.2597127854824066,-0.353637158870697
1789799301048184600,3.9971845703125,-1.6424832344055176,0.2535600960254669,-0.3686877489089966
1789799301058156500,4.007156494140625,-1.7351291179656982,0.25914448499679565,-0.39018717408180237
1789799301068129500,4.017129638671875,-1.8254214525222778,0.27647578716278076,-0.4298586845397949
1789799301078101800,4.027101806640625,-1.897594928741455,0.176876500248909,-0.5013243556022644
1789799301088073500,4.037073486328125,-1.9468148946762085,-0.0149826779961586,-0.5701260566711426
1789799301098046500,4.04704638671875,-2.017348527908325,-0.2279660552740097,-0.6119264960289001
1789799301108018700,4.057018798828125,-2.097919464111328,-0.3983851969242096,-0.6523610353469849
1789799301117990400,4.066990478515625,-2.09308123588562,-0.5746270418167114,-0.6708284616470337
1789799301127962600,4.076962646484375,-2.143709182739258,-0.6985791325569153,-0.6223333477973938
1789799301137935600,4.086935546875,-2.1581554412841797,-0.8430667519569397,-0.5847271084785461
1789799301147907600,4.096907470703125,-2.2453603744506836,-0.8730579614639282,-0.5314319133758545
1789799301157879600,4.106879638671875,-2.309475898742676,-0.8626303672790527,-0.5179685950279236
1789799301167852500,4.1168525390625,-2.381398916244507,-0.8404638171195984,-0.503226101398468
1789799301177824500,4.126824462890625,-2.430492639541626,-0.8545045256614685,-0.428846150636673
1789799301187796500,4.13679638671875,-2.4070186614990234,-0.9678787589073181,-0.3103663921356201
1789799301197769700,4.146769775390625,-2.3570556640625,-1.1307216882705688,-0.21402467787265778
1789799301207741400,4.156741455078125,-2.3399295806884766,-1.1967287063598633,-0.13631896674633026
1789799301217713700,4.166713623046875,-2.32724928855896,-1.080495834350586,-0.04832412302494049
1789799301227686700,4.176686767578125,-2.2354464530944824,-0.8441812992095947,0.044549357146024704
1789799301237658600,4.18665869140625,-2.085289716720581,-0.7032345533370972,0.12947729229927063
1789799301247630600,4.196630615234375,-1.8640819787979126,-0.6495753526687622,0.19143147766590118
1789799301257603600,4.206603515625,-1.6502740383148193,-0.638916552066803,0.2422453910112381
1789799301267575600,4.216575439453125,-1.4249038696289062,-0.5761618614196777,0.2787533402442932
1789799301277547500,4.226547607421875,-1.175620436668396,-0.45239436626434326,0.29492297768592834
1789799301287520800,4.236520751953125,-0.9054047465324402,-0.32677891850471497,0.29363828897476196
1789799301297492500,4.246492431640625,-0.6417709589004517,-0.22408023476600647,0.2978074550628662
1789799301307464700,4.256464599609375,-0.40972626209259033,-0.13446086645126343,0.3284838795661926
1789799301317436700,4.266436767578125,-0.1895534247159958,0.012316321022808552,0.38837143778800964
1789799301327409200,4.2764091796875,0.02792350947856903,0.18541406095027924,0.43828707933425903
1789799301337381400,4.28638134765625,0.2245505452156067,0.35945695638656616,0.4718626141548157
1789799301347353300,4.296353271484375,0.41189807653427124,0.5364146828651428,0.4888027012348175
1789799301357326300,4.306326416015625,0.638985276222229,0.7381172180175781,0.5106861591339111
1789799301367298300,4.31629833984375,0.8650671243667603,0.8839684128761292,0.5088562965393066
1789799301377270300,4.326270263671875,1.0635581016540527,0.990834653377533,0.48228195309638977
1789799301387243300,4.3362431640625,1.2344014644622803,1.0793410539627075,0.4552418291568756
1789799301397215500,4.346215576171875,1.4082969427108765,1.1776511669158936,0.4270184338092804
1789799301407187200,4.356187255859375,1.6089330911636353,1.278334140777588,0.3940354585647583
1789799301417160200,4.36616015625,1.8075300455093384,1.3511638641357422,0.3797076344490051
1789799301427132400,4.37613232421875,1.978882074356079,1.3685580492019653,0.38326483964920044
1789799301437104000,4.386104248046875,2.1004226207733154,1.3138542175292969,0.3931683301925659
1789799301447077400,4.396077392578125,2.215521812438965,1.1861828565597534,0.4032779633998871
1789799301457049000,4.406049072265625,2.3276045322418213,1.0079851150512695,0.38789287209510803
1789799301467021300,4.416021240234375,2.430309534072876,0.8421000242233276,0.3352040946483612
1789799301476994300,4.425994384765625,2.5111746788024902,0.7416573166847229,0.25183409452438354
1789799301486966000,4.435966064453125,2.573604106903076,0.6854923367500305,0.1686670482158661
1789799301496938200,4.445938232421875,2.6186561584472656,0.6476019620895386,0.1269877701997757
1789799301506911200,4.4559111328125,2.6897900104522705,0.658041775226593,0.1039343848824501
1789799301516883200,4.46588330078125,2.756171226501465,0.6604495644569397,0.08681798726320267
1789799301526855200,4.475855224609375,2.775083303451538,0.6223482489585876,0.05235135555267334
1789799301536827400,4.485827392578125,2.754890203475952,0.6042347550392151,-0.0065343319438397884
1789799301546800000,4.495800048828125,2.7030341625213623,0.5812349319458008,-0.0364094078540802
1789799301556772400,4.5057724609375,2.592480421066284,0.5266273021697998,-0.058100853115320206
1789799301566744300,4.515744384765625,2.494917392730713,0.3906380534172058,-0.08656498789787292
1789799301576717000,4.525717041015625,2.3979549407958984,0.2613796591758728,-0.12071257084608078
1789799301586689300,4.535689208984375,2.2626686096191406,0.15928153693675995,-0.13961701095104218
1789799301596661200,4.5456611328125,2.0751240253448486,-0.02069542557001114,-0.16555114090442657
1789799301606634200,4.55563427734375,1.9504685401916504,-0.17898626625537872,-0.1879158467054367
1789799301616606200,4.565606201171875,1.796675205230713,-0.4136909246444702,-0.18500792980194092
1789799301626578400,4.575578369140625,1.591788649559021,-0.5455693006515503,-0.164116770029068
1789799301636551200,4.58555126953125,1.3761030435562134,-0.6282258629798889,-0.10756561160087585
1789799301646523100,4.595523193359375,1.239846110343933,-0.6050339937210083,-0.04262575879693031
1789799301656495400,4.605495361328125,1.0693053007125854,-0.3793366551399231,0.022370286285877228
1789799301666468000,4.615468017578125,0.8734022974967957,-0.22056566178798676,0.018564363941550255
1789799301676440300,4.6254404296875,0.6761241555213928,-0.10511976480484009,-0.02136148139834404
1789799301686412300,4.635412353515625,0.46487313508987427,0.041012149304151535,-0.042090993374586105
1789799301696385000,4.645385009765625,0.27106398344039917,0.19408611953258514,-0.04751558601856232
1789799301706357200,4.655357177734375,0.06993940472602844,0.16056597232818604,-0.06265538930892944
1789799301716329200,4.6653291015625,-0.11345438659191132,-0.05301421508193016,-0.06647463142871857
1789799301726302200,4.67530224609375,-0.24597620964050293,-0.12447774410247803,-0.026080070063471794
1789799301736274200,4.685274169921875,-0.3889746367931366,-0.03788666054606438,0.030529946088790894
1789799301746246400,4.695246337890625,-0.4909745156764984,0.023419572040438652,0.07057536393404007
1789799301756219100,4.70521923828125,-0.5679132342338562,-0.040890708565711975,0.0896715596318245
1789799301766191400,4.71519140625,-0.6419919729232788,-0.13805906474590302,0.10757226496934891
1789799301776163300,4.725163330078125,-0.7077760696411133,-0.2067989856004715,0.13950224220752716
1789799301786136000,4.735135986328125,-0.7716378569602966,-0.22681742906570435,0.18790598213672638
1789799301796108300,4.7451083984375,-0.8585312366485596,-0.19744835793972015,0.2142784744501114
1789799301806080300,4.755080322265625,-0.9657695293426514,-0.14424265921115875,0.19216704368591309
1789799301816053200,4.76505322265625,-1.0859209299087524,-0.07791450619697571,0.13638447225093842
1789799301826025200,4.775025146484375,-1.2260948419570923,0.0024913870729506016,0.06494837254285812
1789799301835997400,4.78499755859375,-1.3438427448272705,0.040759678930044174,-0.012343218550086021
1789799301845970200,4.79497021484375,-1.4420026540756226,0.03189481422305107,-0.08628401905298233
1789799301855942100,4.804942138671875,-1.51088285446167,-0.007705856580287218,-0.15501302480697632
1789799301865914400,4.814914306640625,-1.57713782787323,-0.03848720341920853,-0.21138760447502136
1789799301875887000,4.82488720703125,-1.6287927627563477,-0.05530586466193199,-0.25951066613197327
1789799301885859300,4.834859375,-1.6766945123672485,-0.06414729356765747,-0.3212941288948059
1789799301895831300,4.844831298828125,-1.7355029582977295,-0.0989132672548294,-0.3998424708843231
1789799301905804000,4.854803955078125,-1.789238691329956,-0.1382146030664444,-0.4995434880256653
1789799301915776300,4.8647763671875,-1.8270403146743774,-0.1964438110589981,-0.5737295746803284
1789799301925748200,4.874748291015625,-1.8449122905731201,-0.2447836548089981,-0.6291297078132629
1789799301935721200,4.88472119140625,-1.878469467163086,-0.28734123706817627,-0.6619164347648621
1789799301945693200,4.894693115234375,-1.9223660230636597,-0.37754783034324646,-0.6525058746337891
1789799301955665400,4.90466552734375,-1.9666740894317627,-0.46052446961402893,-0.6023156642913818
1789799301965638100,4.91463818359375,-2.001305341720581,-0.4581760764122009,-0.5592076182365417
1789799301975610400,4.9246103515625,-2.1100711822509766,-0.3560643792152405,-0.50403892993927
1789799301985582300,4.934582275390625,-2.2508773803710938,-0.29701942205429077,-0.45000070333480835
1789799301995555000,4.94455517578125,-2.343916654586792,-0.40384069085121155,-0.40512752532958984
1789799302005527300,4.95452734375,-2.3715157508850098,-0.6802075505256653,-0.38180649280548096
1789799302015499300,4.964499267578125,-2.3879194259643555,-0.9506720900535583,-0.356962651014328
1789799302025472300,4.97447216796875,-2.383230447769165,-1.1189212799072266,-0.34466230869293213
1789799302035444200,4.9844443359375,-2.3517913818359375,-1.2308262586593628,-0.32709211111068726
1789799302045416400,4.99441650390625,-2.281810998916626,-1.2799495458602905,-0.293414831161499
1789799302055389200,5.00438916015625,-2.1743361949920654,-1.2727465629577637,-0.2503241002559662
1789799302065361200,5.014361083984375,-2.062730312347412,-1.3459177017211914,-0.2523707449436188
1789799302075333400,5.02433349609375,-1.9068055152893066,-1.3524924516677856,-0.24795760214328766
1789799302085306000,5.03430615234375,-1.7143223285675049,-1.2433300018310547,-0.2303975224494934
1789799302095278300,5.0442783203125,-1.4999719858169556,-1.1044267416000366,-0.2130584716796875
1789799302105250300,5.054250244140625,-1.2887436151504517,-1.0567069053649902,-0.2158614546060562
1789799302115223300,5.064223388671875,-1.1097853183746338,-1.056870460510254,-0.2141391932964325
1789799302125195300,5.0741953125,-0.9024991989135742,-0.9620949029922485,-0.19114919006824493
1789799302135167500,5.08416748046875,-0.6648110151290894,-0.7261585593223572,-0.15630944073200226
1789799302145140200,5.09414013671875,-0.43506890535354614,-0.4002555310726166,-0.13163472712039948
1789799302155112200,5.1041123046875,-0.19933468103408813,-0.05489334091544151,-0.09296083450317383
1789799302165084400,5.11408447265625,0.022893598303198814,0.23764877021312714,-0.02924363873898983
1789799302175057200,5.12405712890625,0.23278291523456573,0.4747185707092285,0.053091712296009064
1789799302185029400,5.134029296875,0.466276615858078,0.6182014346122742,0.1387253850698471
1789799302195001300,5.14400146484375,0.7146995067596436,0.7422083616256714,0.19926676154136658
1789799302204974000,5.15397412109375,0.9532606601715088,0.9222351312637329,0.2383824735879898
1789799302214946300,5.1639462890625,1.145570993423462,1.1057215929031372,0.26179298758506775
1789799302224918300,5.173918212890625,1.3205689191818237,1.2484086751937866,0.28498566150665283
1789799302234891300,5.183891357421875,1.4756718873977661,1.3002519607543945,0.31896787881851196
1789799302244863200,5.19386328125,1.6278431415557861,1.2582751512527466,0.3514285981655121
1789799302254835500,5.20383544921875,1.7940349578857422,1.2339706420898438,0.3661721348762512
1789799302264808200,5.21380810546875,1.9743613004684448,1.265043020248413,0.3618873655796051
1789799302274780200,5.2237802734375,2.1548140048980713,1.2986500263214111,0.36453136801719666
1789799302284752100,5.233752197265625,2.3247923851013184,1.261289358139038,0.3854789733886719
1789799302294725000,5.24372509765625,2.477187395095825,1.1585261821746826,0.41290953755378723
1789799302304697300,5.253697265625,2.6139414310455322,1.0647767782211304,0.4215267300605774
1789799302314669000,5.2636689453125,2.732914686203003,0.9616847634315491,0.42199546098709106
1789799302324642300,5.273642333984375,2.818509340286255,0.7935879230499268,0.414680540561676
1789799302334614300,5.2836142578125,2.870469331741333,0.583687961101532,0.3895333707332611
1789799302344586200,5.293586181640625,2.92034912109375,0.44652077555656433,0.3548654019832611
1789799302354559200,5.303559326171875,2.93227219581604,0.40217140316963196,0.3011414706707001
1789799302364531200,5.31353125,2.8595404624938965,0.30212897062301636,0.2440243810415268
1789799302374503200,5.323503173828125,2.767857551574707,0.1921073943376541,0.25000450015068054
1789799302384476200,5.33347607421875,2.6121838092803955,0.08661718666553497,0.2751396894454956
1789799302394448400,5.343448486328125,2.420536756515503,-0.06645918637514114,0.3010333478450775
1789799302404421000,5.353421142578125,2.2567076683044434,-0.18274104595184326,0.3283943831920624
1789799302414393000,5.36339306640625,2.0796079635620117,-0.25734418630599976,0.36509808897972107
1789799302424365300,5.373365234375,1.9330493211746216,-0.3938879072666168,0.34660854935646057
1789799302434338000,5.383338134765625,1.7686976194381714,-0.5100922584533691,0.29987460374832153
1789799302444310300,5.393310302734375,1.6187657117843628,-0.4839048981666565,0.24225737154483795
1789799302454282200,5.4032822265625,1.4710018634796143,-0.4607425630092621,0.18590807914733887
1789799302464255000,5.4132548828125,1.3766363859176636,-0.5641707181930542,0.14814366400241852
1789799302474227200,5.423227294921875,1.2282581329345703,-0.6424548625946045,0.13128958642482758
1789799302484199200,5.43319921875,1.0728520154953003,-0.6379474401473999,0.1172158420085907
1789799302494172200,5.443172119140625,0.9005194306373596,-0.4044409692287445,0.14244848489761353
1789799302504144100,5.45314404296875,0.7361312508583069,-0.19801534712314606,0.13363130390644073
1789799302514116400,5.463116455078125,0.6074451804161072,-0.13821779191493988,0.08955571800470352
1789799302524089000,5.473089111328125,0.47293320298194885,-0.011536015197634697,0.05020245164632797
1789799302534061300,5.483061279296875,0.3500024676322937,0.09910368174314499,0.009679525159299374
1789799302544033300,5.493033203125,0.15760907530784607,0.09728261083364487,-0.01423619408160448
1789799302554006000,5.503006103515625,-0.029136046767234802,-0.05076837167143822,-0.028071582317352295
1789799302563978200,5.512978271484375,-0.18613632023334503,-0.09723707288503647,-0.009659817442297935
1789799302573950200,5.5229501953125,-0.34565380215644836,-0.049200303852558136,-0.006725280545651913
1789799302583923200,5.532923095703125,-0.48355069756507874,0.020927120000123978,0.00418462511152029
1789799302593895200,5.542895263671875,-0.6032688617706299,0.09032270312309265,0.028026042506098747
1789799302603867400,5.552867431640625,-0.6981423497200012,0.1128740906715393,0.06202768534421921
1789799302613840100,5.562840087890625,-0.7850636839866638,0.0994379073381424,0.10662098228931427
1789799302623812000,5.57281201171875,-0.8649936318397522,0.08731652796268463,0.1515871286392212
1789799302633784300,5.582784423828125,-0.9535261988639832,0.06186496466398239,0.17503279447555542
1789799302643757000,5.592757080078125,-1.0358437299728394,-0.00250576832331717,0.16841191053390503
1789799302653729300,5.602729248046875,-1.1024190187454224,-0.0812024474143982,0.12863440811634064
1789799302663701200,5.612701171875,-1.1769294738769531,-0.1335090547800064,0.07410752028226852
1789799302673674000,5.622674072265625,-1.266378402709961,-0.093844473361969,0.020074108615517616
1789799302683646200,5.632646240234375,-1.3900017738342285,0.013627927750349045,-0.03316434472799301
1789799302693618200,5.6426181640625,-1.5144672393798828,0.1646352857351303,-0.08267943561077118
1789799302703591200,5.652591064453125,-1.6068730354309082,0.30551090836524963,-0.13965164124965668
1789799302713563100,5.662563232421875,-1.6843180656433105,0.4062942564487457,-0.2226940542459488
1789799302723535400,5.672535400390625,-1.7784464359283447,0.46907666325569153,-0.324349045753479
1789799302733508000,5.682508056640625,-1.858454704284668,0.4417228102684021,-0.40935343503952026
1789799302743480300,5.692480224609375,-1.9618152379989624,0.22987954318523407,-0.4010656774044037
1789799302753453300,5.702453369140625,-2.0780794620513916,-0.06819716095924377,-0.3282007873058319
1789799302763425000,5.712425048828125,-2.191925287246704,-0.11773329228162766,-0.3255051374435425
1789799302773397200,5.722397216796875,-2.272838830947876,0.02972007915377617,-0.42005452513694763
1789799302783370200,5.732370361328125,-2.2434709072113037,0.1934424340724945,-0.5193486213684082
1789799302793342200,5.74234228515625,-2.16912841796875,0.21654801070690155,-0.5113309025764465
1789799302803314200,5.752314208984375,-2.204728603363037,0.023425964638590813,-0.424696683883667
1789799302813287200,5.762287109375,-2.2335994243621826,-0.3338527977466583,-0.3887602686882019
1789799302823259100,5.772259033203125,-2.26430344581604,-0.6393144726753235,-0.4162331521511078
1789799302833231000,5.782231201171875,-2.31154465675354,-0.7469639778137207,-0.4538401961326599
1789799302843204400,5.792204345703125,-2.2556607723236084,-0.9232305884361267,-0.5478718876838684
1789799302853176000,5.802176025390625,-2.200833797454834,-1.0833078622817993,-0.5979832410812378
1789799302863148300,5.812148193359375,-2.1623342037200928,-1.2050143480300903,-0.5698837041854858
1789799302873121300,5.822121337890625,-2.103710174560547,-1.3749828338623047,-0.5591533184051514
1789799302883093000,5.832093017578125,-2.0790414810180664,-1.3987902402877808,-0.5278087258338928
1789799302893065200,5.842065185546875,-2.005727529525757,-1.3233146667480469,-0.49780791997909546
1789799302903038200,5.8520380859375,-1.8875631093978882,-1.2976641654968262,-0.49360597133636475
1789799302913010200,5.86201025390625,-1.7354744672775269,-1.2263659238815308,-0.45336082577705383
1789799302922983200,5.871983154296875,-1.5323841571807861,-1.1004383563995361,-0.38650402426719666
1789799302932955400,5.881955322265625,-1.3700780868530273,-0.8910961151123047,-0.2926502525806427
1789799302942927000,5.891927001953125,-1.150367021560669,-0.7933186888694763,-0.24021819233894348
1789799302952900000,5.901900146484375,-0.9350664615631104,-0.6470237970352173,-0.16785718500614166
1789799302962872300,5.911872314453125,-0.7232232093811035,-0.4859115779399872,-0.08360461890697479
1789799302972844000,5.921843994140625,-0.4872436821460724,-0.3328549265861511,-0.014081996865570545
1789799302982817300,5.9318173828125,-0.2808372676372528,-0.17627303302288055,0.01769191212952137
1789799302992789200,5.941789306640625,-0.1132780909538269,0.01540372334420681,0.07199935615062714
1789799303002761200,5.95176123046875,0.05867423117160797,0.22308075428009033,0.1743512898683548
1789799303012734200,5.961734130859375,0.2711907625198364,0.39932528138160706,0.2708472013473511
1789799303022706200,5.9717060546875,0.5082485675811768,0.595577597618103,0.30423685908317566
1789799303032678100,5.98167822265625,0.7468566298484802,0.7810848951339722,0.2933937907218933
1789799303042651100,5.991651123046875,0.9689493179321289,0.9576913714408875,0.2925666272640228
1789799303052623400,6.001623291015625,1.1627070903778076,1.1285555362701416,0.2990833818912506
1789799303062595000,6.011594970703125,1.3507989645004272,1.2951955795288086,0.29397544264793396
1789799303072568000,6.021568115234375,1.5214530229568481,1.4114083051681519,0.2841683328151703
1789799303082540300,6.031540283203125,1.704895257949829,1.479851245880127,0.3020709156990051
1789799303092513300,6.04151318359375,1.894598364830017,1.499353051185608,0.3536507487297058
1789799303102485200,6.0514853515625,2.0868823528289795,1.4779877662658691,0.4089092016220093
1789799303112457200,6.061457275390625,2.2889506816864014,1.4477590322494507,0.4295079708099365
1789799303122430200,6.07143017578125,2.4965572357177734,1.3914531469345093,0.43168988823890686
1789799303132402200,6.081402099609375,2.672844648361206,1.2577385902404785,0.41950780153274536
1789799303142374400,6.09137451171875,2.806201934814453,1.0468590259552002,0.3937462270259857
1789799303152347400,6.101347412109375,2.90234637260437,0.8528696298599243,0.3648868799209595
1789799303162319000,6.111319091796875,2.9599080085754395,0.7014603614807129,0.3526001274585724
1789799303172291300,6.121291259765625,2.987178087234497,0.49658605456352234,0.35193967819213867
1789799303182264000,6.13126416015625,2.9889957904815674,0.2943280339241028,0.3337121903896332
1789799303192236300,6.141236328125,2.9353561401367188,0.11980017274618149,0.30763691663742065
1789799303202208300,6.151208251953125,2.8455464839935303,0.02333648130297661,0.28853458166122437
1789799303212181000,6.161180908203125,2.7768073081970215,0.009259544312953949,0.28205937147140503
1789799303222153200,6.1711533203125,2.6442809104919434,-0.05077796056866646,0.29257646203041077
1789799303232126200,6.181126220703125,2.443363904953003,-0.2712496221065521,0.33394840359687805
1789799303242098200,6.19109814453125,2.268634080886841,-0.4425784945487976,0.37101268768310547
1789799303252070100,6.201070068359375,2.110154628753662,-0.47074833512306213,0.37219566106796265
1789799303262043100,6.211043212890625,1.9430042505264282,-0.5200538635253906,0.33232948184013367
1789799303272015000,6.22101513671875,1.778214693069458,-0.6203610301017761,0.2861417531967163
1789799303281987000,6.230987060546875,1.596258282661438,-0.6705520153045654,0.26191258430480957
1789799303291960300,6.240960205078125,1.4745041131973267,-0.6405368447303772,0.2601484954357147
1789799303301932000,6.25093212890625,1.319191813468933,-0.5635600090026855,0.24987562000751495
1789799303311904300,6.260904296875,1.152969479560852,-0.5069558620452881,0.2363680601119995
1789799303321878000,6.2708779296875,0.940544068813324,-0.4222681522369385,0.2503770887851715
1789799303331850000,6.28085009765625,0.7641264200210571,-0.34120607376098633,0.23631906509399414
1789799303341823000,6.290822998046875,0.5883575081825256,-0.23106783628463745,0.2175520360469818
1789799303351795000,6.300794921875,0.447066992521286,-0.20678673684597015,0.17530737817287445
1789799303361767200,6.31076708984375,0.2703297436237335,0.043947484344244,0.14949575066566467
1789799303371740000,6.320739990234375,0.09600402414798737,0.226562038064003,0.10881169885396957
1789799303381712000,6.3307119140625,-0.09843975305557251,0.18219377100467682,0.07180601358413696
1789799303391684000,6.34068408203125,-0.2702815532684326,0.09922938048839569,0.07388754189014435
1789799303401656800,6.35065673828125,-0.38218119740486145,0.025353560224175453,0.07709718495607376
1789799303411629000,6.360629150390625,-0.5177398324012756,0.050028812140226364,0.08568241447210312
1789799303421602000,6.37060205078125,-0.6298460960388184,0.10728491097688675,0.09623438864946365
1789799303431573800,6.38057373046875,-0.7246562242507935,0.13958372175693512,0.1004970446228981
1789799303441546000,6.3905458984375,-0.801560640335083,0.09924162924289703,0.09286416321992874
1789799303451519000,6.40051904296875,-0.8572438359260559,0.041316546499729156,0.088307224214077
1789799303461491000,6.410490966796875,-0.9194249510765076,0.03156990930438042,0.07851744443178177
1789799303471463000,6.420462890625,-0.9964842796325684,0.08679082244634628,0.044802360236644745
1789799303481436000,6.430435791015625,-1.084826111793518,0.18172478675842285,0.011653194203972816
1789799303491408000,6.440407958984375,-1.1687884330749512,0.22072093188762665,-0.011998073197901249
1789799303501380900,6.450380859375,-1.2729718685150146,0.19543235003948212,-0.036309536546468735
1789799303511353000,6.46035302734375,-1.3961821794509888,0.18788868188858032,-0.07129015773534775
1789799303521324800,6.47032470703125,-1.5164779424667358,0.24055081605911255,-0.1102287694811821
1789799303531298000,6.480298095703125,-1.6230392456054688,0.3013473153114319,-0.17559285461902618
1789799303541270000,6.49027001953125,-1.702592134475708,0.31635451316833496,-0.29085901379585266
1789799303551242000,6.500241943359375,-1.782008171081543,0.30382806062698364,-0.42405274510383606
1789799303561215000,6.510215087890625,-1.907617211341858,0.21984155476093292,-0.5305261611938477
1789799303571187000,6.52018701171875,-2.0427870750427246,0.09776783734560013,-0.5444252490997314
1789799303581160200,6.53016015625,-2.138950824737549,0.018140388652682304,-0.518991231918335
1789799303591132000,6.5401318359375,-2.2445578575134277,0.02358175814151764,-0.5367225408554077
1789799303601104100,6.550104248046875,-2.2900350093841553,0.06942354887723923,-0.6027101278305054
1789799303611077000,6.5600771484375,-2.2529807090759277,0.12834252417087555,-0.6583267450332642
1789799303621048800,6.570048828125,-2.201613426208496,0.0856802836060524,-0.6325124502182007
1789799303631021000,6.58002099609375,-2.1949996948242188,-0.11439022421836853,-0.5970426201820374
1789799303640994000,6.589994140625,-2.229471206665039,-0.3239429295063019,-0.5802713632583618
1789799303650966000,6.599966064453125,-2.2423758506774902,-0.5252704620361328,-0.605444610118866
1789799303660939000,6.60993896484375,-2.26257586479187,-0.6870095133781433,-0.6752620935440063
1789799303670911000,6.619910888671875,-2.3244171142578125,-0.7170079350471497,-0.6921542286872864
1789799303680883000,6.629883056640625,-2.279282331466675,-0.796857476234436,-0.6952610611915588
1789799303690856000,6.63985595703125,-2.2088623046875,-0.9230404496192932,-0.6702273488044739
1789799303700828200,6.649828125,-2.152756452560425,-1.0384645462036133,-0.6278578042984009
1789799303710801000,6.65980078125,-2.1022591590881348,-1.1055045127868652,-0.5720493793487549
1789799303720772900,6.66977294921875,-2.0452585220336914,-1.1122721433639526,-0.5013842582702637
1789799303730744800,6.679744873046875,-1.9445946216583252,-1.12510347366333,-0.4466182291507721
1789799303740717800,6.6897177734375,-1.8105921745300293,-1.1412297487258911,-0.40415120124816895
1789799303750690000,6.69968994140625,-1.6613677740097046,-1.0567069053649902,-0.34521839022636414
1789799303760661800,6.709661865234375,-1.461483359336853,-0.9602951407432556,-0.2773328125476837
1789799303770635000,6.719635009765625,-1.2492563724517822,-0.8914396166801453,-0.20992474257946014
1789799303780607000,6.72960693359375,-1.030719518661499,-0.8219857215881348,-0.1822342574596405
1789799303790580000,6.739580078125,-0.7985259294509888,-0.7107199430465698,-0.16714638471603394
1789799303800552000,6.749552001953125,-0.5881311297416687,-0.5885010957717896,-0.13184165954589844
1789799303810524000,6.75952392578125,-0.3706113398075104,-0.43122968077659607,-0.07397063076496124
1789799303820497200,6.7694970703125,-0.15681491792201996,-0.15205903351306915,0.002377137541770935
1789799303830468900,6.77946875,0.06771832704544067,0.20529615879058838,0.08920177817344666
1789799303840441900,6.78944189453125,0.30127009749412537,0.5153605341911316,0.17691779136657715
1789799303850414000,6.7994140625,0.5266597867012024,0.720421314239502,0.25618091225624084
1789799303860385800,6.8093857421875,0.7501789331436157,0.8565226793289185,0.3276239335536957
1789799303870359000,6.819359130859375,0.9583214521408081,0.9253911972045898,0.3669569492340088
1789799303880331000,6.8293310546875,1.1526193618774414,1.0038423538208008,0.3628634214401245
1789799303890303700,6.8393037109375,1.3587762117385864,1.0880392789840698,0.34886157512664795
1789799303900276000,6.84927587890625,1.5852622985839844,1.169776201248169,0.34846317768096924
1789799303910248000,6.859248046875,1.803592324256897,1.2733755111694336,0.3617997467517853
1789799303920221000,6.869220947265625,1.9812160730361938,1.3665629625320435,0.4022004306316376
1789799303930193000,6.87919287109375,2.1183993816375732,1.370095133781433,0.4591209888458252
1789799303940166000,6.889165771484375,2.253180742263794,1.2691597938537598,0.508152961730957
1789799303950137900,6.899137939453125,2.415264368057251,1.1506019830703735,0.5297890305519104
1789799303960109800,6.90910986328125,2.6029293537139893,1.057927131652832,0.508590817451477
1789799303970083000,6.9190830078125,2.7490479946136475,0.9916812777519226,0.4673464298248291
1789799303980054800,6.9290546875,2.8470041751861572,0.8529564142227173,0.4281976819038391
1789799303990028000,6.939028076171875,2.8988654613494873,0.6477721333503723,0.41455671191215515
1789799304000000000,6.949,2.8917343616485596,0.5167941451072693,0.3903253972530365
1789799304009972000,6.958971923828125,2.8398537635803223,0.46896374225616455,0.3208794891834259
1789799304019945000,6.968945068359375,2.7480571269989014,0.37070828676223755,0.2632896900177002
1789799304029917000,6.9789169921875,2.66255259513855,0.21098147332668304,0.2499919980764389
1789799304039890200,6.98889013671875,2.595954418182373,0.12261353433132172,0.2542565166950226
1789799304049862000,6.99886181640625,2.4883649349212646,0.10640020668506622,0.22322162985801697
1789799304059835000,7.0088349609375,2.3627469539642334,0.006926083005964756,0.1815868318080902
1789799304069807000,7.01880712890625,2.246817111968994,-0.12951351702213287,0.15484550595283508
1789799304079778800,7.02877880859375,2.1444950103759766,-0.21022939682006836,0.1589164137840271
1789799304089752000,7.038751953125,2.024592876434326,-0.37088194489479065,0.16586779057979584
1789799304099724000,7.04872412109375,1.8836101293563843,-0.5481619238853455,0.17097866535186768
1789799304109696800,7.05869677734375,1.71101975440979,-0.6996395587921143,0.2094927728176117
1789799304119669000,7.0686689453125,1.562721610069275,-0.6496762633323669,0.2440563440322876
1789799304129641000,7.078640869140625,1.3825632333755493,-0.5818455815315247,0.2383398711681366
1789799304139614000,7.088614013671875,1.1811814308166504,-0.5585969686508179,0.19886009395122528
1789799304149586000,7.0985859375,0.9803181290626526,-0.4436511993408203,0.193851500749588
1789799304159559000,7.108558837890625,0.7983749508857727,-0.38519057631492615,0.1626293957233429
1789799304169531000,7.11853076171875,0.6437046527862549,-0.3300945460796356,0.11551221460103989
1789799304179503900,7.12850390625,0.4513898193836212,-0.19308502972126007,0.09484688192605972
1789799304189476000,7.13847607421875,0.30842095613479614,-0.05632052943110466,0.06926456093788147
1789799304199447800,7.14844775390625,0.14520379900932312,-0.01575845666229725,0.030127808451652527
1789799304209420800,7.1584208984375,-0.012769857421517372,-0.027368241921067238,-0.017370734363794327
1789799304219393000,7.16839306640625,-0.14340269565582275,-0.07830998301506042,-0.03380589932203293
1789799304229366000,7.178365966796875,-0.27825799584388733,-0.10175751894712448,-0.01631052978336811
1789799304239338000,7.188337890625,-0.40167340636253357,-0.12301807105541229,0.003824033075943589
1789799304249310000,7.19831005859375,-0.5064562559127808,-0.11064288765192032,0.011247594840824604
1789799304259283000,7.208282958984375,-0.5954753756523132,-0.06724108755588531,0.014956844970583916
1789799304269255000,7.2182548828125,-0.6913837790489197,0.010450243949890137,0.004046939779073
1789799304279228000,7.228227783203125,-0.7813386917114258,0.0780002623796463,-0.016443422064185143
1789799304289200000,7.2382001953125,-0.8648043274879456,0.10467581450939178,-0.036989975720644
1789799304299172900,7.2481728515625,-0.9513573050498962,0.1118096187710762,-0.06290972232818604
1789799304309145000,7.25814501953125,-1.0358575582504272,0.13315832614898682,-0.09527112543582916
1789799304319117000,7.268116943359375,-1.1456037759780884,0.1639614999294281,-0.1321260780096054
1789799304329089300,7.27808935546875,-1.265317678451538,0.24071326851844788,-0.14191213250160217
1789799304339061200,7.288061279296875,-1.3629329204559326,0.2698090970516205,-0.1552037000656128
1789799304349034200,7.2980341796875,-1.4318286180496216,0.20756570994853973,-0.1936482936143875
1789799304359006500,7.30800634765625,-1.5059638023376465,0.17879824340343475,-0.2532788813114166
1789799304368979200,7.317979248046875,-1.5769999027252197,0.2548844814300537,-0.3378145396709442
1789799304378951400,7.327951416015625,-1.6462767124176025,0.3795068562030792,-0.4458067715167999
1789799304388923400,7.33792333984375,-1.7367770671844482,0.3564438819885254,-0.5621693134307861
1789799304398896000,7.347896240234375,-1.857401728630066,0.16332954168319702,-0.6295300126075745
1789799304408868400,7.357868408203125,-1.995163083076477,-0.05319743975996971,-0.6123507618904114
1789799304418841300,7.36784130859375,-2.136397361755371,-0.15764369070529938,-0.5972274541854858
1789799304428813300,7.377813232421875,-2.2217724323272705,-0.024092020466923714,-0.6294631361961365
1789799304438786300,7.387786376953125,-2.2699899673461914,0.1556689590215683,-0.699420690536499
1789799304448758300,7.39775830078125,-2.2180426120758057,0.25534680485725403,-0.7147314548492432
1789799304458731500,7.4077314453125,-2.1604466438293457,0.1896924376487732,-0.6349111795425415
1789799304468703200,7.417703125,-2.1584153175354004,0.015546469017863274,-0.5255237221717834
1789799304478675500,7.427675537109375,-2.1494407653808594,-0.28386715054512024,-0.4803397059440613
1789799304488648400,7.4376484375,-2.1886258125305176,-0.5250198245048523,-0.4786832332611084
1789799304498620200,7.4476201171875,-2.261845350265503,-0.6226979494094849,-0.4977823495864868
1789799304508593400,7.457593505859375,-2.2371327877044678,-0.7831690907478333,-0.5584241151809692
1789799304518565400,7.4675654296875,-2.181009292602539,-0.9030808210372925,-0.59027498960495
1789799304528538000,7.4775380859375,-2.158151626586914,-0.9230260848999023,-0.5392429828643799
1789799304538510300,7.48751025390625,-2.090930938720703,-1.0907210111618042,-0.5307704210281372
1789799304548483300,7.4974833984375,-2.0379748344421387,-1.2003273963928223,-0.5132481455802917
1789799304558455300,7.507455322265625,-1.9725232124328613,-1.2356425523757935,-0.4931013286113739
1789799304568427300,7.51742724609375,-1.9218608140945435,-1.1642413139343262,-0.43481218814849854
1789799304578400300,7.527400146484375,-1.7575677633285522,-1.1518864631652832,-0.40511074662208557
1789799304588372200,7.537372314453125,-1.5761489868164062,-1.0846914052963257,-0.3737703859806061
1789799304598345200,7.54734521484375,-1.3854684829711914,-0.9760469198226929,-0.3131435215473175
1789799304608317400,7.5573173828125,-1.1763999462127686,-0.8581719398498535,-0.24452611804008484
1789799304618290400,7.56729052734375,-0.9802046418190002,-0.6461851596832275,-0.1592908501625061
1789799304628262400,7.577262451171875,-0.7147349119186401,-0.5690615773200989,-0.1344747245311737
1789799304638235400,7.5872353515625,-0.4962877929210663,-0.438334196805954,-0.07662713527679443
1789799304648207400,7.597207275390625,-0.29385611414909363,-0.3187343180179596,-0.013818876817822456
1789799304658180400,7.607180419921875,-0.07965727895498276,-0.14651434123516083,0.06073179095983505
1789799304668152300,7.61715234375,0.14063061773777008,0.08951177448034286,0.14686214923858643
1789799304678125300,7.627125244140625,0.3801249563694,0.3341960906982422,0.2119239717721939
1789799304688097300,7.63709716796875,0.6234385371208191,0.5191012024879456,0.25491005182266235
1789799304698069200,7.6470693359375,0.8375260829925537,0.6632517576217651,0.2749548554420471
1789799304708042500,7.65704248046875,1.0372461080551147,0.8018522262573242,0.267752081155777
1789799304718014200,7.66701416015625,1.2447659969329834,0.9569880366325378,0.23854279518127441
1789799304727987200,7.6769873046875,1.4397655725479126,1.0664244890213013,0.2505773603916168
1789799304737959400,7.68695947265625,1.6060386896133423,1.1427656412124634,0.3101101815700531
1789799304747932400,7.696932373046875,1.7551323175430298,1.2163479328155518,0.37088140845298767
1789799304757904400,7.706904296875,1.9119960069656372,1.2989698648452759,0.3905712068080902
1789799304767877400,7.71687744140625,2.0722146034240723,1.3882741928100586,0.3670578896999359
1789799304777849300,7.726849365234375,2.209979295730591,1.4385432004928589,0.365666925907135
1789799304787822300,7.736822265625,2.331470489501953,1.3639230728149414,0.4001530110836029
1789799304797794300,7.746794189453125,2.4518511295318604,1.2032225131988525,0.4097904562950134
1789799304807767300,7.756767333984375,2.57392954826355,1.048148512840271,0.34774571657180786
1789799304817739300,7.7667392578125,2.680509328842163,0.924632728099823,0.2532389163970947
1789799304827712300,7.776712158203125,2.7600960731506348,0.7503272294998169,0.17602881789207458
1789799304837684500,7.7866845703125,2.8194687366485596,0.5042937994003296,0.13572055101394653
1789799304847657500,7.796657470703125,2.8488340377807617,0.2904762923717499,0.09443888813257217
1789799304857629200,7.806629150390625,2.8279566764831543,0.13379748165607452,0.06905630230903625
1789799304867602400,7.8166025390625,2.7829270362854004,0.039380960166454315,0.07066511362791061
1789799304877574400,7.826574462890625,2.7397701740264893,-0.020614730194211006,0.11004261672496796
1789799304887547100,7.836547119140625,2.6276626586914062,-0.05772028863430023,0.15048378705978394
1789799304897519400,7.846519287109375,2.4872710704803467,-0.2538365423679352,0.16894401609897614
1789799304907491300,7.8564912109375,2.3160440921783447,-0.3832075595855713,0.21663349866867065
1789799304917464300,7.86646435546875,2.130443811416626,-0.4672500193119049,0.25744059681892395
1789799304927436300,7.876436279296875,1.9504014253616333,-0.511746883392334,0.2965291440486908
1789799304937409300,7.8864091796875,1.779475212097168,-0.47153982520103455,0.33522939682006836
1789799304947381200,7.89638134765625,1.6497060060501099,-0.5351513028144836,0.373812198638916
1789799304957354200,7.906354248046875,1.5106065273284912,-0.5330407619476318,0.4043048620223999
1789799304967326500,7.916326416015625,1.3718464374542236,-0.5274640917778015,0.4180441200733185
1789799304977299500,7.926299560546875,1.2245936393737793,-0.5387929081916809,0.41876769065856934
1789799304987271400,7.936271484375,1.0608816146850586,-0.5127013921737671,0.4192449450492859
1789799304997244400,7.946244384765625,0.9043858051300049,-0.49620896577835083,0.39469751715660095
1789799305007216000,7.956216064453125,0.7379360795021057,-0.5176820158958435,0.3414830267429352
1789799305017189400,7.966189453125,0.5561301112174988,-0.4394764304161072,0.27199476957321167
1789799305027161300,7.976161376953125,0.41529572010040283,-0.29360631108283997,0.1907329261302948
1789799305037134300,7.98613427734375,0.21381747722625732,-0.06769835203886032,0.11775859445333481
1789799305047106300,7.996106201171875,0.005447229836136103,0.08713623136281967,0.045406896620988846
1789799305057079300,8.006079345703125,-0.17485463619232178,0.13423237204551697,-0.03620780631899834
1789799305067052300,8.01605224609375,-0.3212323486804962,0.028076907619833946,-0.11167646199464798
1789799305077024300,8.026024169921875,-0.44675910472869873,-0.050157442688941956,-0.1570442169904709
1789799305086997200,8.035997314453125,-0.5582326650619507,-0.03212571144104004,-0.180629163980484
1789799305096969500,8.045969482421874,-0.627633810043335,-0.04433417320251465,-0.20811112225055695
1789799305106942500,8.0559423828125,-0.685609757900238,-0.06892473995685577,-0.23574328422546387
1789799305116914200,8.0659140625,-0.7592597603797913,-0.0009126652730628848,-0.2681688666343689
1789799305126887400,8.075887451171875,-0.836242139339447,0.16020351648330688,-0.3017260432243347
1789799305136859400,8.085859375,-0.8879266381263733,0.2758882939815521,-0.32841435074806213
1789799305146832100,8.09583203125,-0.925744354724884,0.19473859667778015,-0.3436737358570099
1789799305156804400,8.105804443359375,-0.9799796342849731,0.029703300446271896,-0.34213390946388245
1789799305166777300,8.11577734375,-1.0633379220962524,-0.024029435589909554,-0.3242369294166565
1789799305176749300,8.125749267578126,-1.1666210889816284,0.05211753025650978,-0.3109908998012543
1789799305186722300,8.135722412109375,-1.285201072692871,0.14132116734981537,-0.29818856716156006
1789799305196694300,8.1456943359375,-1.4240031242370605,0.16532637178897858,-0.28798332810401917
1789799305206667500,8.15566748046875,-1.5604579448699951,0.1811245083808899,-0.2986500859260559
1789799305216639200,8.16563916015625,-1.6382968425750732,0.24660524725914001,-0.3442990481853485
1789799305226612200,8.1756123046875,-1.7009625434875488,0.31165510416030884,-0.4292195439338684
1789799305236584400,8.18558447265625,-1.7830142974853516,0.32062461972236633,-0.5405910611152649
1789799305246557200,8.19555712890625,-1.87956964969635,0.19900843501091003,-0.6232433319091797
1789799305256529400,8.205529296875,-1.993320345878601,-0.052377719432115555,-0.6037753820419312
1789799305266502400,8.21550244140625,-2.1077945232391357,-0.27792802453041077,-0.5480082631111145
1789799305276475400,8.225475341796875,-2.2313737869262695,-0.3019353449344635,-0.5477160811424255
1789799305286447400,8.235447265625,-2.295173406600952,-0.1347586065530777,-0.6258982419967651
1789799305296420400,8.24542041015625,-2.224257707595825,0.015118765644729137,-0.685158371925354
1789799305306392300,8.255392333984375,-2.1658663749694824,0.01943335309624672,-0.6795268654823303
1789799305316365300,8.265365234375,-2.1450819969177246,-0.18046139180660248,-0.6654512286186218
1789799305326336800,8.275336669921876,-2.1588382720947266,-0.4221358001232147,-0.652582585811615
1789799305336310000,8.28531005859375,-2.2157199382781982,-0.6491907835006714,-0.6447041630744934
1789799305346282000,8.295281982421875,-2.21697735786438,-0.8701018691062927,-0.6604272127151489
1789799305356255000,8.3052548828125,-2.20546293258667,-0.9884463548660278,-0.6703906059265137
1789799305366227000,8.31522705078125,-2.2446930408477783,-0.9255573749542236,-0.6166938543319702
1789799305376200000,8.325199951171875,-2.1842234134674072,-0.987756073474884,-0.6115784049034119
1789799305386173000,8.3351728515625,-2.126054525375366,-0.9633585810661316,-0.5683390498161316
1789799305396145000,8.345144775390626,-2.0686676502227783,-0.9378598928451538,-0.5190956592559814
1789799305406118000,8.355117919921875,-1.9702491760253906,-1.064818024635315,-0.5118449330329895
1789799305416090000,8.365090087890625,-1.8524119853973389,-1.1141797304153442,-0.4571166932582855
1789799305426063000,8.37506298828125,-1.6963449716567993,-1.1471641063690186,-0.4072718918323517
1789799305436034800,8.385034912109376,-1.574968695640564,-1.0282318592071533,-0.34577977657318115
1789799305446008000,8.395008056640625,-1.2899295091629028,-1.1106798648834229,-0.38670748472213745
1789799305455980000,8.40497998046875,-1.0101069211959839,-1.039551854133606,-0.4111745059490204
1789799305465952800,8.414952880859374,-0.7501704096794128,-0.8740494847297668,-0.38150689005851746
1789799305475926000,8.424926025390626,-0.5433754324913025,-0.656095564365387,-0.2765410542488098
1789799305485898000,8.43489794921875,-0.3387407660484314,-0.4628105163574219,-0.1495300978422165
1789799305495871000,8.44487109375,-0.12848420441150665,-0.21926471590995789,-0.05253484845161438
1789799305505843000,8.454843017578124,0.07253225892782211,0.027936825528740883,0.06330414116382599
1789799305515816000,8.46481591796875,0.2927948534488678,0.3097764849662781,0.20676089823246002
1789799305525788200,8.4747880859375,0.5215784907341003,0.5825265645980835,0.31719261407852173
1789799305535761000,8.484760986328125,0.7434490919113159,0.7966111302375793,0.3994046449661255
1789799305545734000,8.49473388671875,0.9382904767990112,0.9661612510681152,0.48494699597358704
1789799305555706000,8.5047060546875,1.1247975826263428,1.099327802658081,0.5693590641021729
1789799305565679000,8.51467919921875,1.307315707206726,1.2264293432235718,0.6169998049736023
1789799305575650800,8.52465087890625,1.499293327331543,1.3325166702270508,0.6676850914955139
1789799305585624000,8.5346240234375,1.6876320838928223,1.4070204496383667,0.7348833084106445
1789799305595597000,8.54459716796875,1.868372917175293,1.4927319288253784,0.7643994092941284
1789799305605568800,8.55456884765625,2.0252747535705566,1.573554515838623,0.7673323154449463
1789799305615542000,8.5645419921875,2.1504130363464355,1.5490808486938477,0.800601601600647
1789799305625514000,8.574513916015626,2.2481391429901123,1.4211474657058716,0.8579943180084229
1789799305635486700,8.58448681640625,2.3522071838378906,1.1911877393722534,0.8981931209564209
1789799305645460000,8.5944599609375,2.482769012451172,0.9396987557411194,0.8938782811164856
1789799305655432000,8.604431884765624,2.621083974838257,0.7275748252868652,0.8473576903343201
1789799305665405000,8.614405029296876,2.731583595275879,0.5128393173217773,0.7748333811759949
1789799305675377000,8.624376953125,2.783860921859741,0.3104771673679352,0.693526566028595
1789799305685350000,8.634349853515625,2.8275699615478516,0.13708648085594177,0.634583592414856
1789799305695322000,8.644322021484374,2.8328428268432617,0.06701339036226273,0.6058249473571777
1789799305705294800,8.654294921875,2.7704131603240967,0.047511059790849686,0.5798996090888977
1789799305715267800,8.664267822265625,2.6981256008148193,0.04632994905114174,0.5676567554473877
1789799305725240000,8.674239990234375,2.585003137588501,0.014308098703622818,0.5542882680892944
1789799305735213000,8.684213134765624,2.4601073265075684,-0.11783422529697418,0.5470644235610962
1789799305745185800,8.694185791015625,2.3430044651031494,-0.2709880769252777,0.5412382483482361
1789799305755158000,8.704157958984375,2.2000746726989746,-0.3417474925518036,0.550517201423645
1789799305765131000,8.714131103515625,2.0552337169647217,-0.3616916239261627,0.5382370948791504
1789799305775103000,8.72410302734375,1.920682430267334,-0.4118219017982483,0.5136944651603699
1789799305785076000,8.734075927734375,1.7912911176681519,-0.46722525358200073,0.48425403237342834
1789799305795049000,8.744049072265625,1.62570321559906,-0.5315943956375122,0.43890440464019775
1789799305805021000,8.75402099609375,1.477229356765747,-0.4976294934749603,0.39661580324172974
1789799305814994000,8.763993896484376,1.310162901878357,-0.4566833972930908,0.3433791995048523
1789799305824966000,8.7739658203125,1.1060768365859985,-0.42103883624076843,0.27725452184677124
1789799305834939000,8.78393896484375,0.9183833599090576,-0.43774405121803284,0.19639959931373596
1789799305844912000,8.793912109375,0.7241235971450806,-0.31456539034843445,0.13194897770881653
1789799305854883800,8.8038837890625,0.5874691009521484,-0.26154106855392456,0.06001034006476402
1789799305864856800,8.81385693359375,0.4420176148414612,-0.1647292971611023,0.002546514617279172
1789799305874830000,8.823830078125,0.3032988905906677,-0.0818762257695198,-0.0605941042304039
1789799305884801800,8.8338017578125,0.13135935366153717,0.06931009888648987,-0.09137438982725143
1789799305894775000,8.843775146484376,-0.03803446888923645,0.24181929230690002,-0.08425043523311615
1789799305904747000,8.8537470703125,-0.18331097066402435,0.26658907532691956,-0.0681457668542862
1789799305914720000,8.863719970703125,-0.3019217848777771,0.13233540952205658,-0.04406013712286949
1789799305924693000,8.87369287109375,-0.40125688910484314,0.041184719651937485,-0.019049324095249176
1789799305934665000,8.8836650390625,-0.4913143217563629,0.09554596245288849,-0.02419721521437168
1789799305944638000,8.893637939453125,-0.5733615159988403,0.23778140544891357,-0.051180895417928696
1789799305954611000,8.90361083984375,-0.6589451432228088,0.36928829550743103,-0.06944911181926727
1789799305964583000,8.9135830078125,-0.7548301219940186,0.45890313386917114,-0.07907058298587799
1789799305974556000,8.923555908203125,-0.8689689636230469,0.507030189037323,-0.08537055552005768
1789799305984529000,8.93352880859375,-0.9749521017074585,0.4755452275276184,-0.10206937789916992
1789799305994500900,8.9435009765625,-1.068240761756897,0.3791041672229767,-0.12987224757671356
1789799306004473900,8.953473876953124,-1.1540446281433105,0.2512282431125641,-0.15271711349487305
1789799306014446800,8.96344677734375,-1.2459958791732788,0.18042303621768951,-0.17585784196853638
1789799306024419000,8.973419189453125,-1.3407561779022217,0.21241691708564758,-0.21123367547988892
1789799306034391800,8.983391845703125,-1.4183708429336548,0.2795719802379608,-0.25914713740348816
1789799306044365000,8.993364990234374,-1.5016907453536987,0.3452146649360657,-0.33852824568748474
1789799306054337000,9.0033369140625,-1.5843983888626099,0.3922988176345825,-0.44910216331481934
1789799306064310000,9.01331005859375,-1.6667231321334839,0.4020816683769226,-0.5697404146194458
1789799306074283000,9.023282958984375,-1.7547552585601807,0.32633763551712036,-0.6450863480567932
1789799306084255000,9.0332548828125,-1.8341875076293945,0.2157892882823944,-0.6389772891998291
1789799306094228000,9.04322802734375,-1.9349844455718994,0.1733235865831375,-0.6094417572021484
1789799306104201000,9.053200927734375,-2.035965919494629,0.24128958582878113,-0.6420655250549316
1789799306114173000,9.0631728515625,-2.1139543056488037,0.28911304473876953,-0.7048308849334717
1789799306124146000,9.07314599609375,-2.1619620323181152,0.20373262465000153,-0.7281151413917542
1789799306134119000,9.083118896484375,-2.172302722930908,0.06531375646591187,-0.683881402015686
1789799306144091000,9.0930908203125,-2.189558982849121,-0.11437131464481354,-0.6303731799125671
1789799306154064000,9.10306396484375,-2.2041094303131104,-0.2194782942533493,-0.5659254789352417
1789799306164036900,9.113036865234376,-2.1783206462860107,-0.32301828265190125,-0.5489374399185181
1789799306174008800,9.1230087890625,-2.234762668609619,-0.4110053777694702,-0.5804458260536194
1789799306183981800,9.13298193359375,-2.3056020736694336,-0.491638720035553,-0.6075741052627563
1789799306193955000,9.142955078125,-2.2822391986846924,-0.6883221864700317,-0.6260250210762024
1789799306203927000,9.152927001953126,-2.2578024864196777,-0.9568482041358948,-0.6412050127983093
1789799306213899800,9.162899658203125,-2.2251932621002197,-1.12874436378479,-0.6233935356140137
1789799306223873000,9.172873046875,-2.2406516075134277,-1.1269229650497437,-0.5660442113876343
1789799306233845000,9.182844970703124,-2.1613099575042725,-1.2231574058532715,-0.5698466897010803
1789799306243818000,9.19281787109375,-2.073647975921631,-1.2249715328216553,-0.5773743987083435
1789799306253791000,9.202791015625,-1.9604191780090332,-1.157283067703247,-0.558956503868103
1789799306263763000,9.212762939453125,-1.825562596321106,-1.0568634271621704,-0.5180620551109314
1789799306273736000,9.22273583984375,-1.7009114027023315,-0.8922165036201477,-0.42660456895828247
1789799306283709000,9.232708984375,-1.487241268157959,-0.9105997681617737,-0.37815210223197937
1789799306293681000,9.242680908203125,-1.2865209579467773,-0.8667619824409485,-0.31041938066482544
1789799306303654000,9.25265380859375,-1.0751622915267944,-0.7689938545227051,-0.23826129734516144
1789799306313627000,9.262626953125,-0.8385652303695679,-0.6158634424209595,-0.18850520253181458
1789799306323600400,9.272600341796876,-0.5961225032806396,-0.35276684165000916,-0.14197364449501038
1789799306333572000,9.282572021484375,-0.3457920253276825,-0.07916565984487534,-0.0583551861345768
1789799306343545000,9.292545166015625,-0.0958317220211029,0.1967058628797531,0.04019775241613388
1789799306353518300,9.302518310546875,0.1581006944179535,0.42426392436027527,0.12899179756641388
1789799306363490000,9.312489990234376,0.4155932068824768,0.612754762172699,0.20539602637290955
1789799306373463000,9.322463134765625,0.6649119853973389,0.791325032711029,0.27479374408721924
1789799306383436300,9.332436279296875,0.8666293621063232,0.9463801383972168,0.3281797468662262
1789799306393409300,9.3424091796875,1.0272520780563354,1.0989691019058228,0.3634730279445648
1789799306403381000,9.352381103515626,1.181951642036438,1.2498865127563477,0.40209445357322693
1789799306413354200,9.362354248046875,1.3564916849136353,1.3441064357757568,0.4552532732486725
1789799306423327200,9.3723271484375,1.5590773820877075,1.387076497077942,0.48260873556137085
1789799306433299200,9.38229931640625,1.754656434059143,1.3705332279205322,0.4928957223892212
1789799306443272200,9.392272216796876,1.913748025894165,1.3167775869369507,0.5141469240188599
1789799306453245200,9.4022451171875,2.037553548812866,1.2850111722946167,0.5408571362495422
1789799306463218200,9.41221826171875,2.149996519088745,1.2396469116210938,0.5586432814598083
1789799306473190400,9.4221904296875,2.2796640396118164,1.150587797164917,0.5772777199745178
1789799306483163100,9.4321630859375,2.4079926013946533,1.015338659286499,0.6090034246444702
1789799306493136100,9.44213623046875,2.5252413749694824,0.8589352369308472,0.6088681221008301
1789799306503108400,9.4521083984375,2.628720283508301,0.667456328868866,0.5561473965644836
1789799306513081300,9.462081298828124,2.722585678100586,0.4881611466407776,0.48630547523498535
1789799306523054000,9.47205419921875,2.7922348976135254,0.3751975893974304,0.43555307388305664
1789799306533027000,9.482027099609375,2.8394980430603027,0.2953339219093323,0.41826915740966797
1789799306542999300,9.491999267578125,2.847562551498413,0.21400949358940125,0.41195347905158997
1789799306552972300,9.50197216796875,2.794936180114746,0.16092923283576965,0.4098320007324219
1789799306562945000,9.511945068359376,2.7143442630767822,0.17265672981739044,0.43636026978492737
1789799306572918300,9.521918212890625,2.6260695457458496,0.11254332214593887,0.4685818552970886
1789799306582890200,9.53189013671875,2.5432651042938232,-0.035466648638248444,0.501870334148407
1789799306592863200,9.54186328125,2.405823230743408,-0.1675035059452057,0.5016309022903442
1789799306602836200,9.551836181640626,2.257106304168701,-0.19011561572551727,0.4698953330516815
1789799306612809200,9.561809326171876,2.116652727127075,-0.14970454573631287,0.4127825200557709
1789799306622781200,9.57178125,1.9689894914627075,-0.15145370364189148,0.3512411117553711
1789799306632754400,9.58175439453125,1.8653101921081543,-0.206783264875412,0.30286985635757446
1789799306642727200,9.59172705078125,1.7275118827819824,-0.3485443890094757,0.2723582983016968
1789799306652700200,9.6017001953125,1.534853219985962,-0.4296421706676483,0.23811882734298706
1789799306662672400,9.61167236328125,1.2950313091278076,-0.4317798912525177,0.1512715369462967
1789799306672645000,9.62164501953125,1.0826140642166138,-0.40949004888534546,0.0679771900177002
1789799306682618000,9.6316181640625,0.936501145362854,-0.5368030071258545,0.0035214978270232677
1789799306692591000,9.641591064453126,0.7588256597518921,-0.5208972692489624,-0.009043029509484768
1789799306702564400,9.651564453125,0.5682730078697205,-0.4475644528865814,-0.06733269989490509
1789799306712536000,9.6615361328125,0.3976688086986542,-0.4009820520877838,-0.15712197124958038
1789799306722509000,9.671509033203124,0.21484120190143585,-0.3489081859588623,-0.20881712436676025
1789799306732482300,9.681482421875,0.051894623786211014,-0.3010842204093933,-0.21900105476379395
1789799306742455300,9.691455322265625,-0.11609411239624023,-0.16195881366729736,-0.1931380331516266
1789799306752427000,9.701427001953125,-0.26794835925102234,-0.03442881256341934,-0.15223747491836548
1789799306762400300,9.711400146484374,-0.3966165781021118,0.06886401772499084,-0.13755014538764954
1789799306772373200,9.721373291015626,-0.5085223317146301,0.18503883481025696,-0.14750529825687408
1789799306782346200,9.73134619140625,-0.598112940788269,0.29698747396469116,-0.1705421805381775
1789799306792319200,9.7413193359375,-0.6579214334487915,0.37193575501441956,-0.18777230381965637
1789799306802291200,9.751291259765624,-0.7037988901138306,0.380682110786438,-0.19406241178512573
1789799306812264200,9.76126416015625,-0.7601575255393982,0.3211769461631775,-0.18634511530399323
1789799306822237200,9.7712373046875,-0.8193614482879639,0.21131756901741028,-0.1533709168434143
1789799306832210200,9.781210205078125,-0.8887226581573486,0.12359437346458435,-0.11942386627197266
1789799306842182100,9.79118212890625,-0.9539123177528381,0.10489579290151596,-0.10730914771556854
1789799306852155100,9.801155029296876,-1.0149866342544556,0.13491147756576538,-0.13634932041168213
1789799306862128400,9.81112841796875,-1.0945764780044556,0.15587428212165833,-0.2070746272802353
1789799306872101400,9.821101318359375,-1.2018665075302124,0.1415747106075287,-0.29376983642578125
1789799306882074000,9.83107421875,-1.3621273040771484,0.11866592615842819,-0.3678091764450073
1789799306892046300,9.84104638671875,-1.5655176639556885,0.07320310920476913,-0.421892374753952
1789799306902019300,9.851019287109375,-1.7510441541671753,0.11676336824893951,-0.431831032037735
1789799306911992300,9.860992431640625,-1.8887934684753418,0.27017953991889954,-0.4658238887786865
1789799306921965000,9.870965087890625,-1.9912687540054321,0.426895409822464,-0.5562829375267029
1789799306931938000,9.88093798828125,-2.095130681991577,0.4493389129638672,-0.6544997692108154
1789799306941911300,9.890911376953126,-2.194681167602539,0.3284391462802887,-0.6897773742675781
1789799306951883300,9.90088330078125,-2.2440435886383057,0.15273362398147583,-0.6705980896949768
1789799306961856000,9.91085595703125,-2.286005735397339,-0.04210510849952698,-0.6622418761253357
1789799306971829200,9.920829345703124,-2.3160862922668457,-0.14694391191005707,-0.7062969207763672
1789799306981802200,9.93080224609375,-2.2680599689483643,-0.10180225968360901,-0.7251548171043396
1789799306991775200,9.940775146484375,-2.2112770080566406,-0.03665361925959587,-0.6797540187835693
1789799307001747200,9.950747314453125,-2.190110921859741,-0.11989498138427734,-0.6438085436820984
1789799307011720200,9.96072021484375,-2.1737194061279297,-0.30560892820358276,-0.6288232207298279
1789799307021693200,9.970693115234376,-2.1733357906341553,-0.5800596475601196,-0.6399711966514587
1789799307031666200,9.980666259765625,-2.1571204662323,-0.9255123734474182,-0.7000750303268433
1789799307041639200,9.99063916015625,-2.1522953510284424,-1.153870701789856,-0.7460949420928955
1789799307051612200,10.000612060546874,-2.190943717956543,-1.176182746887207,-0.726473867893219
1789799307061584100,10.010584228515626,-2.1718411445617676,-1.27969229221344,-0.7369922995567322
1789799307071557400,10.020557373046875,-2.1497690677642822,-1.2794291973114014,-0.7093292474746704
1789799307081530000,10.030530029296875,-2.1426005363464355,-1.1511425971984863,-0.6074521541595459
1789799307091503000,10.040503173828125,-2.014753818511963,-1.156098484992981,-0.5529702305793762
1789799307101476000,10.05047607421875,-1.8773317337036133,-1.0514096021652222,-0.4704127907752991
1789799307111449300,10.060449462890626,-1.7220656871795654,-0.8997234106063843,-0.3694544732570648
1789799307121421000,10.070421142578125,-1.5140384435653687,-0.7832298278808594,-0.27728885412216187
1789799307131394000,10.08039404296875,-1.3224631547927856,-0.5894305109977722,-0.1731502115726471
1789799307141367300,10.0903671875,-1.0431116819381714,-0.6285781860351562,-0.15795287489891052
1789799307151340300,10.10034033203125,-0.7950196266174316,-0.6252585649490356,-0.12568922340869904
1789799307161313300,10.110313232421875,-0.5914396047592163,-0.5583218932151794,-0.09812922775745392
1789799307171286000,10.1202861328125,-0.4313705861568451,-0.4384002685546875,-0.043404996395111084
1789799307181259300,10.13025927734375,-0.2541617155075073,-0.2894746959209442,0.06234486773610115
1789799307191231200,10.140231201171876,-0.05350503697991371,-0.06023058295249939,0.16100086271762848
1789799307201204200,10.150204345703125,0.1766224354505539,0.21397674083709717,0.22482804954051971
1789799307211177200,10.16017724609375,0.4391464591026306,0.48402926325798035,0.27928996086120605
1789799307221150200,10.170150146484374,0.6944794654846191,0.7509448528289795,0.29806631803512573
1789799307231123200,10.180123291015626,0.9405102729797363,0.9856804013252258,0.29941147565841675
1789799307241096200,10.19009619140625,1.170224905014038,1.1546918153762817,0.2965365946292877
1789799307251069200,10.200069091796875,1.376827359199524,1.2576924562454224,0.3264753222465515
1789799307261041200,10.210041259765624,1.5587420463562012,1.3349052667617798,0.37331074476242065
1789799307271014100,10.22001416015625,1.7124525308609009,1.4175657033920288,0.439529687166214
1789799307280987100,10.229987060546875,1.857480764389038,1.4685617685317993,0.5409892201423645
1789799307290960400,10.23996044921875,2.001148223876953,1.4612476825714111,0.62478107213974
1789799307300933000,10.24993310546875,2.138962984085083,1.3911468982696533,0.6711695790290833
1789799307310906000,10.259906005859374,2.2750966548919678,1.2798057794570923,0.6903773546218872
1789799307320879000,10.269879150390626,2.4126479625701904,1.1857186555862427,0.6709520220756531
1789799307330852900,10.279852783203125,2.5603013038635254,1.0739867687225342,0.6226579546928406
1789799307340826000,10.289826171875,2.683215379714966,0.9230856895446777,0.5680661201477051
1789799307350797800,10.2997978515625,2.7643935680389404,0.7301064133644104,0.511519193649292
1789799307360770800,10.309770751953126,2.8006815910339355,0.5128129720687866,0.47189030051231384
1789799307370744000,10.319744140625,2.816622495651245,0.3414880931377411,0.4382447302341461
1789799307380717000,10.329717041015625,2.7986104488372803,0.2616310715675354,0.3847958743572235
1789799307390689800,10.339689697265625,2.7301483154296875,0.19519878923892975,0.3244880735874176
1789799307400662800,10.349662841796874,2.64186429977417,0.11841079592704773,0.3092462718486786
1789799307410636000,10.359635986328126,2.5570926666259766,0.0051931641064584255,0.3497113883495331
1789799307420609000,10.369609130859375,2.449997663497925,-0.083010733127594,0.3747251331806183
1789799307430582000,10.37958203125,2.3465962409973145,-0.17750553786754608,0.37007206678390503
1789799307440554000,10.389553955078124,2.2525854110717773,-0.3202616274356842,0.34021297097206116
1789799307450527000,10.39952685546875,2.1425514221191406,-0.4518715739250183,0.33039841055870056
1789799307460500000,10.4095,2.021548271179199,-0.5283716917037964,0.3296990692615509
1789799307470473000,10.419472900390625,1.8981949090957642,-0.5026319622993469,0.29968738555908203
1789799307480446000,10.429446044921875,1.7228436470031738,-0.48581331968307495,0.2585713565349579
1789799307490419000,10.4394189453125,1.5488145351409912,-0.49252820014953613,0.2386178970336914
1789799307500392000,10.449391845703126,1.3363385200500488,-0.42722588777542114,0.2390136420726776
1789799307510365000,10.459364990234375,1.1320730447769165,-0.41984814405441284,0.19900630414485931
1789799307520338200,10.469338134765625,0.8801742196083069,-0.37738165259361267,0.1534004807472229
1789799307530311000,10.479310791015624,0.7120054364204407,-0.41517534852027893,0.09675663709640503
1789799307540283000,10.489282958984376,0.5647664666175842,-0.40661197900772095,0.07764366269111633
1789799307550256000,10.499256103515625,0.4298291504383087,-0.35414981842041016,0.056772202253341675
1789799307560229000,10.50922900390625,0.3050307333469391,-0.27143150568008423,0.03484613075852394
1789799307570201900,10.519201904296875,0.17897027730941772,-0.07206753641366959,0.026765834540128708
1789799307580174800,10.5291748046875,0.05723772197961807,-0.03148788586258888,-0.017302557826042175
1789799307590148000,10.539148193359376,-0.06799502670764923,-0.01599734276533127,-0.05733652785420418
1789799307600121000,10.54912109375,-0.1933729201555252,0.019838685169816017,-0.07603351771831512
1789799307610094000,10.559093994140625,-0.3204089105129242,0.0654170885682106,-0.08183068037033081
1789799307620066800,10.56906689453125,-0.4474875032901764,0.10684601962566376,-0.09548018127679825
1789799307630039800,10.579039794921876,-0.5597445368766785,0.18314053118228912,-0.12721467018127441
1789799307640013000,10.589012939453125,-0.6465556025505066,0.2528250515460968,-0.15982694923877716
1789799307649986000,10.598986083984375,-0.7286392450332642,0.30294308066368103,-0.17126469314098358
1789799307659958800,10.608958740234375,-0.8149698972702026,0.3429240584373474,-0.16624224185943604
1789799307669931800,10.618931884765624,-0.9063397645950317,0.31811192631721497,-0.16826410591602325
1789799307679905000,10.628905029296876,-0.9966132044792175,0.21446995437145233,-0.17499418556690216
1789799307689877000,10.638876953125,-1.084147572517395,0.0725727379322052,-0.18384972214698792
1789799307699849700,10.648849609375,-1.1757371425628662,0.011146660894155502,-0.18904049694538116
1789799307709823000,10.658822998046874,-1.2922680377960205,0.0388864129781723,-0.20208944380283356
1789799307719796000,10.6687958984375,-1.4476011991500854,0.10351893305778503,-0.23212751746177673
1789799307729769000,10.67876904296875,-1.625618815422058,0.16317693889141083,-0.26617735624313354
1789799307739742000,10.688741943359375,-1.7880455255508423,0.20891007781028748,-0.2912435531616211
1789799307749715000,10.69871484375,-1.9323574304580688,0.20773668587207794,-0.3476085662841797
1789799307759688000,10.70868798828125,-2.043163776397705,0.14326049387454987,-0.43403106927871704
1789799307769661000,10.718660888671875,-2.1141655445098877,0.00640783179551363,-0.5205121636390686
1789799307779634000,10.728634033203125,-2.1321842670440674,-0.2552996873855591,-0.5866312384605408
1789799307789607200,10.738607177734375,-2.111302375793457,-0.5420904159545898,-0.5922824740409851
1789799307799580000,10.748579833984374,-2.116170883178711,-0.7581441402435303,-0.5858061909675598
1789799307809553000,10.758552978515626,-2.144303798675537,-0.7597143650054932,-0.6028041243553162
1789799307819526000,10.76852587890625,-2.1555283069610596,-0.6625244617462158,-0.6631899476051331
1789799307829499000,10.778498779296875,-2.124241352081299,-0.5562261939048767,-0.7052122354507446
1789799307839472000,10.78847216796875,-2.0897443294525146,-0.45492011308670044,-0.7192638516426086
1789799307849444900,10.79844482421875,-2.0883054733276367,-0.43843594193458557,-0.7168843150138855
1789799307859417900,10.80841796875,-2.0792925357818604,-0.47295424342155457,-0.7093510627746582
1789799307869390800,10.818390869140625,-2.0608677864074707,-0.5063459873199463,-0.6885014176368713
1789799307879364000,10.828364013671875,-2.02648663520813,-0.6257331371307373,-0.6945356130599976
1789799307889337000,10.838337158203124,-2.01871919631958,-0.7012001872062683,-0.6954054236412048
1789799307899309800,10.848309814453126,-2.0418906211853027,-0.7193368673324585,-0.6808094382286072
1789799307909282800,10.85828271484375,-2.049400806427002,-0.7072929739952087,-0.6567059755325317
1789799307919256000,10.868256103515625,-2.0378689765930176,-0.7184851765632629,-0.619706392288208
1789799307929229000,10.87822900390625,-2.034857988357544,-0.651095449924469,-0.5336260795593262
1789799307939202000,10.8882021484375,-1.9269416332244873,-0.6811990737915039,-0.46066880226135254
1789799307949174800,10.8981748046875,-1.7792917490005493,-0.7219355702400208,-0.3928985595703125
1789799307959148000,10.90814794921875,-1.6040635108947754,-0.781760573387146,-0.3301480710506439
1789799307969120000,10.9181201171875,-1.4183266162872314,-0.8038772940635681,-0.26678454875946045
1789799307979093000,10.928093017578124,-1.2319107055664062,-0.8144159317016602,-0.2042894810438156
1789799307989066000,10.93806591796875,-1.0318840742111206,-0.7317242622375488,-0.14092010259628296
1789799307999039000,10.9480390625,-0.800899088382721,-0.6197332739830017,-0.0636274442076683
1789799308009012000,10.958011962890625,-0.5780937075614929,-0.4321032166481018,0.018734805285930634
1789799308018985000,10.96798486328125,-0.37320074439048767,-0.2534881830215454,0.10821329057216644
1789799308028958000,10.9779580078125,-0.17519578337669373,-0.0935579165816307,0.2050309181213379
1789799308038931000,10.987930908203126,0.02859009988605976,0.07522817701101303,0.2846032381057739
1789799308048904000,10.997904052734375,0.2698671519756317,0.2844010889530182,0.33893439173698425
1789799308058877000,11.007876953125,0.5169355273246765,0.47011902928352356,0.3607192933559418
1789799308068850000,11.017849853515624,0.7648265957832336,0.6349650025367737,0.3501742482185364
1789799308078823000,11.027822998046876,1.0029608011245728,0.7930672764778137,0.3026733100414276
1789799308088796000,11.0377958984375,1.22990882396698,0.9166829586029053,0.28252357244491577
1789799308098769000,11.047768798828125,1.4384894371032715,1.0310853719711304,0.31317734718322754
1789799308108742000,11.057741943359375,1.607686996459961,1.1593661308288574,0.3626255989074707
1789799308118715100,11.067715087890624,1.728133201599121,1.3056349754333496,0.4362364411354065
1789799308128687900,11.07768798828125,1.8424019813537598,1.3730823993682861,0.5238872170448303
1789799308138662000,11.087661865234375,1.976793646812439,1.3787893056869507,0.5951187610626221
1789799308148635000,11.097634765625,2.1418027877807617,1.3398661613464355,0.628813624382019
1789799308158608000,11.10760791015625,2.3290600776672363,1.2486896514892578,0.63645339012146
1789799308168581000,11.1175810546875,2.499025344848633,1.0730570554733276,0.6314671635627747
1789799308178554000,11.12755419921875,2.6437692642211914,0.8981289863586426,0.6029340624809265
1789799308188526800,11.13752685546875,2.7615084648132324,0.7680771946907043,0.5574858784675598
1789799308198499800,11.147499755859375,2.84224796295166,0.6499249935150146,0.5174135565757751
1789799308208473000,11.15747314453125,2.890648126602173,0.5570027828216553,0.46299827098846436
1789799308218446000,11.167446044921874,2.882166624069214,0.45978811383247375,0.4155524671077728
1789799308228419000,11.177419189453126,2.8260092735290527,0.3484402596950531,0.41543048620224
1789799308238391800,11.187391845703125,2.7492499351501465,0.20165641605854034,0.4351240396499634
1789799308248364800,11.19736474609375,2.689321756362915,0.06143273413181305,0.43706974387168884
1789799308258338000,11.207338134765624,2.657088279724121,-0.019824039191007614,0.42367058992385864
1789799308268311000,11.21731103515625,2.5502970218658447,-0.050209108740091324,0.38891899585723877
1789799308278284000,11.227283935546875,2.4086039066314697,-0.19636498391628265,0.34828421473503113
1789799308288256800,11.2372568359375,2.3021485805511475,-0.3713165521621704,0.33390554785728455
1789799308298230000,11.24722998046875,2.1916415691375732,-0.5168785452842712,0.3553546369075775
1789799308308203000,11.257203125,2.016897678375244,-0.6325811743736267,0.3744921088218689
1789799308318176000,11.267176025390626,1.8187166452407837,-0.6731762886047363,0.3728311061859131
1789799308328148500,11.2771484375,1.6227569580078125,-0.6834241151809692,0.3414159119129181
1789799308338121700,11.287121826171875,1.4325542449951172,-0.70160311460495,0.30993175506591797
1789799308348094700,11.2970947265625,1.207872748374939,-0.7202298045158386,0.2578935921192169
1789799308358067700,11.307067626953126,0.9954384565353394,-0.7064311504364014,0.17803923785686493
1789799308368040700,11.317040771484375,0.7930888533592224,-0.5886808633804321,0.12805037200450897
1789799308378013700,11.327013671875,0.5897080302238464,-0.5290896892547607,0.0984104573726654
1789799308387986700,11.336986572265625,0.399029940366745,-0.3417043387889862,0.12033120542764664
1789799308397959700,11.346959716796874,0.2543545067310333,-0.1338837593793869,0.12607723474502563
1789799308407932700,11.3569326171875,0.13148905336856842,0.04896940663456917,0.10790729522705078
1789799308417906700,11.36690673828125,0.007440072949975729,0.07566013932228088,0.07186806201934814
1789799308427880000,11.3768798828125,-0.10752619057893753,0.0022178804501891136,0.0487225316464901
1789799308437852700,11.386852783203125,-0.23247425258159637,-0.07675709575414658,0.031185083091259003
1789799308447825700,11.39682568359375,-0.362045556306839,-0.06214779242873192,0.012338957749307156
1789799308457798700,11.406798583984376,-0.4896479845046997,0.011532552540302277,-0.010012154467403889
1789799308467771600,11.416771728515625,-0.5970836281776428,0.0954170674085617,-0.019469838589429855
1789799308477745000,11.426744873046875,-0.6857115030288696,0.15362125635147095,-0.027061179280281067
1789799308487717600,11.436717529296875,-0.7667688131332397,0.15456320345401764,-0.050824299454689026
1789799308497690600,11.446690673828124,-0.8583895564079285,0.10748757421970367,-0.08546057343482971
1789799308507663600,11.45666357421875,-0.9452402591705322,0.09697555005550385,-0.1173897460103035
1789799308517636900,11.466636962890625,-1.0240448713302612,0.13030581176280975,-0.12703543901443481
1789799308527609900,11.47660986328125,-1.0965176820755005,0.1010400652885437,-0.11946088075637817
1789799308537582600,11.48658251953125,-1.1562880277633667,0.008077633567154408,-0.10124938935041428
1789799308547555600,11.4965556640625,-1.2395797967910767,-0.024528246372938156,-0.09138637036085129
1789799308557529600,11.506529541015626,-1.3797917366027832,0.061591990292072296,-0.11500381678342819
1789799308567502800,11.5165029296875,-1.5147268772125244,0.234966441988945,-0.1770932823419571
1789799308577475800,11.526475830078125,-1.603055715560913,0.3365015983581543,-0.2525017559528351
1789799308587448600,11.536448486328124,-1.6666557788848877,0.32150691747665405,-0.31462958455085754
1789799308597421600,11.546421630859374,-1.7447776794433594,0.28809037804603577,-0.3981252610683441
1789799308607394800,11.556394775390626,-1.836108684539795,0.24828943610191345,-0.523918867111206
1789799308617367800,11.566367919921875,-1.9089075326919556,0.16102777421474457,-0.6496858596801758
1789799308627340800,11.5763408203125,-1.9532310962677002,-0.019450662657618523,-0.6825317144393921
1789799308637313500,11.5863134765625,-1.9834496974945068,-0.1921398788690567,-0.647209644317627
1789799308647286500,11.59628662109375,-2.0609540939331055,-0.18569183349609375,-0.6495564579963684
1789799308657259800,11.606259765625,-2.1142349243164062,-0.058937884867191315,-0.7450973391532898
1789799308667232800,11.616232666015625,-2.0867278575897217,-0.02563372440636158,-0.8172447681427002
1789799308677206800,11.626206787109375,-2.068620204925537,-0.06528685986995697,-0.757045328617096
1789799308687179800,11.6361796875,-2.0841400623321533,-0.29583245515823364,-0.7128360867500305
1789799308697152500,11.646152587890626,-2.1538467407226562,-0.46379536390304565,-0.6784986257553101
1789799308707125800,11.656125732421875,-2.233018159866333,-0.5236895680427551,-0.6688305139541626
1789799308717098800,11.6660986328125,-2.220442533493042,-0.7194167375564575,-0.7175767421722412
1789799308727071700,11.67607177734375,-2.2062580585479736,-0.8329076170921326,-0.7473748922348022
1789799308737044700,11.686044677734374,-2.2399160861968994,-0.8603346943855286,-0.7076240181922913
1789799308747017700,11.696017822265626,-2.218426465988159,-1.0197645425796509,-0.6777026057243347
1789799308756990700,11.70599072265625,-2.2366256713867188,-1.0337001085281372,-0.6016770601272583
1789799308766964700,11.71596484375,-2.1630656719207764,-1.01339590549469,-0.5168495178222656
1789799308776937700,11.725937744140625,-2.046431303024292,-0.9699706435203552,-0.4374987781047821
1789799308786910700,11.73591064453125,-1.9044100046157837,-0.867997407913208,-0.3456708490848541
1789799308796883700,11.7458837890625,-1.7560365200042725,-0.7067059874534607,-0.2322593331336975
1789799308806856700,11.755856689453125,-1.5171256065368652,-0.7375552654266357,-0.20805492997169495
1789799308816829700,11.76582958984375,-1.2879315614700317,-0.7017560005187988,-0.17618781328201294
1789799308826802700,11.775802734375,-1.0543010234832764,-0.693000078201294,-0.15220524370670319
1789799308836775700,11.785775634765624,-0.8148348927497864,-0.7079113721847534,-0.12196478992700577
1789799308846748700,11.795748779296876,-0.580036997795105,-0.6264809370040894,-0.08230046182870865
1789799308856722700,11.80572265625,-0.3545607626438141,-0.4071027934551239,-0.022231003269553185
1789799308866695700,11.81569580078125,-0.11576734483242035,-0.13438443839550018,0.05121658369898796
1789799308876668700,11.825668701171875,0.12840111553668976,0.11037391424179077,0.11408502608537674
1789799308886641700,11.8356416015625,0.37904372811317444,0.34212830662727356,0.15258555114269257
1789799308896615000,11.845614990234376,0.6241917014122009,0.5739386677742004,0.17697158455848694
1789799308906587600,11.855587646484375,0.8756047487258911,0.7782390713691711,0.20971114933490753
1789799308916560600,11.865560546875,1.1001126766204834,0.9030582308769226,0.25145086646080017
1789799308926534700,11.87553466796875,1.2784451246261597,1.007804036140442,0.28236323595046997
1789799308936507600,11.885507568359374,1.4431310892105103,1.136609673500061,0.31396380066871643
1789799308946480600,11.895480712890626,1.631166696548462,1.2550610303878784,0.3467739224433899
1789799308956454000,11.905453857421875,1.8196016550064087,1.3689188957214355,0.3745701313018799
1789799308966426600,11.915426513671875,1.946304440498352,1.4815900325775146,0.4130735993385315
1789799308976399600,11.925399658203125,2.0416171550750732,1.5408029556274414,0.47788748145103455
1789799308986372600,11.93537255859375,2.151867389678955,1.5264594554901123,0.5492727160453796
1789799308996345900,11.945345947265626,2.282808303833008,1.4600220918655396,0.5758401155471802
1789799309006319900,11.95531982421875,2.4200334548950195,1.363300085067749,0.5578968524932861
1789799309016292900,11.96529296875,2.555063009262085,1.187419056892395,0.5246957540512085
1789799309026265600,11.975265625,2.672943115234375,0.9398822784423828,0.48004356026649475
1789799309036238600,11.985238525390624,2.75339412689209,0.6842768788337708,0.41038885712623596
1789799309046211800,11.9952119140625,2.7816929817199707,0.4539528489112854,0.35899651050567627
1789799309056184800,12.005184814453125,2.7975568771362305,0.24005867540836334,0.31831884384155273
1789799309066158800,12.015158935546875,2.758937358856201,0.10209600627422333,0.2994309067726135
1789799309076131800,12.0251318359375,2.661884307861328,-0.0020327907986938953,0.29374879598617554
1789799309086104600,12.0351044921875,2.569281816482544,-0.08324455469846725,0.28017494082450867
1789799309096077600,12.04507763671875,2.4801583290100098,-0.1469108909368515,0.2611061632633209
1789799309106050800,12.05505078125,2.350290536880493,-0.18797843158245087,0.2144308090209961
1789799309116023800,12.06502392578125,2.2332801818847656,-0.23669137060642242,0.1757795512676239
1789799309125996500,12.07499658203125,2.1698310375213623,-0.27496445178985596,0.15747271478176117
1789799309135970600,12.084970458984374,2.1143507957458496,-0.28826215863227844,0.16978344321250916
1789799309145943600,12.094943603515626,2.0230109691619873,-0.37810683250427246,0.19321154057979584
1789799309155916800,12.104916748046875,1.8808553218841553,-0.5290830135345459,0.19725528359413147
1789799309165889800,12.114889892578125,1.7086138725280762,-0.6335462927818298,0.1998009979724884
1789799309175862800,12.12486279296875,1.5130326747894287,-0.5963608622550964,0.1938251256942749
1789799309185835500,12.13483544921875,1.2965093851089478,-0.4637783169746399,0.17905177175998688
1789799309195809500,12.1448095703125,1.0251226425170898,-0.39635932445526123,0.1418178528547287
1789799309205782500,12.154782470703125,0.7736054062843323,-0.34499067068099976,0.10373811423778534
1789799309215755800,12.164755859375,0.5382256507873535,-0.31810101866722107,0.04580264165997505
1789799309225728800,12.174728759765625,0.34691479802131653,-0.29866844415664673,-0.013730726204812527
1789799309235701800,12.18470166015625,0.2073419988155365,-0.28281038999557495,-0.09205615520477295
1789799309245674500,12.194674560546876,0.06483758240938187,-0.18314851820468903,-0.15496614575386047
1789799309255648500,12.2046484375,-0.07064247876405716,-0.18670223653316498,-0.21180039644241333
1789799309265621800,12.214621826171875,-0.18725964426994324,-0.1062241718173027,-0.22349220514297485
1789799309275594800,12.2245947265625,-0.3103048801422119,0.07024167478084564,-0.20318694412708282
1789799309285567700,12.234567626953124,-0.4243920147418976,0.08706699311733246,-0.17874523997306824
1789799309295540700,12.244540771484376,-0.5228509306907654,0.011609517969191074,-0.14517156779766083
1789799309305514800,12.2545146484375,-0.6136258840560913,0.011925102211534977,-0.12192324548959732
1789799309315487700,12.26448779296875,-0.6793162226676941,0.084562286734581,-0.13906733691692352
1789799309325461200,12.274461181640625,-0.7272160649299622,0.12088780850172043,-0.1618618667125702
1789799309335434200,12.284434326171874,-0.7753940224647522,0.03861849755048752,-0.16916584968566895
1789799309345407000,12.294406982421876,-0.838697612285614,-0.07707454264163971,-0.17333929240703583
1789799309355380000,12.3043798828125,-0.9135382771492004,-0.15908712148666382,-0.18119961023330688
1789799309365354000,12.31435400390625,-1.0089763402938843,-0.1738562136888504,-0.18239110708236694
1789799309375327200,12.3243271484375,-1.1267163753509521,-0.14551591873168945,-0.17830395698547363
1789799309385300200,12.33430029296875,-1.2574516534805298,-0.10302944481372833,-0.1749768704175949
1789799309395273000,12.34427294921875,-1.3854166269302368,-0.05067010223865509,-0.17880943417549133
1789799309405246000,12.354245849609375,-1.5029515027999878,0.02755359746515751,-0.20570841431617737
1789799309415220000,12.364219970703125,-1.6028504371643066,0.10877788066864014,-0.2662942707538605
1789799309425193000,12.37419287109375,-1.6931939125061035,0.1606687754392624,-0.3392750024795532
1789799309435166200,12.384166259765625,-1.770875334739685,0.14647865295410156,-0.4005548655986786
1789799309445139200,12.39413916015625,-1.859109878540039,0.08400914818048477,-0.4350859522819519
1789799309455112000,12.40411181640625,-1.9397006034851074,-0.05073561519384384,-0.4519786536693573
1789799309465086000,12.4140859375,-2.0373947620391846,-0.2596723139286041,-0.45606765151023865
1789799309475059000,12.424058837890625,-2.154498815536499,-0.421852171421051,-0.4627692401409149
1789799309485032200,12.4340322265625,-2.2321324348449707,-0.3830728232860565,-0.49073243141174316
1789799309495005200,12.444005126953124,-2.2988944053649902,-0.2376660853624344,-0.541706919670105
1789799309504978200,12.453978271484376,-2.28043532371521,-0.11772263795137405,-0.5513966083526611
1789799309514952200,12.4639521484375,-2.2413668632507324,-0.10621564835309982,-0.5050546526908875
