time,seconds_elapsed,z,y,x
1789799297107893500,0.0568935546875,-0.15723565220832825,0.2928871512413025,0.2703540027141571
1789799297117865200,0.066865234375,-0.1112242192029953,0.17646628618240356,0.39104846119880676
1789799297127837400,0.07683740234375,-0.07135538011789322,0.010014921426773071,0.45901167392730713
1789799297137810400,0.086810546875,-0.0450151190161705,-0.15781721472740173,0.4740864932537079
1789799297147782400,0.096782470703125,-0.05214369669556618,-0.23462164402008057,0.4290359318256378
1789799297157754400,0.10675439453125,-0.09515561163425446,-0.1574259251356125,0.3380764424800873
1789799297167726300,0.116726318359375,-0.19474464654922485,-0.010113107971847057,0.24840876460075378
1789799297177699300,0.12669921875,-0.3328721523284912,0.06493477523326874,0.16664625704288483
1789799297187671300,0.13667138671875,-0.45423007011413574,0.00478600338101387,0.09852205216884613
1789799297197643300,0.146643310546875,-0.5593026876449585,-0.055361486971378326,0.053796663880348206
1789799297207615500,0.156615478515625,-0.6860432624816895,0.04001922532916069,0.00916288048028946
1789799297217587500,0.16658740234375,-0.7086092829704285,0.04192871227860451,-0.19584433734416962
1789799297227560200,0.176560302734375,-0.6006336212158203,0.04710108041763306,-0.6920140385627747
1789799297237532400,0.186532470703125,-0.33505892753601074,0.34770482778549194,-1.155713438987732
1789799297247504400,0.19650439453125,0.034398190677165985,0.691532552242279,-1.5528749227523804
1789799297257476400,0.206476318359375,0.42647141218185425,0.9313960075378418,-1.9006489515304565
1789799297267449300,0.216449462890625,0.8433700799942017,1.060858964920044,-2.200723171234131
1789799297277421600,0.226421630859375,1.3128600120544434,1.2944473028182983,-2.4456684589385986
1789799297287393300,0.236393310546875,1.758414387702942,1.5400416851043701,-2.6876509189605713
1789799297297365500,0.246365478515625,2.123687982559204,1.6330925226211548,-2.9406611919403076
1789799297307338500,0.25633837890625,2.3676798343658447,1.6210495233535767,-3.2106618881225586
1789799297317310200,0.266310302734375,2.5822837352752686,1.7695157527923584,-3.4281861782073975
1789799297327282200,0.2762822265625,2.751915693283081,1.997857928276062,-3.552724838256836
1789799297337254100,0.286254150390625,2.8384976387023926,2.2703824043273926,-3.5498523712158203
1789799297347227100,0.29622705078125,2.8273653984069824,2.4234299659729004,-3.385132312774658
1789799297357199000,0.30619921875,2.8308210372924805,2.3764538764953613,-3.0844802856445312
1789799297367171000,0.316171142578125,2.8153395652770996,2.075849771499634,-2.677304744720459
1789799297377143000,0.32614306640625,2.686443567276001,1.7094204425811768,-2.1073226928710938
1789799297387115000,0.336114990234375,2.274662971496582,1.7948966026306152,-0.9213685989379883
1789799297397088000,0.346087890625,1.3234935998916626,1.5895333290100098,0.49694040417671204
1789799297407060200,0.356060302734375,0.2947862148284912,0.024120965972542763,1.4016996622085571
1789799297417032000,0.366031982421875,-0.2930716872215271,-1.9847302436828613,1.9554579257965088
1789799297427004200,0.376004150390625,-0.5217074751853943,-3.403418779373169,2.5285537242889404
1789799297436977200,0.38597705078125,-0.7450004816055298,-4.402602195739746,3.0742557048797607
1789799297446949000,0.39594921875,-1.1502736806869507,-5.527548789978027,3.358614921569824
1789799297456921000,0.405921142578125,-1.674011468887329,-6.756922245025635,3.3686206340789795
1789799297466893300,0.415893310546875,-2.092965841293335,-7.956796169281006,3.1608119010925293
1789799297476866000,0.425865966796875,-2.189072847366333,-9.081368446350098,2.8733651638031006
1789799297486838000,0.435838134765625,-2.0184326171875,-9.632512092590332,2.584197759628296
1789799297496810200,0.445810302734375,-1.8086599111557007,-4.655370235443115,0.7201935648918152
1789799297506782000,0.455781982421875,-1.115824580192566,-2.924832344055176,0.4481198787689209
1789799297516755200,0.465755126953125,-0.17277802526950836,-1.9568331241607666,0.15191669762134552
1789799297526727200,0.47572705078125,0.6090197563171387,-1.2815594673156738,-0.09198877215385437
1789799297536699100,0.48569921875,1.3113822937011719,-0.7555587887763977,-0.21461188793182373
1789799297546671000,0.495671142578125,1.8659155368804932,-0.4816971719264984,-0.31799793243408203
1789799297556644000,0.50564404296875,1.9378947019577026,-0.5612396597862244,-0.38892295956611633
1789799297566616000,0.515615966796875,1.6836787462234497,-0.6922318339347839,-0.3288387358188629
1789799297576588000,0.525588134765625,1.2888898849487305,-0.6918677687644958,-0.1628873199224472
1789799297586560000,0.53556005859375,0.9240739345550537,-0.4192972183227539,0.012409672141075134
1789799297596532200,0.5455322265625,0.7642368674278259,-0.18396352231502533,0.13394036889076233
1789799297606505200,0.555505126953125,0.7978365421295166,-0.0660853385925293,0.16004666686058044
1789799297616477000,0.565476806640625,0.8227144479751587,0.033080391585826874,0.04742637649178505
1789799297626449200,0.57544921875,0.696913480758667,0.22397266328334808,-0.20342062413692474
1789799297636420900,0.5854208984375,0.48772934079170227,0.5409932136535645,-0.4673430919647217
1789799297646394000,0.59539404296875,0.3022576570510864,0.8533896803855896,-0.6608072519302368
1789799297656366000,0.605365966796875,0.1597527116537094,1.0400803089141846,-0.7481498718261719
1789799297666338000,0.615338134765625,0.06426113843917847,1.1136977672576904,-0.6863730549812317
1789799297676310000,0.62531005859375,0.01007859781384468,1.103641152381897,-0.5269442200660706
1789799297686283000,0.635282958984375,-0.035500723868608475,0.9190186858177185,-0.372426301240921
1789799297696255000,0.6452548828125,-0.14106257259845734,0.48897942900657654,-0.32105714082717896
1789799297706227000,0.65522705078125,-0.26519954204559326,0.10561520606279373,-0.3653125762939453
1789799297716199200,0.66519921875,-0.34923452138900757,0.0172648373991251,-0.4151480495929718
1789799297726172000,0.675171875,-0.3875707685947418,0.06649025529623032,-0.4707071781158447
1789799297736144100,0.68514404296875,-0.3937823474407196,0.23234981298446655,-0.5388268828392029
1789799297746116000,0.6951162109375,-0.3880343437194824,0.4507213532924652,-0.6322092413902283
1789799297756088000,0.705088134765625,-0.3684777021408081,0.6053586006164551,-0.7100436091423035
1789799297766061000,0.71506103515625,-0.3291831910610199,0.6456448435783386,-0.6715562343597412
1789799297776033300,0.725033203125,-0.3276739716529846,0.5271520018577576,-0.5157837271690369
1789799297786005000,0.7350048828125,-0.38819634914398193,0.3588961362838745,-0.303650438785553
1789799297795977200,0.744977294921875,-0.4636516869068146,0.2808418273925781,-0.061633531004190445
1789799297805949000,0.754948974609375,-0.531875729560852,0.2829471826553345,0.18839868903160095
1789799297815922000,0.764921875,-0.5995088219642639,0.21632952988147736,0.3841489851474762
1789799297825894100,0.77489404296875,-0.6425331234931946,0.017724819481372833,0.48749402165412903
1789799297835865900,0.784865966796875,-0.6222097873687744,-0.1133626252412796,0.5574227571487427
1789799297845838000,0.794838134765625,-0.5390415787696838,-0.16065016388893127,0.5750624537467957
1789799297855811000,0.80481103515625,-0.4130096137523651,-0.259488582611084,0.4732796847820282
1789799297865783000,0.814782958984375,-0.2456960827112198,-0.27740299701690674,0.3826138377189636
1789799297875755000,0.824755126953125,-0.09455475211143494,-0.2913190722465515,0.40239471197128296
1789799297885727200,0.834727294921875,-0.060941316187381744,-0.40470463037490845,0.4396098852157593
1789799297895700000,0.844699951171875,-0.08099305629730225,-0.49755358695983887,0.4922541677951813
1789799297905672200,0.854672119140625,-0.08103328198194504,-0.48253440856933594,0.5190320014953613
1789799297915644200,0.86464404296875,-0.0754222646355629,-0.4244551360607147,0.4837871789932251
1789799297925616000,0.8746162109375,-0.08907550573348999,-0.35314512252807617,0.4280523955821991
1789799297935589000,0.884589111328125,-0.12190588563680649,-0.3563379645347595,0.3629988431930542
1789799297945561000,0.89456103515625,-0.13825175166130066,-0.5195017457008362,0.2685856521129608
1789799297955533000,0.904532958984375,-0.14080598950386047,-0.7428842186927795,0.14703792333602905
1789799297965505000,0.914505126953125,-0.15344706177711487,-0.8726130723953247,0.023617714643478394
1789799297975478300,0.924478271484375,-0.1815492808818817,-0.8414123058319092,-0.16560067236423492
1789799297985450000,0.934449951171875,-0.206180602312088,-0.6584868431091309,-0.45574381947517395
1789799297995422200,0.944422119140625,-0.18750253319740295,-0.3849210739135742,-0.7704898118972778
1789799298005394000,0.954393798828125,-0.1357855200767517,-0.11863233149051666,-1.0104167461395264
1789799298015367000,0.964366943359375,-0.11863689869642258,-0.01603645272552967,-1.1397944688796997
1789799298025339100,0.974339111328125,-0.12521480023860931,-0.1182614341378212,-1.1762299537658691
1789799298035311000,0.98431103515625,-0.11284015327692032,-0.32126036286354065,-1.127170205116272
1789799298045283000,0.994282958984375,-0.06648494303226471,-0.551284909248352,-1.0244805812835693
1789799298055256000,1.004256103515625,-0.019747000187635422,-0.7452687621116638,-0.8831554651260376
1789799298065228000,1.01422802734375,-0.0015621436759829521,-0.8334559798240662,-0.7362777590751648
1789799298075200000,1.024199951171875,0.0036446023732423782,-0.7486127614974976,-0.6040830016136169
1789799298085172200,1.034172119140625,0.0834803432226181,-0.5140194892883301,-0.508519172668457
1789799298095145000,1.04414501953125,0.19656828045845032,-0.30208590626716614,-0.47230255603790283
1789799298105117200,1.0541171875,0.2541241943836212,-0.25995737314224243,-0.4275914132595062
1789799298115089200,1.064089111328125,0.23593933880329132,-0.4343917667865753,-0.3173288106918335
1789799298125061000,1.07406103515625,0.22274892032146454,-0.6518784761428833,-0.19067566096782684
1789799298135034000,1.0840341796875,0.2613213360309601,-0.7529934048652649,-0.08060189336538315
1789799298145006000,1.094006103515625,0.31686368584632874,-0.7768792510032654,-0.0013753855600953102
1789799298154978000,1.10397802734375,0.35072019696235657,-0.7662169933319092,0.040755823254585266
1789799298164950000,1.113949951171875,0.35601112246513367,-0.759058952331543,0.05557950958609581
1789799298174923300,1.12392333984375,0.34803149104118347,-0.7942529320716858,0.02658674120903015
1789799298184895000,1.13389501953125,0.3591158986091614,-0.8662074208259583,-0.041628263890743256
1789799298194867200,1.1438671875,0.40224337577819824,-0.9462524652481079,-0.14429180324077606
1789799298204839000,1.1538388671875,0.44144853949546814,-1.0123194456100464,-0.27164575457572937
1789799298214812200,1.163812255859375,0.43060389161109924,-1.0230677127838135,-0.42624226212501526
1789799298224784100,1.1737841796875,0.39620280265808105,-1.018251895904541,-0.6448197364807129
1789799298234756000,1.183756103515625,0.38073116540908813,-0.9772712588310242,-0.8933254480361938
1789799298244728000,1.19372802734375,0.451719731092453,-0.8496800661087036,-1.0425702333450317
1789799298254701000,1.203701171875,0.5188074111938477,-0.7043849229812622,-1.130211591720581
1789799298264673000,1.213673095703125,0.523299515247345,-0.7281661629676819,-1.2233734130859375
1789799298274645000,1.22364501953125,0.5164362788200378,-0.8366742730140686,-1.2755515575408936
1789799298284617200,1.2336171875,0.4873253405094147,-0.9731139540672302,-1.2719027996063232
1789799298294590000,1.24358984375,0.4700342118740082,-1.0210118293762207,-1.203619122505188
1789799298304562200,1.253562255859375,0.4367905855178833,-0.9348147511482239,-1.1548733711242676
1789799298314535000,1.263534912109375,0.4069501459598541,-0.8264403343200684,-1.1545337438583374
1789799298324507000,1.2735068359375,0.4118514060974121,-0.6550197601318359,-1.1475987434387207
1789799298334478800,1.283478759765625,0.4230755567550659,-0.4686139225959778,-1.1169052124023438
1789799298344451800,1.293451904296875,0.42489057779312134,-0.36951062083244324,-1.0489628314971924
1789799298354424000,1.303424072265625,0.38321635127067566,-0.45362338423728943,-0.9376025199890137
1789799298364395800,1.313395751953125,0.3209253251552582,-0.6637411117553711,-0.7731614708900452
1789799298374369000,1.323369140625,0.2634252607822418,-0.9132196307182312,-0.5488543510437012
1789799298384341000,1.333341064453125,0.23589591681957245,-1.2213138341903687,-0.30273401737213135
1789799298394313000,1.34331298828125,0.26559361815452576,-1.5499775409698486,-0.07243558019399643
1789799298404285000,1.353284912109375,0.34971168637275696,-1.9377249479293823,0.15715527534484863
1789799298414258000,1.3632578125,0.49178653955459595,-2.5121123790740967,0.3934786021709442
1789799298424230000,1.37322998046875,0.6354852318763733,-3.2138893604278564,0.6766331791877747
1789799298434201900,1.383201904296875,0.7337659597396851,-3.8608946800231934,1.015321969985962
1789799298444174000,1.393174072265625,0.7858424782752991,-4.454627513885498,1.3720269203186035
1789799298454146800,1.403146728515625,0.8345663547515869,-5.0763349533081055,1.686495304107666
1789799298464119000,1.413119140625,0.9546495676040649,-5.622262477874756,1.9312152862548828
1789799298474091000,1.423091064453125,1.1650995016098022,-5.97468900680542,2.121044874191284
1789799298484063000,1.43306298828125,1.4758244752883911,-6.205641746520996,2.268951892852783
1789799298494036000,1.443035888671875,1.8480126857757568,-6.32791805267334,2.3368945121765137
1789799298504008000,1.453008056640625,2.1921398639678955,-6.288731098175049,2.250007390975952
1789799298513980000,1.46297998046875,2.3656840324401855,-5.920804977416992,1.9801793098449707
1789799298523952000,1.4729521484375,2.4490442276000977,-5.21741247177124,1.6174274682998657
1789799298533925000,1.482925048828125,2.857024669647217,-5.003654479980469,1.2162866592407227
1789799298543896800,1.492896728515625,3.1917788982391357,-5.1250152587890625,0.9745013117790222
1789799298553869000,1.502869140625,3.3415987491607666,-5.2845778465271,0.9340793490409851
1789799298563840800,1.5128408203125,3.32559871673584,-5.236108779907227,0.9878639578819275
1789799298573814000,1.52281396484375,3.1971232891082764,-4.9608154296875,1.0081777572631836
1789799298583786000,1.532785888671875,3.094590187072754,-4.4093499183654785,0.9651963710784912
1789799298593758000,1.542758056640625,3.0047082901000977,-3.4831650257110596,0.8076446056365967
1789799298603730000,1.55272998046875,2.8317856788635254,-2.4355499744415283,0.4874413013458252
1789799298613703000,1.562702880859375,2.6284990310668945,-1.5362459421157837,0.09962539374828339
1789799298623675000,1.5726748046875,2.4339160919189453,-0.8553633689880371,-0.26838645339012146
1789799298633646800,1.582646728515625,2.2530133724212646,-0.48376718163490295,-0.539847731590271
1789799298643619000,1.592619140625,2.0855162143707275,-0.38147929310798645,-0.6480190753936768
1789799298653591800,1.602591796875,1.9895339012145996,-0.3097563683986664,-0.5942493677139282
1789799298663564000,1.61256396484375,1.9774550199508667,-0.10697934776544571,-0.44981083273887634
1789799298673536000,1.622535888671875,2.0682008266448975,0.34809228777885437,-0.30999648571014404
1789799298683508000,1.632508056640625,2.141479969024658,0.9568883180618286,-0.3047836124897003
1789799298693481000,1.64248095703125,2.0870444774627686,1.3365675210952759,-0.4792422354221344
1789799298703453200,1.652453125,1.9409058094024658,1.3133981227874756,-0.6440679430961609
1789799298713425000,1.6624248046875,1.7770726680755615,0.9810450673103333,-0.6854451894760132
1789799298723397000,1.672397216796875,1.6337664127349854,0.6040965914726257,-0.6016050577163696
1789799298733370000,1.6823701171875,1.6108334064483643,0.5537378191947937,-0.4128985106945038
1789799298743341800,1.692341796875,1.6516221761703491,0.8986078500747681,-0.23176079988479614
1789799298753314000,1.70231396484375,1.5838418006896973,1.34227454662323,-0.16422435641288757
1789799298763285800,1.71228564453125,1.4587481021881104,1.5167187452316284,-0.16820845007896423
1789799298773259000,1.722259033203125,1.3219729661941528,1.3937523365020752,-0.11554950475692749
1789799298783231000,1.73223095703125,1.2331695556640625,1.0073832273483276,0.020256537944078445
1789799298793203000,1.742202880859375,1.209375262260437,0.448713481426239,0.1491793692111969
1789799298803175000,1.7521748046875,1.2336331605911255,-0.001656765933148563,0.21433639526367188
1789799298813148000,1.76214794921875,1.3423840999603271,0.21155670285224915,-0.11848070472478867
1789799298823120000,1.772119873046875,1.4811536073684692,0.4089365005493164,-0.5388357639312744
1789799298833092000,1.782092041015625,1.441426396369934,0.22507771849632263,-0.4169418215751648
1789799298843065000,1.792065185546875,1.290924310684204,-0.12429104000329971,0.035848941653966904
1789799298853036800,1.802036865234375,1.125808835029602,-0.45581677556037903,0.5438080430030823
1789799298863009000,1.812009033203125,1.0075252056121826,-0.5156351923942566,0.9400041103363037
1789799298872981000,1.82198095703125,0.9496495723724365,-0.3604011833667755,1.2565865516662598
1789799298882954000,1.8319541015625,0.9363196492195129,-0.2247934490442276,1.4306927919387817
1789799298892926000,1.841926025390625,1.0042301416397095,0.12269339710474014,1.2236355543136597
1789799298902898200,1.851898193359375,1.0686973333358765,0.3570099174976349,0.7428293824195862
1789799298912870000,1.861869873046875,1.019925832748413,0.5050411820411682,0.34665730595588684
1789799298922843000,1.8718427734375,0.9378045797348022,0.42980504035949707,0.10686253011226654
1789799298932815000,1.881815185546875,0.8145350813865662,0.1934414952993393,0.13903804123401642
1789799298942786800,1.891786865234375,0.7825487852096558,-0.025911729782819748,0.4361899495124817
1789799298952759000,1.901759033203125,0.8371017575263977,-0.13384565711021423,0.7544190287590027
1789799298962732000,1.91173193359375,0.914836585521698,-0.27819934487342834,0.9063722491264343
1789799298972704000,1.9217041015625,0.9993711709976196,-0.38947951793670654,0.8615424633026123
1789799298982676000,1.931676025390625,0.9551323652267456,-0.4879731237888336,0.8185707926750183
1789799298992648000,1.94164794921875,0.722813606262207,-0.5709707736968994,0.7743505835533142
1789799299002621000,1.951620849609375,0.30061617493629456,-0.7087368965148926,0.82525235414505
1789799299012593200,1.96159326171875,-0.1959557831287384,-0.8029872179031372,0.970051109790802
1789799299022564900,1.97156494140625,-0.5412558317184448,-0.8526706695556641,1.0841724872589111
1789799299032537000,1.981537109375,-0.6602658629417419,-0.9570889472961426,1.1518268585205078
1789799299042510000,1.991510009765625,-0.680036723613739,-1.0390924215316772,1.181973934173584
1789799299052481800,2.001481689453125,-0.7743844985961914,-1.1915173530578613,1.4120603799819946
1789799299062454000,2.0114541015625,-1.313477873802185,-1.7239388227462769,2.346677780151367
1789799299072427000,2.021427001953125,-1.5280834436416626,-1.6622443199157715,1.629235029220581
1789799299082399000,2.03139892578125,-1.4526103734970093,-0.7469409704208374,0.3078572750091553
1789799299092371000,2.041370849609375,-1.5377655029296875,-0.21480832993984222,0.17035242915153503
1789799299102343000,2.051343017578125,-1.8714001178741455,-0.5855997800827026,0.42230224609375
1789799299112316000,2.06131591796875,-1.7493265867233276,-1.1859588623046875,0.770418643951416
1789799299122287900,2.071287841796875,-1.2459909915924072,-1.50749933719635,1.2646161317825317
1789799299132259800,2.081259765625,-0.6379377245903015,-1.7787078619003296,1.2375242710113525
1789799299142232000,2.091232177734375,-0.24701975286006927,-1.518689513206482,1.2243305444717407
1789799299152205000,2.101205078125,0.015741832554340363,-1.382712483406067,1.089214563369751
1789799299162176800,2.1111767578125,0.11271762102842331,-1.0853793621063232,1.0199675559997559
1789799299172149000,2.12114892578125,0.09961406886577606,-0.7779148817062378,0.8572086691856384
1789799299182121000,2.131120849609375,0.1723015308380127,-0.5717914700508118,0.6652346253395081
1789799299192094000,2.141093994140625,0.1803128570318222,-0.4834720194339752,0.5248734951019287
1789799299202066000,2.15106591796875,0.029468510299921036,-0.31008487939834595,0.4411492943763733
1789799299212038100,2.1610380859375,0.016462698578834534,-0.24089780449867249,0.3242778182029724
1789799299222011000,2.171010986328125,0.24811086058616638,-0.09563136845827103,0.23546470701694489
1789799299231982800,2.18098291015625,0.7798975110054016,0.000495434389449656,0.17273634672164917
1789799299241955000,2.190955078125,1.4342246055603027,-0.003614960703998804,0.1772586703300476
1789799299251926800,2.2009267578125,1.9080637693405151,-0.031158968806266785,0.20097678899765015
1789799299261900000,2.210900146484375,2.0907680988311768,-0.18698334693908691,0.18688014149665833
1789799299271872000,2.2208720703125,1.7242357730865479,-0.3043714761734009,0.3147265315055847
1789799299281844000,2.230843994140625,0.8598917126655579,-0.5309467315673828,0.4479491412639618
1789799299291816000,2.24081591796875,0.29523101449012756,-0.7165163159370422,0.39878347516059875
1789799299301789000,2.250788818359375,-0.15802443027496338,-0.7093100547790527,0.29251110553741455
1789799299311761000,2.260760986328125,-0.6335789561271667,-0.5892635583877563,0.21534626185894012
1789799299321733000,2.270733154296875,-1.082727313041687,-0.6117196083068848,0.12472502142190933
1789799299331706000,2.2807060546875,-1.2053650617599487,-0.8742274045944214,0.0448477640748024
1789799299341678000,2.290677978515625,-1.273242473602295,-1.0586713552474976,-0.033098697662353516
1789799299351650000,2.300650146484375,-1.4434131383895874,-1.1570874452590942,-0.1964370310306549
1789799299361622000,2.3106220703125,-1.7877429723739624,-1.2556763887405396,-0.4480725824832916
1789799299371595300,2.32059521484375,-2.338587999343872,-1.3476099967956543,-0.5120486617088318
1789799299381567000,2.33056689453125,-2.7768049240112305,-1.3504852056503296,-0.4212883710861206
1789799299391539200,2.340539306640625,-2.8447682857513428,-1.5285470485687256,-0.3811044692993164
1789799299401511200,2.35051123046875,-3.1711583137512207,-1.8169829845428467,-0.4402986764907837
1789799299411484000,2.36048388671875,-3.80414080619812,-1.9511765241622925,-0.255985289812088
1789799299421456100,2.3704560546875,-4.103834629058838,-2.2502875328063965,-0.275482177734375
1789799299431428000,2.380427978515625,-3.877305746078491,-2.320155620574951,-0.2958526909351349
1789799299441401000,2.390401123046875,-3.4808108806610107,-2.252030372619629,-0.2914801836013794
1789799299451373000,2.400373046875,-3.2631680965423584,-2.464836835861206,-0.2434505969285965
1789799299461345300,2.41034521484375,-2.80625319480896,-2.4618802070617676,-0.012006998062133789
1789799299471317000,2.42031689453125,-2.2889766693115234,-2.2513818740844727,0.153509259223938
1789799299481290000,2.4302900390625,-1.7740572690963745,-1.8975656032562256,-0.008139954879879951
1789799299491262200,2.44026220703125,-1.436880111694336,-1.8511797189712524,-0.01884027011692524
1789799299501234200,2.450234130859375,-1.2973577976226807,-1.822394847869873,-0.022250045090913773
1789799299511206100,2.4602060546875,-1.1889152526855469,-1.6006571054458618,-0.1349576860666275
1789799299521179100,2.47017919921875,-1.0811764001846313,-1.3155763149261475,-0.4000314176082611
1789799299531151000,2.480151123046875,-0.9923682808876038,-0.767839252948761,-0.7588689923286438
1789799299541123000,2.490123046875,-0.80191969871521,-0.0362483412027359,-1.1949093341827393
1789799299551096300,2.500096435546875,-0.5048427581787109,0.4831431806087494,-1.5001838207244873
1789799299561068000,2.510068115234375,-0.17216938734054565,0.7219992876052856,-1.581871509552002
1789799299571040300,2.520040283203125,0.26827991008758545,0.8352046608924866,-1.5175657272338867
1789799299581012000,2.530011962890625,0.6971949338912964,0.7373484373092651,-1.2487512826919556
1789799299590985000,2.53998486328125,1.0707855224609375,0.5060856342315674,-0.9239407777786255
1789799299600957200,2.549957275390625,1.3353114128112793,0.3109676241874695,-0.665349543094635
1789799299610929000,2.559928955078125,1.5214554071426392,0.3574296534061432,-0.5621954202651978
1789799299620902100,2.569902099609375,1.6887919902801514,0.42738914489746094,-0.6479476094245911
1789799299630874000,2.5798740234375,1.7556508779525757,0.4206092655658722,-0.6944403052330017
1789799299640846000,2.58984619140625,1.791799783706665,0.7411016225814819,-0.7304151654243469
1789799299650818000,2.599818115234375,1.817864179611206,1.1269268989562988,-0.8511810302734375
1789799299660791000,2.609791015625,1.888543963432312,1.2795634269714355,-0.91531902551651
1789799299670763000,2.619762939453125,2.0101096630096436,1.519897699356079,-0.9644405245780945
1789799299680735200,2.6297353515625,2.308854341506958,2.1205637454986572,-1.1419535875320435
1789799299690707000,2.63970703125,2.682925224304199,3.2196712493896484,-1.4178102016448975
1789799299700680000,2.649679931640625,3.0335285663604736,4.0525126457214355,-1.6592175960540771
1789799299710652200,2.659652099609375,3.2451014518737793,3.751823663711548,-1.455545425415039
1789799299720623900,2.669623779296875,3.384732723236084,3.159059762954712,-1.2097729444503784
1789799299730597000,2.67959716796875,3.842155694961548,3.5702879428863525,-1.405863881111145
1789799299740569000,2.689569091796875,4.507944583892822,4.358955383300781,-1.840006709098816
1789799299750541000,2.699541015625,4.688509464263916,4.638745307922363,-2.272357940673828
1789799299760513000,2.709512939453125,4.408639907836914,4.366207122802734,-2.284266471862793
1789799299770486000,2.719486083984375,3.73858642578125,3.8499529361724854,-1.9943174123764038
1789799299780458000,2.7294580078125,3.012709140777588,2.623819351196289,-1.4945191144943237
1789799299790430000,2.739429931640625,2.498163938522339,1.4617674350738525,-1.005115032196045
1789799299800402200,2.749402099609375,2.1557369232177734,0.9199758768081665,-0.7778897881507874
1789799299810375000,2.759375,1.8423563241958618,0.5596659183502197,-0.5612453818321228
1789799299820347100,2.76934716796875,1.4199573993682861,0.4508322775363922,-0.3636000454425812
1789799299830319000,2.779319091796875,0.9811237454414368,0.46013307571411133,-0.2606523633003235
1789799299840292000,2.7892919921875,0.7229443788528442,0.37081459164619446,-0.2748279571533203
1789799299850264000,2.79926416015625,0.6641636490821838,0.09587890654802322,-0.4233253002166748
1789799299860236300,2.809236328125,1.0652395486831665,-0.696052610874176,-0.795508861541748
1789799299870208000,2.8192080078125,2.0254428386688232,-2.3403801918029785,-1.217223048210144
1789799299880181000,2.829180908203125,3.14213490486145,-3.9428906440734863,-1.6745734214782715
1789799299890153200,2.8391533203125,3.3246073722839355,-3.506035804748535,-1.5973294973373413
1789799299900125000,2.849125,3.2365477085113525,-2.713360548019409,-0.9502734541893005
1789799299910098200,2.85909814453125,2.8247547149658203,-0.6185056567192078,0.10258309543132782
1789799299920070100,2.869070068359375,2.1159157752990723,1.4311083555221558,0.8659002184867859
1789799299930042000,2.8790419921875,1.5710982084274292,0.16544075310230255,1.7556172609329224
1789799299940014000,2.88901416015625,0.7788069844245911,-0.7195518016815186,2.1668670177459717
1789799299949987000,2.898987060546875,0.41008490324020386,-0.9668364524841309,2.0234198570251465
1789799299959959000,2.908958984375,0.3031894862651825,-0.9799296259880066,1.6114808320999146
1789799299969931000,2.918930908203125,0.1614254266023636,-0.8865839838981628,0.9487265944480896
1789799299979904300,2.928904296875,-0.07746337354183197,-0.8520591259002686,0.2843955159187317
1789799299989876000,2.9388759765625,-0.33703798055648804,-0.5354239344596863,-0.19014598429203033
1789799299999848200,2.94884814453125,-0.4181232452392578,0.00986200850456953,-0.3081740736961365
1789799300009820000,2.95881982421875,0.20707061886787415,1.0866754055023193,-0.5879801511764526
1789799300019793200,2.968793212890625,0.23765474557876587,0.7857269644737244,-0.33825141191482544
1789799300029765000,2.97876513671875,0.284349262714386,0.8827328681945801,-0.42737144231796265
1789799300039737000,2.988737060546875,0.4637855887413025,0.6323702931404114,-0.6375865936279297
1789799300049710000,2.9987099609375,0.6005099415779114,0.26580753922462463,-0.5542808175086975
1789799300059682000,3.00868212890625,0.8219047784805298,0.1730460226535797,-0.293002188205719
1789799300069654000,3.018654052734375,1.0634422302246094,0.24616976082324982,-0.0010992293246090412
1789799300079626000,3.0286259765625,1.2331225872039795,0.37424570322036743,0.1430446356534958
1789799300089599200,3.03859912109375,1.25040864944458,0.3600577116012573,0.16818220913410187
1789799300099571000,3.048571044921875,0.8733153343200684,0.3564193844795227,0.41419583559036255
1789799300109543200,3.058543212890625,0.5323929190635681,0.5935906767845154,0.7133370041847229
1789799300119516200,3.06851611328125,0.5174941420555115,0.6203907132148743,0.6501578688621521
1789799300129488000,3.07848779296875,0.7734569311141968,0.07430154085159302,0.4360341727733612
1789799300139460000,3.088460205078125,1.0296168327331543,-0.3157331645488739,0.29404839873313904
1789799300149432000,3.09843212890625,1.026516079902649,-0.47274407744407654,-0.11548558622598648
1789799300159405000,3.108405029296875,0.8041474223136902,-0.5393853187561035,-0.6759210824966431
1789799300169377000,3.118376953125,0.5783715844154358,-0.014402225613594055,-0.6982719302177429
1789799300179349200,3.128349365234375,0.2889130413532257,0.8620193600654602,-0.45720162987709045
1789799300189322000,3.138322021484375,-0.2372298389673233,0.9898372888565063,-0.5639291405677795
1789799300199294200,3.148294189453125,-0.7635987401008606,0.10777995735406876,-0.9202075004577637
1789799300209266200,3.15826611328125,-1.2406785488128662,-0.8016484975814819,-1.2372740507125854
1789799300219238100,3.168238037109375,-1.6121773719787598,-0.9205712080001831,-1.314746379852295
1789799300229211100,3.178211181640625,-1.9135133028030396,-0.4341837167739868,-1.1163874864578247
1789799300239183000,3.18818310546875,-2.0970163345336914,0.2070448249578476,-0.8053361773490906
1789799300249155000,3.198155029296875,-2.0935826301574707,0.6416378021240234,-0.6101096868515015
1789799300259127000,3.208126953125,-1.8316261768341064,1.1215492486953735,-0.43434959650039673
1789799300269100300,3.218100341796875,-1.885305404663086,0.9568518996238708,-0.6259735822677612
1789799300279072000,3.228072021484375,-2.2325141429901123,0.5927672982215881,-0.5528861284255981
1789799300289044200,3.238044189453125,-2.040233850479126,0.5271227955818176,-0.4777599275112152
1789799300299017200,3.248017333984375,-2.0201258659362793,0.8509795069694519,-0.3656492233276367
1789799300308989000,3.257989013671875,-2.1299357414245605,0.9995687007904053,-0.31012070178985596
1789799300318960600,3.267960693359375,-2.43135404586792,1.0699098110198975,-0.18770933151245117
1789799300328933400,3.277933349609375,-2.7304041385650635,1.1164714097976685,-0.023792825639247894
1789799300338905600,3.287905517578125,-2.9561004638671875,0.9906336069107056,0.1165178194642067
1789799300348877600,3.297877685546875,-3.1952764987945557,0.7624770998954773,0.1594993770122528
1789799300358849500,3.307849609375,-3.295745372772217,0.5467950701713562,0.16446895897388458
1789799300368822500,3.317822509765625,-3.433269739151001,0.2618600130081177,0.09698552638292313
1789799300378794800,3.327794677734375,-3.43540096282959,-0.12877202033996582,0.0373058095574379
1789799300388766500,3.337766357421875,-3.1901473999023438,-0.42398369312286377,-0.1131790354847908
1789799300398739500,3.347739501953125,-2.781662702560425,-0.4373415410518646,-0.2499653846025467
1789799300408711700,3.357711669921875,-2.4517476558685303,-0.27199414372444153,-0.3089216351509094
1789799300418683600,3.36768359375,-2.1606929302215576,-0.17348448932170868,-0.2521451711654663
1789799300428655600,3.377655517578125,-1.8042000532150269,-0.1590682715177536,-0.1663261353969574
1789799300438628600,3.387628662109375,-1.414949893951416,-0.21325266361236572,-0.12202898412942886
1789799300448600600,3.3976005859375,-1.1025727987289429,-0.23682749271392822,-0.09121328592300415
1789799300458572500,3.407572509765625,-0.8226308822631836,-0.25451189279556274,-0.04548200964927673
1789799300468545800,3.4175458984375,-0.5912290811538696,-0.2898578941822052,-0.011258525773882866
1789799300478517500,3.427517578125,-0.3912469744682312,-0.3085609972476959,0.01555444672703743
1789799300488489700,3.43748974609375,-0.2085069864988327,-0.1749478131532669,0.05588216334581375
1789799300498461400,3.44746142578125,-0.04706626757979393,-0.0028691692277789116,0.0655471682548523
1789799300508434400,3.457434326171875,0.07902296632528305,0.21714121103286743,0.07383599132299423
1789799300518406700,3.46740673828125,0.4706038534641266,0.3613465428352356,0.08121655136346817
1789799300528378400,3.47737841796875,0.5275830030441284,0.6098498106002808,0.08992934972047806
1789799300538351600,3.4873515625,0.6301920413970947,0.7781409025192261,0.07007414102554321
1789799300548323600,3.497323486328125,0.9016659259796143,0.8482539653778076,0.0064597465097904205
1789799300558295600,3.507295654296875,1.2090760469436646,0.9203874468803406,-0.07004553824663162
1789799300568268500,3.5172685546875,1.5106894969940186,1.0297867059707642,-0.11124943196773529
1789799300578240500,3.527240478515625,1.7597917318344116,1.0199533700942993,-0.12950994074344635
1789799300588212500,3.53721240234375,1.9254826307296753,0.88273024559021,-0.1542496383190155
1789799300598184700,3.547184814453125,2.1631479263305664,0.519717276096344,-0.22143253684043884
1789799300608157700,3.55715771484375,2.599062919616699,-0.022726504132151604,-0.3255466818809509
1789799300618129400,3.56712939453125,3.0742781162261963,-0.2086738497018814,-0.305149108171463
1789799300628101600,3.5771015625,3.4010393619537354,-0.07395332306623459,-0.2561506927013397
1789799300638074600,3.58707470703125,3.567193031311035,0.1271866112947464,-0.22026793658733368
1789799300648046600,3.597046630859375,3.4395346641540527,0.33727461099624634,-0.16486991941928864
1789799300658018600,3.6070185546875,3.186521291732788,0.4103875160217285,-0.07705525308847427
1789799300667991600,3.616991455078125,3.0149309635162354,0.26576563715934753,-0.02924751490354538
1789799300677963500,3.626963623046875,2.9095189571380615,0.11210966855287552,0.028248263522982597
1789799300687935500,3.636935546875,2.835043430328369,-0.12595589458942413,0.07230760157108307
1789799300697907700,3.64690771484375,2.7678191661834717,-0.4406725764274597,0.046618614345788956
1789799300707880400,3.65688037109375,2.67216420173645,-0.6467857956886292,0.0699942484498024
1789799300717852700,3.666852783203125,2.5184476375579834,-0.5794293880462646,0.16686074435710907
1789799300727824600,3.67682470703125,2.3838582038879395,-0.5527234673500061,0.2661527097225189
1789799300737797400,3.68679736328125,2.2817068099975586,-0.5481098294258118,0.32673388719558716
1789799300747769600,3.69676953125,2.182838201522827,-0.5564263463020325,0.35748833417892456
1789799300757741600,3.706741455078125,2.0551280975341797,-0.6609499454498291,0.3487631678581238
1789799300767714600,3.716714599609375,1.8868423700332642,-0.6914122104644775,0.3922879993915558
1789799300777686500,3.7266865234375,1.6979252099990845,-0.679259181022644,0.4719126522541046
1789799300787658800,3.73665869140625,1.5117257833480835,-0.7056950330734253,0.561122715473175
1789799300797630500,3.74663037109375,1.2889645099639893,-0.761012852191925,0.6087020635604858
1789799300807603700,3.756603759765625,1.094720482826233,-0.6578406691551208,0.6371166706085205
1789799300817575700,3.76657568359375,0.9102874398231506,-0.5196223258972168,0.6044213175773621
1789799300827547600,3.776547607421875,0.7858312129974365,-0.34217774868011475,0.49257996678352356
1789799300837520600,3.786520751953125,0.5627662539482117,-0.15487048029899597,0.34034690260887146
1789799300847492600,3.79649267578125,0.3700980246067047,0.14259368181228638,0.21249254047870636
1789799300857464600,3.806464599609375,0.20933012664318085,0.2337619811296463,0.08747696876525879
1789799300867437600,3.8164375,0.037315744906663895,0.2119821161031723,-0.007936367765069008
1789799300877409800,3.826409912109375,-0.11597617715597153,0.20111915469169617,-0.0975705161690712
1789799300887381500,3.836381591796875,-0.26838594675064087,0.19844427704811096,-0.19073933362960815
1789799300897353700,3.846353759765625,-0.4032225012779236,0.20263269543647766,-0.2616872787475586
1789799300907326700,3.85632666015625,-0.5139594078063965,0.21424062550067902,-0.3057554066181183
1789799300917298400,3.86629833984375,-0.5993301272392273,0.18536551296710968,-0.3416174054145813
1789799300927270700,3.876270751953125,-0.6576954126358032,0.14123985171318054,-0.3657674789428711
1789799300937243600,3.88624365234375,-0.7040628790855408,0.1102638989686966,-0.3674424886703491
1789799300947215600,3.896215576171875,-0.7479411363601685,0.0736377090215683,-0.3600437045097351
1789799300957187600,3.9061875,-0.7941349148750305,0.006760827731341124,-0.3396499752998352
1789799300967160600,3.91616064453125,-0.8578752875328064,-0.023843687027692795,-0.3060675263404846
1789799300977132500,3.926132568359375,-0.9385262727737427,0.023628797382116318,-0.2707279324531555
1789799300987104800,3.936104736328125,-1.0143866539001465,0.1380768120288849,-0.2444116175174713
1789799300997077500,3.946077392578125,-1.0893805027008057,0.235357865691185,-0.2409796118736267
1789799301007049500,3.956049560546875,-1.206878900527954,0.29100301861763,-0.2730502188205719
1789799301017021700,3.966021728515625,-1.338060975074768,0.302877813577652,-0.309249609708786
1789799301026993400,3.975993408203125,-1.445207953453064,0.28705650568008423,-0.3402131199836731
1789799301036966700,3.985966552734375,-1.5615042448043823,0.2604514956474304,-0.3490371108055115
1789799301046938600,3.995938720703125,-1.6358535289764404,0.25504767894744873,-0.36247673630714417
1789799301056910600,4.00591064453125,-1.7227470874786377,0.26031121611595154,-0.38157960772514343
1789799301066883600,4.015883544921875,-1.816887617111206,0.27899035811424255,-0.41813334822654724
1789799301076855600,4.02585546875,-1.8925933837890625,0.1972196102142334,-0.48796916007995605
1789799301086827500,4.03582763671875,-1.9437021017074585,0.012915284372866154,-0.5589583516120911
1789799301096800500,4.045800537109375,-2.006988048553467,-0.2016226202249527,-0.6029902696609497
1789799301106772700,4.055772705078125,-2.0963025093078613,-0.376120388507843,-0.6408162117004395
1789799301116744400,4.065744384765625,-2.09458589553833,-0.5525473952293396,-0.6676767468452454
1789799301126716700,4.075716552734375,-2.141416549682617,-0.6785005331039429,-0.6229105591773987
1789799301136689700,4.085689697265625,-2.156571865081787,-0.8282780647277832,-0.5849794745445251
1789799301146661600,4.09566162109375,-2.238438844680786,-0.8713030219078064,-0.5345051288604736
1789799301156633600,4.105633544921875,-2.3040406703948975,-0.8646771907806396,-0.5141051411628723
1789799301166606600,4.115606689453125,-2.374725103378296,-0.8415119647979736,-0.5029441118240356
1789799301176578600,4.12557861328125,-2.4304287433624268,-0.8437627553939819,-0.43640315532684326
1789799301186550500,4.135550537109375,-2.4140775203704834,-0.9490532279014587,-0.32163795828819275
1789799301196523800,4.145523681640625,-2.3637921810150146,-1.1139711141586304,-0.2208610326051712
1789799301206495500,4.15549560546875,-2.3412930965423584,-1.1934704780578613,-0.1402122527360916
1789799301216467700,4.1654677734375,-2.331491708755493,-1.1141386032104492,-0.06102235987782478
1789799301226440700,4.175440673828125,-2.250671625137329,-0.8668611645698547,0.03940810635685921
1789799301236412400,4.185412353515625,-2.110222339630127,-0.7167125940322876,0.12319128215312958
1789799301246384600,4.195384521484375,-1.8948214054107666,-0.6490952372550964,0.18933142721652985
1789799301256357600,4.205357666015625,-1.6792546510696411,-0.6418529152870178,0.24067477881908417
1789799301266329600,4.21532958984375,-1.4549299478530884,-0.5856599807739258,0.27970924973487854
1789799301276301600,4.225301513671875,-1.2095324993133545,-0.4667840003967285,0.29913368821144104
1789799301286274600,4.235274658203125,-0.9422011971473694,-0.33909499645233154,0.29948362708091736
1789799301296246500,4.24524658203125,-0.6743309497833252,-0.23388122022151947,0.3012610375881195
1789799301306218800,4.25521875,-0.44000953435897827,-0.14627067744731903,0.32636240124702454
1789799301316190500,4.2651904296875,-0.2178039401769638,-0.007053089328110218,0.3849945366382599
1789799301326163200,4.2751630859375,0.00014170852955430746,0.1652664840221405,0.43584147095680237
1789799301336135200,4.28513525390625,0.19946208596229553,0.3401188254356384,0.4736815392971039
1789799301346107100,4.295107177734375,0.3860284984111786,0.5133148431777954,0.49146345257759094
1789799301356080400,4.305080322265625,0.6071645617485046,0.7174261808395386,0.5128811001777649
1789799301366052000,4.315052001953125,0.8378329277038574,0.8687595129013062,0.5161248445510864
1789799301376024300,4.3250244140625,1.0391310453414917,0.9808902144432068,0.489814430475235
1789799301385997300,4.334997314453125,1.211124062538147,1.069288969039917,0.46330559253692627
1789799301395969300,4.34496923828125,1.3834134340286255,1.1661986112594604,0.43471559882164
1789799301405941200,4.354941162109375,1.5808535814285278,1.2683500051498413,0.40163859724998474
1789799301415914200,4.364914306640625,1.7826272249221802,1.3467551469802856,0.384764164686203
1789799301425886200,4.37488623046875,1.9591364860534668,1.373320460319519,0.3857082426548004
1789799301435858200,4.384858154296875,2.084771156311035,1.3267861604690552,0.3959285616874695
1789799301445831400,4.39483154296875,2.198801040649414,1.2073715925216675,0.4057449698448181
1789799301455803100,4.40480322265625,2.3151438236236572,1.0324265956878662,0.3968743681907654
1789799301465775400,4.414775390625,2.415414571762085,0.861721396446228,0.3482743501663208
1789799301475748400,4.424748291015625,2.5005319118499756,0.7532193064689636,0.2658758759498596
1789799301485720000,4.434719970703125,2.564314365386963,0.6933181285858154,0.18235062062740326
1789799301495692300,4.4446923828125,2.611211061477661,0.6506644487380981,0.13561826944351196
1789799301505665300,4.454665283203125,2.680534839630127,0.656133234500885,0.10990757495164871
1789799301515637200,4.46463720703125,2.7469635009765625,0.6653491854667664,0.09474539011716843
1789799301525609200,4.474609130859375,2.773648738861084,0.6273589134216309,0.0636250227689743
1789799301535581400,4.48458154296875,2.7553622722625732,0.6088711619377136,0.003709095995873213
1789799301545554200,4.49455419921875,2.712313652038574,0.5857349634170532,-0.0292656309902668
1789799301555526100,4.504526123046875,2.6055610179901123,0.5415626764297485,-0.05214577913284302
1789799301565498400,4.514498291015625,2.504166603088379,0.40974098443984985,-0.07722929865121841
1789799301575471000,4.52447119140625,2.408808708190918,0.27957800030708313,-0.11201430857181549
1789799301585443300,4.534443359375,2.280740261077881,0.1750667542219162,-0.13219042122364044
1789799301595415300,4.544415283203125,2.0943245887756348,0.0028991098515689373,-0.15633291006088257
1789799301605388300,4.55438818359375,1.963766098022461,-0.15679068863391876,-0.1839624047279358
1789799301615360300,4.5643603515625,1.817725419998169,-0.37925833463668823,-0.1820097714662552
1789799301625332500,4.57433251953125,1.6166259050369263,-0.5351747274398804,-0.1629450023174286
1789799301635305200,4.58430517578125,1.3980926275253296,-0.6242664456367493,-0.1130841076374054
1789799301645277200,4.594277099609375,1.2595782279968262,-0.6150268912315369,-0.045609984546899796
1789799301655249400,4.60424951171875,1.0904790163040161,-0.40415138006210327,0.02184349298477173
1789799301665222100,4.61422216796875,0.8972159028053284,-0.2380468249320984,0.027913635596632957
1789799301675194400,4.6241943359375,0.7023385763168335,-0.11524324119091034,-0.012505164369940758
1789799301685166300,4.634166259765625,0.4880710542201996,0.021558016538619995,-0.03639505058526993
1789799301695139000,4.64413916015625,0.2924945652484894,0.18264755606651306,-0.042280763387680054
1789799301705111300,4.654111328125,0.09364166110754013,0.18111863732337952,-0.05502612143754959
1789799301715083300,4.664083251953125,-0.09685994684696198,-0.026115043088793755,-0.0641447901725769
1789799301725056300,4.67405615234375,-0.22894129157066345,-0.12598305940628052,-0.02805868722498417
1789799301735028200,4.6840283203125,-0.3736628592014313,-0.051633693277835846,0.027904052287340164
1789799301745000400,4.69400048828125,-0.48200851678848267,0.02457745559513569,0.07204727828502655
1789799301754973200,4.70397314453125,-0.5593466758728027,-0.026617087423801422,0.09219008684158325
1789799301764945200,4.713945068359375,-0.6357234716415405,-0.12530077993869781,0.11093421280384064
1789799301774917400,4.72391748046875,-0.7007195353507996,-0.19955876469612122,0.13934695720672607
1789799301784890000,4.73389013671875,-0.7633312344551086,-0.22654937207698822,0.18517357110977173
1789799301794862300,4.7438623046875,-0.8476844429969788,-0.2009602040052414,0.21852539479732513
1789799301804834300,4.753834228515625,-0.9532151222229004,-0.15221931040287018,0.20151685178279877
1789799301814807300,4.763807373046875,-1.0727319717407227,-0.08357982337474823,0.1492973119020462
1789799301824779300,4.773779296875,-1.2117489576339722,-0.004874091129750013,0.07848306745290756
1789799301834751500,4.78375146484375,-1.3311883211135864,0.03913004323840141,0.0014620497822761536
1789799301844724200,4.79372412109375,-1.4329954385757446,0.037157706916332245,-0.07231336832046509
1789799301854696200,4.8036962890625,-1.50338876247406,-0.0004518730565905571,-0.14207860827445984
1789799301864668200,4.813668212890625,-1.5718064308166504,-0.03559041768312454,-0.2021334171295166
1789799301874641200,4.82364111328125,-1.6237428188323975,-0.051066383719444275,-0.24639542400836945
1789799301884613400,4.83361328125,-1.671133041381836,-0.0616239532828331,-0.30907291173934937
1789799301894585000,4.843585205078125,-1.7262940406799316,-0.09268182516098022,-0.3833041489124298
1789799301904558000,4.85355810546875,-1.7856851816177368,-0.13074611127376556,-0.48342567682266235
1789799301914530300,4.8635302734375,-1.8250200748443604,-0.18613415956497192,-0.5620297193527222
1789799301924502000,4.873501953125,-1.845811367034912,-0.2383267879486084,-0.6179075837135315
1789799301934475300,4.883475341796875,-1.874845266342163,-0.27914509177207947,-0.6551056504249573
1789799301944447200,4.893447265625,-1.919140338897705,-0.36426424980163574,-0.6521998643875122
1789799301954419200,4.903419189453125,-1.9638023376464844,-0.4503893256187439,-0.6047124266624451
1789799301964392200,4.91339208984375,-1.9977056980133057,-0.4630390703678131,-0.5608823895454407
1789799301974364200,4.9233642578125,-2.0975701808929443,-0.36734500527381897,-0.5063745379447937
1789799301984336100,4.933336181640625,-2.234835147857666,-0.2963773310184479,-0.4526718854904175
1789799301994309000,4.94330908203125,-2.339590549468994,-0.38018909096717834,-0.40612050890922546
1789799302004281300,4.95328125,-2.370332956314087,-0.6377325057983398,-0.37942925095558167
1789799302014253000,4.963253173828125,-2.3890349864959717,-0.9227043986320496,-0.35516250133514404
1789799302024226300,4.973226318359375,-2.386115074157715,-1.0991190671920776,-0.341304212808609
1789799302034198300,4.9831982421875,-2.3592233657836914,-1.2186989784240723,-0.32483765482902527
1789799302044170200,4.993170166015625,-2.2885284423828125,-1.2789812088012695,-0.2970467507839203
1789799302054143200,5.003143310546875,-2.1925504207611084,-1.2625316381454468,-0.24666427075862885
1789799302064115200,5.013115234375,-2.079195261001587,-1.3367151021957397,-0.24808640778064728
1789799302074087200,5.023087158203125,-1.9302618503570557,-1.3574217557907104,-0.24397127330303192
1789799302084060200,5.03306005859375,-1.7406866550445557,-1.2597076892852783,-0.22688975930213928
1789799302094032400,5.043032470703125,-1.529739260673523,-1.1181243658065796,-0.20984779298305511
1789799302104004000,5.053004150390625,-1.3141239881515503,-1.0572450160980225,-0.21090348064899445
1789799302113977000,5.06297705078125,-1.1332817077636719,-1.056876540184021,-0.21036404371261597
1789799302123949300,5.07294921875,-0.9339382648468018,-0.9807769656181335,-0.19121991097927094
1789799302133921000,5.082921142578125,-0.6959692239761353,-0.7599368691444397,-0.15545165538787842
1789799302143894300,5.092894287109375,-0.4639306664466858,-0.4429354667663574,-0.1289641261100769
1789799302153866200,5.1028662109375,-0.22868263721466064,-0.09309513866901398,-0.09494651108980179
1789799302163838200,5.112838134765625,-0.0050157345831394196,0.20453974604606628,-0.03484882414340973
1789799302173811200,5.122811279296875,0.20479287207126617,0.45083993673324585,0.04736628755927086
1789799302183783200,5.132783203125,0.4337264597415924,0.604357898235321,0.13387879729270935
1789799302193755100,5.142755126953125,0.6821578145027161,0.7257952094078064,0.19734898209571838
1789799302203728100,5.15272802734375,0.9255358576774597,0.8995627164840698,0.2393699437379837
1789799302213700400,5.162700439453125,1.1204583644866943,1.0864579677581787,0.26482805609703064
1789799302223672000,5.172672119140625,1.2988790273666382,1.235512614250183,0.2888185977935791
1789799302233645300,5.182645263671875,1.456261396408081,1.3004839420318604,0.3171486258506775
1789799302243617300,5.1926171875,1.6063182353973389,1.2678900957107544,0.35157984495162964
1789799302253589200,5.20258935546875,1.7692338228225708,1.2336678504943848,0.37174543738365173
1789799302263562200,5.212562255859375,1.9502923488616943,1.261128544807434,0.3661125600337982
1789799302273534200,5.2225341796875,2.1314945220947266,1.2971502542495728,0.3686661720275879
1789799302283506200,5.232506103515625,2.3032286167144775,1.271573781967163,0.3867895007133484
1789799302293479200,5.242479248046875,2.458369493484497,1.173834204673767,0.4129076600074768
1789799302303451400,5.252451416015625,2.5954792499542236,1.0763072967529297,0.4266809821128845
1789799302313423000,5.262423095703125,2.717794179916382,0.9785628318786621,0.4260183870792389
1789799302323396000,5.27239599609375,2.808532953262329,0.817857027053833,0.4221344292163849
1789799302333368300,5.282368408203125,2.863551139831543,0.6096690893173218,0.3981187343597412
1789799302343340000,5.292340087890625,2.9125592708587646,0.4570356011390686,0.36381056904792786
1789799302353313300,5.302313232421875,2.934251070022583,0.41083261370658875,0.3129653334617615
1789799302363285200,5.31228515625,2.869948148727417,0.3180254399776459,0.25401705503463745
1789799302373257200,5.32225732421875,2.775618553161621,0.20804162323474884,0.25143739581108093
1789799302383230200,5.332230224609375,2.635040521621704,0.10152315348386765,0.27699655294418335
1789799302393202400,5.342202392578125,2.4407434463500977,-0.044102754443883896,0.3028675615787506
1789799302403175200,5.352175048828125,2.2783966064453125,-0.17141808569431305,0.3273143172264099
1789799302413147100,5.362147216796875,2.0984113216400146,-0.24122875928878784,0.3673863708972931
1789799302423119400,5.372119384765625,1.9499009847640991,-0.37697193026542664,0.35584399104118347
1789799302433092000,5.382092041015625,1.7897673845291138,-0.4948898255825043,0.31044214963912964
1789799302443064300,5.392064208984375,1.6307029724121094,-0.49078962206840515,0.2571165859699249
1789799302453036300,5.402036376953125,1.485121726989746,-0.45525068044662476,0.19529089331626892
1789799302463009000,5.412009033203125,1.3870868682861328,-0.5428391098976135,0.1579400599002838
1789799302472981200,5.421981201171875,1.2474433183670044,-0.6372645497322083,0.1368279904127121
1789799302482953200,5.431953125,1.093629240989685,-0.6438276171684265,0.12113531678915024
1789799302492926200,5.44192626953125,0.9209945797920227,-0.4327903985977173,0.14455676078796387
1789799302502898200,5.451898193359375,0.7519121170043945,-0.222540482878685,0.14001339673995972
1789799302512870400,5.461870361328125,0.6269994378089905,-0.13935436308383942,0.09995319694280624
1789799302522843100,5.471843017578125,0.48706549406051636,-0.025967082008719444,0.05998421087861061
1789799302532815000,5.481815185546875,0.3667853772640228,0.09006878733634949,0.019064737483859062
1789799302542787300,5.491787353515625,0.18349865078926086,0.10967018455266953,-0.006530370097607374
1789799302552760000,5.501760009765625,-0.010531931184232235,-0.032575830817222595,-0.024030935019254684
1789799302562732300,5.511732177734375,-0.16720330715179443,-0.09760863333940506,-0.007017598487436771
1789799302572704300,5.521704345703125,-0.3289552628993988,-0.054727282375097275,-0.002505932003259659
1789799302582677200,5.53167724609375,-0.468031108379364,0.012517004273831844,0.006508069112896919
1789799302592649200,5.541649169921875,-0.59234219789505,0.08440979570150375,0.02879832498729229
1789799302602621400,5.551621337890625,-0.688503086566925,0.11347180604934692,0.06191446632146835
1789799302612594200,5.56159423828125,-0.7760737538337708,0.10395853966474533,0.1056748628616333
1789799302622566100,5.571566162109375,-0.8563955426216125,0.09026669710874557,0.15143489837646484
1789799302632538400,5.581538330078125,-0.9431709051132202,0.06835036724805832,0.17860940098762512
1789799302642511000,5.591510986328125,-1.0278046131134033,0.007991415448486805,0.17581972479820251
1789799302652483300,5.6014833984375,-1.0950355529785156,-0.07054831832647324,0.13951484858989716
1789799302662455300,5.611455322265625,-1.1693120002746582,-0.13078796863555908,0.08567772060632706
1789799302672428000,5.621427978515625,-1.2553712129592896,-0.1025673970580101,0.030663732439279556
1789799302682400300,5.631400146484375,-1.3736869096755981,-0.0013600855600088835,-0.02273823879659176
1789799302692372200,5.641372314453125,-1.5033812522888184,0.145309180021286,-0.0719665065407753
1789799302702345200,5.65134521484375,-1.5961042642593384,0.29159286618232727,-0.12588192522525787
1789799302712317200,5.661317138671875,-1.675061821937561,0.39653709530830383,-0.20768985152244568
1789799302722289400,5.671289306640625,-1.769331693649292,0.4656498432159424,-0.3066510558128357
1789799302732262100,5.68126220703125,-1.8494340181350708,0.45674464106559753,-0.39984384179115295
1789799302742234000,5.691234130859375,-1.9477843046188354,0.2691848576068878,-0.4052165150642395
1789799302752207400,5.701207275390625,-2.066950798034668,-0.03842741250991821,-0.33105212450027466
1789799302762179000,5.711178955078125,-2.1789636611938477,-0.12478253990411758,-0.3165363073348999
1789799302772151300,5.7211513671875,-2.267728567123413,0.005733513738960028,-0.40125906467437744
1789799302782124300,5.731124267578125,-2.255427837371826,0.18072263896465302,-0.5077242255210876
1789799302792096300,5.74109619140625,-2.176884174346924,0.23231688141822815,-0.5133755803108215
1789799302802068200,5.751068115234375,-2.199230194091797,0.05423210933804512,-0.4346858561038971
1789799302812041200,5.761041259765625,-2.2332005500793457,-0.2826954424381256,-0.38369178771972656
1789799302822013200,5.77101318359375,-2.2626469135284424,-0.6074405312538147,-0.40738487243652344
1789799302831985200,5.780985107421875,-2.315169095993042,-0.7315992116928101,-0.4420467019081116
1789799302841958400,5.79095849609375,-2.267129421234131,-0.9007117748260498,-0.5340192317962646
1789799302851930000,5.80093017578125,-2.20646595954895,-1.0653610229492188,-0.5918296575546265
1789799302861902300,5.81090234375,-2.175628185272217,-1.1773931980133057,-0.5642099976539612
1789799302871875300,5.820875244140625,-2.1119611263275146,-1.3578979969024658,-0.5568021535873413
1789799302881847000,5.830846923828125,-2.077176809310913,-1.4126158952713013,-0.5326355695724487
1789799302891819300,5.8408193359375,-2.022838592529297,-1.323448896408081,-0.492487370967865
1789799302901792300,5.850792236328125,-1.904618501663208,-1.3025890588760376,-0.4907645583152771
1789799302911764200,5.86076416015625,-1.7600624561309814,-1.2369608879089355,-0.4561329483985901
1789799302921737200,5.8707373046875,-1.5565061569213867,-1.1184091567993164,-0.39216941595077515
1789799302931709200,5.880709228515625,-1.3993419408798218,-0.9024711847305298,-0.29621824622154236
1789799302941681200,5.89068115234375,-1.1799927949905396,-0.8081079721450806,-0.24251960217952728
1789799302951654100,5.900654052734375,-0.9646024107933044,-0.6655979752540588,-0.17317648231983185
1789799302961626400,5.91062646484375,-0.7512598037719727,-0.5043097734451294,-0.08894123136997223
1789799302971598000,5.92059814453125,-0.5191729068756104,-0.3512841463088989,-0.016397520899772644
1789799302981571000,5.930571044921875,-0.30587631464004517,-0.1947651207447052,0.018857404589653015
1789799302991543300,5.940543212890625,-0.13517041504383087,-0.010840335860848427,0.06615874171257019
1789799303001515300,5.950515380859375,0.03470330312848091,0.20052489638328552,0.16447065770626068
1789799303011488300,5.96048828125,0.2400171011686325,0.379010409116745,0.26593217253685
1789799303021460200,5.970460205078125,0.4783601760864258,0.5719305872917175,0.3086506128311157
1789799303031432200,5.98043212890625,0.7160244584083557,0.7606619000434875,0.29967960715293884
1789799303041405200,5.9904052734375,0.9416877031326294,0.937027096748352,0.2960643768310547
1789799303051377400,6.00037744140625,1.1373907327651978,1.1093168258666992,0.30423468351364136
1789799303061349000,6.01034912109375,1.3275913000106812,1.2777068614959717,0.298578679561615
1789799303071322000,6.020322021484375,1.4977483749389648,1.4010502099990845,0.28795385360717773
1789799303081294300,6.03029443359375,1.6801304817199707,1.4755645990371704,0.3019258677959442
1789799303091267000,6.04026708984375,1.8680872917175293,1.5000659227371216,0.3508189618587494
1789799303101239300,6.0502392578125,2.0613410472869873,1.4827748537063599,0.40646892786026
1789799303111211300,6.060211181640625,2.2632367610931396,1.452904224395752,0.4347114562988281
1789799303121184000,6.07018408203125,2.468975067138672,1.404254674911499,0.4363016188144684
1789799303131156200,6.08015625,2.652561664581299,1.2812360525131226,0.42645207047462463
1789799303141128200,6.090128173828125,2.7903740406036377,1.07752525806427,0.4033541977405548
1789799303151101200,6.10010107421875,2.8895516395568848,0.8741359114646912,0.37303411960601807
1789799303161073200,6.1100732421875,2.9521775245666504,0.7227889895439148,0.3576596975326538
1789799303171045400,6.12004541015625,2.983935594558716,0.5264132618904114,0.356153279542923
1789799303181018000,6.13001806640625,2.988790273666382,0.31752875447273254,0.3410073518753052
1789799303190990300,6.139990234375,2.9440042972564697,0.14157885313034058,0.3149150311946869
1789799303200962300,6.14996240234375,2.855987787246704,0.031166857108473778,0.2948608994483948
1789799303210935000,6.15993505859375,2.7830750942230225,0.0142550989985466,0.28610295057296753
1789799303220907300,6.1699072265625,2.6656601428985596,-0.034330278635025024,0.29418644309043884
1789799303230880300,6.17988037109375,2.465411424636841,-0.23943354189395905,0.3330109417438507
1789799303240852200,6.189852294921875,2.287273645401001,-0.428972065448761,0.3709716200828552
1789799303250824200,6.19982421875,2.129913568496704,-0.4672040045261383,0.37878718972206116
1789799303260797200,6.209797119140625,1.963509440422058,-0.5117595195770264,0.3430214822292328
1789799303270769200,6.21976904296875,1.7985721826553345,-0.6027438640594482,0.2954044044017792
1789799303280741000,6.2297412109375,1.6162230968475342,-0.6615765690803528,0.26650938391685486
1789799303290714400,6.23971435546875,1.4870144128799438,-0.6532561182975769,0.2629106640815735
1789799303300686000,6.24968603515625,1.339713215827942,-0.5675377249717712,0.2568802237510681
1789799303310658300,6.259658203125,1.1739870309829712,-0.5068045854568481,0.2432398945093155
1789799303320632000,6.269632080078125,0.9640174508094788,-0.4343000054359436,0.25295084714889526
1789799303330604000,6.27960400390625,0.7843948602676392,-0.35495230555534363,0.24307505786418915
1789799303340576800,6.28957666015625,0.6075596809387207,-0.23874743282794952,0.22553680837154388
1789799303350549000,6.299549072265625,0.46629515290260315,-0.21015022695064545,0.18640057742595673
1789799303360521000,6.30952099609375,0.2896151840686798,0.009991731494665146,0.15834550559520721
1789799303370494000,6.319493896484375,0.11696776002645493,0.21901141107082367,0.11836719512939453
1789799303380466000,6.3294658203125,-0.07689172774553299,0.19478410482406616,0.07826398313045502
1789799303390438000,6.33943798828125,-0.258928120136261,0.11320619285106659,0.08028067648410797
1789799303400411000,6.349410888671875,-0.365585058927536,0.027956802397966385,0.08072968572378159
1789799303410383000,6.359383056640625,-0.5036093592643738,0.045731689780950546,0.08816828578710556
1789799303420356000,6.369356201171875,-0.6189431548118591,0.10098855197429657,0.09866273403167725
1789799303430327800,6.379327880859375,-0.7157527804374695,0.14116230607032776,0.1062878966331482
1789799303440300000,6.389300048828125,-0.7960286736488342,0.10850821435451508,0.09987340867519379
1789799303450273000,6.39927294921875,-0.8512288928031921,0.04818563163280487,0.09341364353895187
1789799303460245000,6.409244873046875,-0.9122105240821838,0.031590141355991364,0.08572909235954285
1789799303470217000,6.419217041015625,-0.9878799915313721,0.0771106407046318,0.05286954343318939
1789799303480190000,6.42918994140625,-1.0748897790908813,0.1709175556898117,0.018824756145477295
1789799303490162000,6.439161865234375,-1.1595654487609863,0.2236187756061554,-0.005380979273468256
1789799303500135000,6.449135009765625,-1.2598880529403687,0.20083171129226685,-0.028652213513851166
1789799303510107100,6.459107177734375,-1.382123351097107,0.1855698525905609,-0.06232602894306183
1789799303520078800,6.469078857421875,-1.5051504373550415,0.23323483765125275,-0.09998845309019089
1789799303530051800,6.4790517578125,-1.6129432916641235,0.29737433791160583,-0.15868133306503296
1789799303540024000,6.489024169921875,-1.6952650547027588,0.316945880651474,-0.2686035633087158
1789799303549995800,6.498995849609375,-1.7726410627365112,0.3109884560108185,-0.4037759006023407
1789799303559969000,6.508968994140625,-1.8897801637649536,0.23455974459648132,-0.5174132585525513
1789799303569941000,6.51894091796875,-2.027675151824951,0.11741932481527328,-0.5426649451255798
1789799303579913700,6.528913818359375,-2.1289448738098145,0.02200891822576523,-0.5157015323638916
1789799303589886000,6.538885986328125,-2.2331597805023193,0.022646261379122734,-0.5271604061126709
1789799303599858000,6.54885791015625,-2.288386583328247,0.06291352212429047,-0.5887854099273682
1789799303609831000,6.558830810546875,-2.262141466140747,0.12697556614875793,-0.6522544026374817
1789799303619803000,6.568802978515625,-2.2047126293182373,0.0997503325343132,-0.634522557258606
1789799303629775000,6.578775146484375,-2.1961591243743896,-0.08381488174200058,-0.5962919592857361
1789799303639747800,6.588747802734375,-2.2167837619781494,-0.3087928593158722,-0.5801761150360107
1789799303649720000,6.598719970703125,-2.24615216255188,-0.4927184581756592,-0.5928463935852051
1789799303659693000,6.608693115234375,-2.257145404815674,-0.6735814809799194,-0.6619064211845398
1789799303669664800,6.618664794921875,-2.326826810836792,-0.7040115594863892,-0.6843395233154297
1789799303679637000,6.628636962890625,-2.2877883911132812,-0.7844704389572144,-0.692841112613678
1789799303689610000,6.63860986328125,-2.2203781604766846,-0.9039226770401001,-0.6696219444274902
1789799303699582000,6.64858203125,-2.1597647666931152,-1.0248409509658813,-0.6297714710235596
1789799303709555000,6.658554931640625,-2.110736846923828,-1.0982370376586914,-0.5751908421516418
1789799303719527000,6.66852685546875,-2.0463168621063232,-1.128309726715088,-0.5120621919631958
1789799303729499000,6.678498779296875,-1.9617944955825806,-1.1140127182006836,-0.44693827629089355
1789799303739472000,6.688471923828125,-1.8304862976074219,-1.1441349983215332,-0.40521320700645447
1789799303749444000,6.698444091796875,-1.6822190284729004,-1.068983554840088,-0.3502691388130188
1789799303759415800,6.708415771484375,-1.4876573085784912,-0.9688858389854431,-0.28192657232284546
1789799303769388800,6.718388916015625,-1.278585433959961,-0.8997197151184082,-0.21147118508815765
1789799303779361000,6.728361083984375,-1.0603125095367432,-0.8295371532440186,-0.17957903444766998
1789799303789334000,6.738333984375,-0.826147198677063,-0.7264726758003235,-0.16649824380874634
1789799303799306000,6.748305908203125,-0.6162596940994263,-0.6027856469154358,-0.13227929174900055
1789799303809278000,6.75827783203125,-0.3984852135181427,-0.45497986674308777,-0.078776516020298
1789799303819251000,6.7682509765625,-0.18591837584972382,-0.1931610256433487,-0.003935565240681171
1789799303829223000,6.778222900390625,0.03753223642706871,0.16156356036663055,0.0826837420463562
1789799303839196000,6.78819580078125,0.270394504070282,0.4849187433719635,0.17077259719371796
1789799303849168100,6.798168212890625,0.4979545474052429,0.7001274824142456,0.24970056116580963
1789799303859139800,6.808139892578125,0.7209433913230896,0.8466867804527283,0.3243500590324402
1789799303869113000,6.818113037109375,0.9313379526138306,0.9183114767074585,0.36877262592315674
1789799303879085000,6.8280849609375,1.1279202699661255,0.9946799874305725,0.3690599799156189
1789799303889057800,6.838057861328125,1.3303519487380981,1.0801275968551636,0.35317328572273254
1789799303899030000,6.848030029296875,1.5555269718170166,1.1583317518234253,0.3507823050022125
1789799303909002000,6.858001953125,1.7778377532958984,1.261276125907898,0.36284390091896057
1789799303918975000,6.86797509765625,1.9581552743911743,1.3596224784851074,0.4012325406074524
1789799303928947000,6.877947021484375,2.099433422088623,1.3781665563583374,0.4550526440143585
1789799303938920000,6.887919921875,2.2334628105163574,1.2861260175704956,0.5069669485092163
1789799303948892000,6.897891845703125,2.391188383102417,1.1664899587631226,0.5339383482933044
1789799303958864000,6.90786376953125,2.5781307220458984,1.0682381391525269,0.5173847079277039
1789799303968837000,6.917837158203125,2.7325031757354736,1.003450632095337,0.47931137681007385
1789799303978808800,6.927808837890625,2.8363358974456787,0.8756461143493652,0.43596524000167847
1789799303988781800,6.93778173828125,2.894901990890503,0.6733332276344299,0.4204801619052887
1789799303998754000,6.947754150390625,2.8948283195495605,0.5296887159347534,0.39991337060928345
1789799304008725800,6.957725830078125,2.846204996109009,0.47607824206352234,0.3349868059158325
1789799304018699000,6.967698974609375,2.75777530670166,0.38953644037246704,0.27399617433547974
1789799304028671000,6.9776708984375,2.6709585189819336,0.22865694761276245,0.2537466883659363
1789799304038644000,6.98764404296875,2.6029038429260254,0.13149365782737732,0.2578623294830322
1789799304048616000,6.997615966796875,2.502899408340454,0.10900214314460754,0.2332945466041565
1789799304058589000,7.0075888671875,2.3780126571655273,0.028436725959181786,0.19283020496368408
1789799304068561000,7.017560791015625,2.2590622901916504,-0.11590716242790222,0.16119810938835144
1789799304078532900,7.027532958984375,2.156722068786621,-0.19682197272777557,0.16062021255493164
1789799304088505900,7.037505859375,2.038912296295166,-0.3448021411895752,0.1692885309457779
1789799304098477800,7.047477783203125,1.9022928476333618,-0.5237878561019897,0.17331017553806305
1789799304108450800,7.057450927734375,1.725313663482666,-0.6888157725334167,0.21017710864543915
1789799304118423000,7.067423095703125,1.5811455249786377,-0.6623671054840088,0.24579262733459473
1789799304128394800,7.077394775390625,1.406394600868225,-0.5863878130912781,0.24547383189201355
1789799304138368000,7.087367919921875,1.2064157724380493,-0.5696653127670288,0.20462706685066223
1789799304148340000,7.097340087890625,0.9998946189880371,-0.4463125765323639,0.19948238134384155
1789799304158313000,7.10731298828125,0.818842887878418,-0.39334309101104736,0.1707652509212494
1789799304168285000,7.117284912109375,0.6558619141578674,-0.32493895292282104,0.12758688628673553
1789799304178258000,7.1272578125,0.47022098302841187,-0.22299769520759583,0.10122745484113693
1789799304188230100,7.137230224609375,0.32562512159347534,-0.06388154625892639,0.07927341014146805
1789799304198201900,7.147201904296875,0.16504423320293427,-0.014968866482377052,0.04076862335205078
1789799304208174800,7.1571748046875,0.0034178700298070908,-0.021987302228808403,-0.007995052263140678
1789799304218147000,7.16714697265625,-0.1282019466161728,-0.07155458629131317,-0.029643889516592026
1789799304228119800,7.177119873046875,-0.2650730311870575,-0.0965069904923439,-0.014566930010914803
1789799304238092000,7.187092041015625,-0.3884604871273041,-0.11984241008758545,0.005391065962612629
1789799304248064000,7.19706396484375,-0.4944095015525818,-0.11203635483980179,0.015072051435709
1789799304258036700,7.20703662109375,-0.5859823226928711,-0.07221250981092453,0.01976826973259449
1789799304268009000,7.217009033203125,-0.6804568767547607,0.001347047509625554,0.010512320324778557
1789799304277982000,7.22698193359375,-0.7720190286636353,0.0730886161327362,-0.009227029979228973
1789799304287954000,7.236953857421875,-0.8554819226264954,0.1051172986626625,-0.030465751886367798
1789799304297927000,7.246927001953125,-0.9414548873901367,0.11319386959075928,-0.05395270138978958
1789799304307899000,7.25689892578125,-1.024762749671936,0.1312262862920761,-0.0856296643614769
1789799304317870800,7.266870849609375,-1.132828950881958,0.15962569415569305,-0.12417519837617874
1789799304327843300,7.27684326171875,-1.253146767616272,0.23115016520023346,-0.13611041009426117
1789799304337815300,7.286815185546875,-1.3548294305801392,0.27575036883354187,-0.14918440580368042
1789799304347788300,7.296788330078125,-1.4250030517578125,0.21788211166858673,-0.1827535480260849
1789799304357760500,7.306760498046875,-1.4980125427246094,0.17841406166553497,-0.23982961475849152
1789799304367733200,7.316733154296875,-1.5712915658950806,0.23889318108558655,-0.3214053213596344
1789799304377705200,7.326705322265625,-1.6378988027572632,0.3708764910697937,-0.4266289472579956
1789799304387677400,7.336677490234375,-1.7257360219955444,0.37186291813850403,-0.5430296063423157
1789799304397650200,7.346650146484375,-1.843298316001892,0.19110941886901855,-0.6217712759971619
1789799304407622400,7.356622314453125,-1.9780035018920898,-0.025832902640104294,-0.6134248971939087
1789799304417595400,7.366595458984375,-2.123748540878296,-0.1610642373561859,-0.5930314660072327
1789799304427567400,7.3765673828125,-2.2121212482452393,-0.045591019093990326,-0.6170547008514404
1789799304437540400,7.386540283203125,-2.272034168243408,0.13516731560230255,-0.6855759620666504
1789799304447512300,7.39651220703125,-2.2281830310821533,0.25108689069747925,-0.7164755463600159
1789799304457485300,7.4064853515625,-2.1647980213165283,0.20747284591197968,-0.6437163949012756
1789799304467457300,7.416457275390625,-2.1608729362487793,0.04600343853235245,-0.5340874791145325
1789799304477429500,7.426429443359375,-2.1505861282348633,-0.24661564826965332,-0.4789837598800659
1789799304487402500,7.436402587890625,-2.182502031326294,-0.4989633560180664,-0.4710434079170227
1789799304497374200,7.446374267578125,-2.2601656913757324,-0.6115368008613586,-0.4921207129955292
1789799304507347500,7.456347412109375,-2.244028091430664,-0.76099693775177,-0.5459343194961548
1789799304517319400,7.4663193359375,-2.191596508026123,-0.8881386518478394,-0.5865017175674438
1789799304527292200,7.476292236328125,-2.171290636062622,-0.9086247682571411,-0.5387568473815918
1789799304537264400,7.486264404296875,-2.098362445831299,-1.0696560144424438,-0.5283837914466858
1789799304547237400,7.4962373046875,-2.0475611686706543,-1.1899311542510986,-0.5112046003341675
1789799304557209300,7.506209228515625,-1.9831445217132568,-1.2329292297363281,-0.4931456446647644
1789799304567181300,7.516181396484375,-1.9357675313949585,-1.1784942150115967,-0.4396083950996399
1789799304577154300,7.526154296875,-1.7815226316452026,-1.1533963680267334,-0.4039025902748108
1789799304587126300,7.536126220703125,-1.6010113954544067,-1.0941694974899292,-0.37465375661849976
1789799304597099300,7.546099365234375,-1.4138175249099731,-0.9868667125701904,-0.31536993384361267
1789799304607071500,7.556071533203125,-1.2052185535430908,-0.8720682859420776,-0.2489258050918579
1789799304617044500,7.56604443359375,-1.013257622718811,-0.6628718972206116,-0.16175387799739838
1789799304627016200,7.57601611328125,-0.7460767030715942,-0.582200288772583,-0.13388723134994507
1789799304636989400,7.585989501953125,-0.5263672471046448,-0.4516390562057495,-0.08027274161577225
1789799304646961400,7.59596142578125,-0.3200744092464447,-0.33353158831596375,-0.016826260834932327
1789799304656934100,7.60593408203125,-0.10847079753875732,-0.17147347331047058,0.05483700707554817
1789799304666906400,7.61590625,0.11166615784168243,0.05951940640807152,0.14065949618816376
1789799304676879400,7.62587939453125,0.3485034704208374,0.3072029650211334,0.21132194995880127
1789799304686851300,7.635851318359375,0.5936915874481201,0.5017065405845642,0.25351521372795105
1789799304696823300,7.6458232421875,0.8111892938613892,0.6490491628646851,0.27844932675361633
1789799304706796300,7.65579638671875,1.0102373361587524,0.7850657105445862,0.274956077337265
1789799304716768300,7.665768310546875,1.216193437576294,0.9401311874389648,0.24456699192523956
1789799304726741200,7.6757412109375,1.4146184921264648,1.0567681789398193,0.25000423192977905
1789799304736713500,7.68571337890625,1.5850660800933838,1.1350009441375732,0.30732741951942444
1789799304746686200,7.695686279296875,1.7346305847167969,1.2081289291381836,0.36916497349739075
1789799304756658400,7.705658447265625,1.8905354738235474,1.2901058197021484,0.39590391516685486
1789799304766631400,7.71563134765625,2.05112361907959,1.377924919128418,0.3737511932849884
1789799304776603100,7.72560302734375,2.1914660930633545,1.4386441707611084,0.36726799607276917
1789799304786576400,7.735576416015625,2.3137762546539307,1.3831151723861694,0.39850154519081116
1789799304796548400,7.74554833984375,2.4351439476013184,1.2246969938278198,0.4167204797267914
1789799304806521300,7.755521240234375,2.5577526092529297,1.0677670240402222,0.36291852593421936
1789799304816493300,7.765493408203125,2.6682469844818115,0.941868782043457,0.2683722972869873
1789799304826466300,7.77546630859375,2.7495155334472656,0.7803800106048584,0.1874416321516037
1789799304836438500,7.7854384765625,2.812382698059082,0.5350850224494934,0.14492960274219513
1789799304846411300,7.795411376953125,2.845905303955078,0.3160996735095978,0.10289546102285385
1789799304856383200,7.80538330078125,2.830151081085205,0.15026435256004333,0.07486994564533234
1789799304866356500,7.8153564453125,2.787691831588745,0.04973757266998291,0.07245953381061554
1789799304876328200,7.825328125,2.7453927993774414,-0.012224864214658737,0.10790088027715683
1789799304886301200,7.83530126953125,2.6445722579956055,-0.04548541456460953,0.15207339823246002
1789799304896273400,7.8452734375,2.5041792392730713,-0.2234005481004715,0.1700795590877533
1789799304906245000,7.8552451171875,2.3373303413391113,-0.3696459233760834,0.2144884318113327
1789799304916218400,7.86521826171875,2.1516995429992676,-0.4589536786079407,0.25722578167915344
1789799304926190300,7.8751904296875,1.969679355621338,-0.507499098777771,0.29495662450790405
1789799304936163300,7.885163330078125,1.7997990846633911,-0.4758106470108032,0.33189839124679565
1789799304946135300,7.89513525390625,1.663365125656128,-0.516618013381958,0.3770054280757904
1789799304956108300,7.9051083984375,1.5251060724258423,-0.5339860916137695,0.40489858388900757
1789799304966080500,7.91508056640625,1.3877500295639038,-0.5237645506858826,0.42091310024261475
1789799304976053200,7.92505322265625,1.2440325021743774,-0.5441560745239258,0.42191603779792786
1789799304986025200,7.935025146484375,1.0780247449874878,-0.5052841305732727,0.42609545588493347
1789799304995998500,7.94499853515625,0.9214481711387634,-0.495057612657547,0.4042391777038574
1789799305005970200,7.95497021484375,0.7598772644996643,-0.5273651480674744,0.35307133197784424
1789799305015943200,7.964943115234375,0.5731225609779358,-0.450578510761261,0.28649869561195374
1789799305025915400,7.974915283203125,0.43519315123558044,-0.3129003942012787,0.20563526451587677
1789799305035888400,7.984888427734375,0.23804785311222076,-0.09285776317119598,0.13180898129940033
1789799305045860400,7.9948603515625,0.02988777868449688,0.07120346277952194,0.058344751596450806
1789799305055833300,8.004833251953125,-0.15572787821292877,0.1410595029592514,-0.020809724926948547
1789799305065806300,8.014806396484374,-0.3054184317588806,0.04428880289196968,-0.10027804970741272
1789799305075778300,8.0247783203125,-0.4333939552307129,-0.04489833116531372,-0.14786633849143982
1789799305085751300,8.034751220703125,-0.5470814108848572,-0.03354087099432945,-0.17288993299007416
1789799305095723300,8.04472314453125,-0.6222589612007141,-0.03879981487989426,-0.1998661607503891
1789799305105696500,8.054696533203124,-0.6787200570106506,-0.06795066595077515,-0.22767382860183716
1789799305115668200,8.064668212890625,-0.7506510019302368,-0.015529800206422806,-0.25896862149238586
1789799305125641500,8.074641357421875,-0.8283609747886658,0.13909348845481873,-0.2944740355014801
1789799305135613400,8.084613525390624,-0.8843957781791687,0.2725828289985657,-0.32116344571113586
1789799305145586200,8.094586181640626,-0.9212409257888794,0.2160603106021881,-0.33842578530311584
1789799305155558400,8.104558349609375,-0.9750985503196716,0.04770299419760704,-0.3395024836063385
1789799305165531400,8.114531494140625,-1.053399682044983,-0.025353414937853813,-0.3217860758304596
1789799305175503400,8.12450341796875,-1.155290126800537,0.041439466178417206,-0.3076566755771637
1789799305185476400,8.134476318359376,-1.2711694240570068,0.13361631333827972,-0.29596978425979614
1789799305195448300,8.1444482421875,-1.408710241317749,0.16694337129592896,-0.2836042046546936
1789799305205421600,8.154421630859375,-1.5484294891357422,0.17776766419410706,-0.29159343242645264
1789799305215393300,8.164393310546876,-1.6320879459381104,0.23915885388851166,-0.33193448185920715
1789799305225366300,8.1743662109375,-1.6936094760894775,0.30698052048683167,-0.41260549426078796
1789799305235338500,8.18433837890625,-1.7739673852920532,0.32490572333335876,-0.521740734577179
1789799305245311200,8.194311279296874,-1.8693863153457642,0.22525429725646973,-0.6130240559577942
1789799305255283500,8.204283447265626,-1.9795660972595215,-0.014323939569294453,-0.606103777885437
1789799305265256400,8.21425634765625,-2.0935590267181396,-0.2590138018131256,-0.5496174097061157
1789799305275229200,8.224229248046875,-2.218064308166504,-0.3097302317619324,-0.5383809804916382
1789799305285201400,8.234201416015624,-2.298078775405884,-0.1575586348772049,-0.6091315746307373
1789799305295174400,8.24417431640625,-2.2359161376953125,0.00030156620778143406,-0.6769353747367859
1789799305305146000,8.25414599609375,-2.1743290424346924,0.035901397466659546,-0.6762180924415588
1789799305315119400,8.264119384765625,-2.147897958755493,-0.15095238387584686,-0.6638354659080505
1789799305325090800,8.2740908203125,-2.1588897705078125,-0.3874480426311493,-0.6473681926727295
1789799305335063800,8.284063720703125,-2.215000629425049,-0.6197036504745483,-0.6411787271499634
1789799305345036000,8.2940361328125,-2.2193052768707275,-0.8461129665374756,-0.6549414396286011
1789799305355008800,8.3040087890625,-2.208768367767334,-0.9808363914489746,-0.6676620244979858
1789799305364981000,8.31398095703125,-2.250046968460083,-0.918049156665802,-0.6137473583221436
1789799305374954000,8.3239541015625,-2.1945483684539795,-0.9829503893852234,-0.60930335521698
1789799305384927000,8.333927001953125,-2.1275506019592285,-0.9774448275566101,-0.5737562775611877
1789799305394899000,8.34389892578125,-2.0840282440185547,-0.9177926778793335,-0.5137091875076294
1789799305404872000,8.353871826171876,-1.985196828842163,-1.0536242723464966,-0.5109325647354126
1789799305414844200,8.36384423828125,-1.8708196878433228,-1.1059999465942383,-0.46104681491851807
1789799305424817000,8.37381689453125,-1.7154624462127686,-1.1454427242279053,-0.40799689292907715
1789799305434788900,8.383788818359376,-1.6042637825012207,-1.0356088876724243,-0.3453260362148285
1789799305444762000,8.39376220703125,-1.3274405002593994,-1.1037129163742065,-0.3772982358932495
1789799305454733800,8.40373388671875,-1.0448766946792603,-1.0543677806854248,-0.4051991105079651
1789799305464706800,8.413706787109374,-0.7827024459838867,-0.8978264331817627,-0.3839918375015259
1789799305474680000,8.42368017578125,-0.571150004863739,-0.6796174049377441,-0.288191020488739
1789799305484652000,8.433652099609375,-0.3663289248943329,-0.48835742473602295,-0.15982970595359802
1789799305494624800,8.443624755859375,-0.15607233345508575,-0.2507680356502533,-0.06002960354089737
1789799305504597000,8.453596923828124,0.04493667557835579,-0.0017564189620316029,0.05112168937921524
1789799305514570000,8.463570068359376,0.2625531554222107,0.273295134305954,0.19386792182922363
1789799305524542000,8.4735419921875,0.4920366108417511,0.5542966723442078,0.308686226606369
1789799305534515000,8.483514892578125,0.7155187129974365,0.7728809118270874,0.3940839469432831
1789799305544488000,8.493488037109374,0.9125104546546936,0.9496200084686279,0.47707030177116394
1789799305554460200,8.503460205078126,1.099502444267273,1.0845768451690674,0.5650337338447571
1789799305564433000,8.513432861328125,1.281890630722046,1.2124046087265015,0.6168271899223328
1789799305574404900,8.52340478515625,1.4729743003845215,1.3253095149993896,0.665006697177887
1789799305584378000,8.533378173828124,1.6616262197494507,1.3985278606414795,0.7302834391593933
1789799305594351000,8.54335107421875,1.8453923463821411,1.4819777011871338,0.7686148285865784
1789799305604322800,8.55332275390625,2.006364583969116,1.5694835186004639,0.7701505422592163
1789799305614296000,8.563296142578125,2.134622097015381,1.5575288534164429,0.7980572581291199
1789799305624268000,8.57326806640625,2.23478627204895,1.4450132846832275,0.8549686670303345
1789799305634240800,8.58324072265625,2.3376452922821045,1.2246071100234985,0.8991773724555969
1789799305644214000,8.593214111328125,2.4629509449005127,0.9707759022712708,0.9023364186286926
1789799305654186000,8.60318603515625,2.602053165435791,0.7554420232772827,0.8587873578071594
1789799305664159000,8.613158935546876,2.7189273834228516,0.540785014629364,0.7880397439002991
1789799305674131000,8.623130859375,2.776211977005005,0.33642521500587463,0.7076674103736877
1789799305684104000,8.63310400390625,2.821895122528076,0.1565842181444168,0.6442249417304993
1789799305694076200,8.643076171875,2.834244728088379,0.07360971719026566,0.6129983067512512
1789799305704049000,8.653048828125,2.777535915374756,0.0491434708237648,0.5875619053840637
1789799305714022000,8.66302197265625,2.7064194679260254,0.04974427819252014,0.5723936557769775
1789799305723994000,8.672994140625,2.599048376083374,0.02323170006275177,0.5615057349205017
1789799305733967000,8.682967041015624,2.4740378856658936,-0.09535034000873566,0.551996111869812
1789799305743939800,8.69293994140625,2.3570139408111572,-0.2533309757709503,0.5456363558769226
1789799305753912000,8.702912109375,2.2166526317596436,-0.3356732428073883,0.5548548698425293
1789799305763885000,8.712885009765625,2.0722250938415527,-0.35761213302612305,0.5481370687484741
1789799305773856800,8.722856689453126,1.9342291355133057,-0.4030435085296631,0.5226338505744934
1789799305783830000,8.732830078125,1.8059306144714355,-0.4620301127433777,0.49309042096138
1789799305793803000,8.742802978515625,1.6439028978347778,-0.5299625396728516,0.44893068075180054
1789799305803775000,8.75277490234375,1.4968193769454956,-0.5049756765365601,0.40559279918670654
1789799305813748000,8.762748046875,1.3301808834075928,-0.45724520087242126,0.3568737208843231
1789799305823720000,8.772719970703125,1.1284440755844116,-0.42195820808410645,0.2901528775691986
1789799305833693000,8.78269287109375,0.9452747106552124,-0.44246187806129456,0.2089371234178543
1789799305843666200,8.792666259765625,0.7421627044677734,-0.32839348912239075,0.14519010484218597
1789799305853638000,8.802637939453126,0.60493403673172,-0.27152302861213684,0.07200164347887039
1789799305863611000,8.81261083984375,0.455623984336853,-0.17068146169185638,0.01560947485268116
1789799305873584000,8.822584228515625,0.3211170434951782,-0.09346283227205276,-0.048980701714754105
1789799305883555800,8.832555908203124,0.1523926556110382,0.04600067809224129,-0.08550849556922913
1789799305893528800,8.84252880859375,-0.019518665969371796,0.22610174119472504,-0.08173798024654388
1789799305903501000,8.8525009765625,-0.1661493182182312,0.27675575017929077,-0.0665995180606842
1789799305913473800,8.862473876953125,-0.28863397240638733,0.1537182480096817,-0.04358314722776413
1789799305923446800,8.87244677734375,-0.3916813135147095,0.04474591836333275,-0.016096660867333412
1789799305933419000,8.8824189453125,-0.4823150932788849,0.08296974003314972,-0.01740427315235138
1789799305943392000,8.89239208984375,-0.5666032433509827,0.22160035371780396,-0.04262467473745346
1789799305953364700,8.90236474609375,-0.6494017243385315,0.357211709022522,-0.06324499845504761
1789799305963337000,8.9123369140625,-0.7434150576591492,0.44957971572875977,-0.07256140559911728
1789799305973310000,8.92231005859375,-0.8554428219795227,0.5062803030014038,-0.07903821766376495
1789799305983283000,8.932282958984375,-0.9646775126457214,0.4849112331867218,-0.09472370147705078
1789799305993255000,8.9422548828125,-1.0586374998092651,0.3960852324962616,-0.12119391560554504
1789799306003228000,8.952227783203124,-1.144700527191162,0.26809388399124146,-0.1460002064704895
1789799306013201000,8.962200927734376,-1.236131191253662,0.1859114021062851,-0.16612331569194794
1789799306023172900,8.9721728515625,-1.3322666883468628,0.2065618932247162,-0.20132072269916534
1789799306033145900,8.982145751953125,-1.4116379022598267,0.2726556956768036,-0.2479715794324875
1789799306043118800,8.992118896484374,-1.4921311140060425,0.341620534658432,-0.321254700422287
1789799306053091000,9.002091064453126,-1.576608419418335,0.3892035186290741,-0.42851805686950684
1789799306063063800,9.012063720703125,-1.6577651500701904,0.406057745218277,-0.5511820316314697
1789799306073036800,9.022036865234375,-1.7482473850250244,0.3418063223361969,-0.6351131796836853
1789799306083009000,9.032009033203124,-1.8255659341812134,0.22775542736053467,-0.6386491656303406
1789799306092982000,9.04198193359375,-1.9229649305343628,0.17466238141059875,-0.6065290570259094
1789799306102954800,9.051954833984375,-2.027147054672241,0.23033615946769714,-0.6298799514770508
1789799306112927000,9.061927001953125,-2.1053688526153564,0.2934565246105194,-0.6941643953323364
1789799306122900000,9.07189990234375,-2.1618266105651855,0.21928592026233673,-0.7256234884262085
1789799306132873000,9.081873046875,-2.174346923828125,0.0861893817782402,-0.6860222816467285
1789799306142845000,9.091844970703125,-2.1875715255737305,-0.09230587631464005,-0.6325514912605286
1789799306152818000,9.10181787109375,-2.207852602005005,-0.209846630692482,-0.5712338089942932
1789799306162791000,9.111791015625,-2.1783761978149414,-0.3114205300807953,-0.5442379713058472
1789799306172763000,9.121762939453125,-2.22802472114563,-0.3980422616004944,-0.5708328485488892
1789799306182736000,9.13173583984375,-2.2925078868865967,-0.49272629618644714,-0.6046134829521179
1789799306192708900,9.141708984375,-2.2893857955932617,-0.6497763395309448,-0.6171258091926575
1789799306202681000,9.15168115234375,-2.262153387069702,-0.9262353181838989,-0.6384852528572083
1789799306212653800,9.16165380859375,-2.231337547302246,-1.1111223697662354,-0.6231744885444641
1789799306222626800,9.171626708984375,-2.245283365249634,-1.1345864534378052,-0.5712199807167053
1789799306232599000,9.18159912109375,-2.1737289428710938,-1.2091169357299805,-0.5632137060165405
1789799306242572000,9.191572021484374,-2.0874507427215576,-1.229707956314087,-0.5744120478630066
1789799306252544800,9.201544677734375,-1.9755882024765015,-1.1663841009140015,-0.558255672454834
1789799306262517000,9.21151708984375,-1.84384024143219,-1.069844365119934,-0.5200793743133545
1789799306272490000,9.221489990234375,-1.7227553129196167,-0.9063335061073303,-0.4347551763057709
1789799306282463000,9.231462890625,-1.5156863927841187,-0.9077543020248413,-0.37987008690834045
1789799306292435000,9.24143505859375,-1.3146874904632568,-0.8740485310554504,-0.31620028614997864
1789799306302408000,9.251407958984375,-1.1037451028823853,-0.7807700634002686,-0.24023695290088654
1789799306312381000,9.261380859375,-0.867942750453949,-0.643036425113678,-0.18871624767780304
1789799306322354400,9.2713544921875,-0.6294921040534973,-0.3863849937915802,-0.1454104483127594
1789799306332326100,9.281326171875,-0.37843936681747437,-0.11131962388753891,-0.06616329401731491
1789799306342299100,9.291299072265625,-0.12906651198863983,0.16584579646587372,0.03241374343633652
1789799306352272400,9.3012724609375,0.12267465144395828,0.40053075551986694,0.12318865209817886
1789799306362244000,9.311244140625,0.38234466314315796,0.5905397534370422,0.2001662701368332
1789799306372217000,9.321217041015625,0.6333984732627869,0.7712738513946533,0.27128759026527405
1789799306382190300,9.3311904296875,0.8418287634849548,0.9287910461425781,0.32629796862602234
1789799306392163300,9.341163330078125,1.0061073303222656,1.081168532371521,0.3636607825756073
1789799306402135000,9.351135009765626,1.1600953340530396,1.2348594665527344,0.40011876821517944
1789799306412108300,9.3611083984375,1.3308342695236206,1.3359535932540894,0.45419931411743164
1789799306422081300,9.371081298828125,1.5301519632339478,1.3854281902313232,0.4854464828968048
1789799306432053000,9.381052978515624,1.7296160459518433,1.37804114818573,0.4953475594520569
1789799306442026200,9.391026123046874,1.8938902616500854,1.322744607925415,0.5165079832077026
1789799306451999200,9.400999267578126,2.02062726020813,1.2910701036453247,0.5426546335220337
1789799306461972200,9.41097216796875,2.132258415222168,1.2496833801269531,0.5615118145942688
1789799306471944200,9.420944091796875,2.2623379230499268,1.1650654077529907,0.577407956123352
1789799306481917200,9.430917236328124,2.391808271408081,1.035568118095398,0.6096318364143372
1789799306491890200,9.44089013671875,2.5086214542388916,0.8812192678451538,0.6172926425933838
1789799306501862400,9.4508623046875,2.6161041259765625,0.6931614875793457,0.5683213472366333
1789799306511835100,9.460835205078125,2.7098023891448975,0.5106662511825562,0.4991753399372101
1789799306521808100,9.47080810546875,2.7827835083007812,0.3894062340259552,0.4440120756626129
1789799306531781000,9.480781005859376,2.8327643871307373,0.30572599172592163,0.4251459836959839
1789799306541753300,9.49075341796875,2.8466765880584717,0.22667475044727325,0.41647833585739136
1789799306551726000,9.50072607421875,2.801795482635498,0.16375090181827545,0.4140346348285675
1789799306561699000,9.510698974609374,2.724336862564087,0.17474950850009918,0.4375934600830078
1789799306571672300,9.52067236328125,2.633537530899048,0.12890106439590454,0.46892476081848145
1789799306581644300,9.530644287109375,2.555253505706787,-0.014370362274348736,0.5048673152923584
1789799306591617000,9.540616943359375,2.422637462615967,-0.15592430531978607,0.5082034468650818
1789799306601590300,9.55059033203125,2.273448944091797,-0.19286499917507172,0.4807760715484619
1789799306611563300,9.560563232421876,2.1315934658050537,-0.14931219816207886,0.42414477467536926
1789799306621535200,9.57053515625,1.982620120048523,-0.15460105240345,0.36148473620414734
1789799306631508200,9.58050830078125,1.8766816854476929,-0.18549984693527222,0.31432655453681946
1789799306641481200,9.590481201171874,1.743889570236206,-0.3348521590232849,0.27877935767173767
1789799306651454200,9.6004541015625,1.5599634647369385,-0.4222477972507477,0.24805045127868652
1789799306661426400,9.610426513671875,1.321624755859375,-0.44443634152412415,0.16714854538440704
1789799306671399200,9.620399169921875,1.1011919975280762,-0.4016028344631195,0.08398041129112244
1789799306681372200,9.6303720703125,0.9561373591423035,-0.5183942914009094,0.013928497210144997
1789799306691345200,9.64034521484375,0.7775828242301941,-0.5284171104431152,-0.0027037430554628372
1789799306701318100,9.650318115234375,0.591605007648468,-0.4546356797218323,-0.05154145509004593
1789799306711290000,9.6602900390625,0.4178398847579956,-0.40894782543182373,-0.1429978758096695
1789799306721263000,9.67026318359375,0.23448584973812103,-0.3525128960609436,-0.20014463365077972
1789799306731236000,9.680236083984376,0.0708836019039154,-0.3099824786186218,-0.2158447653055191
1789799306741209300,9.690209228515625,-0.09647461771965027,-0.17850570380687714,-0.19405719637870789
1789799306751181000,9.70018115234375,-0.25197818875312805,-0.04595564305782318,-0.15087856352329254
1789799306761154000,9.710154052734374,-0.38439950346946716,0.05790712684392929,-0.13236452639102936
1789799306771127300,9.720127197265626,-0.49697956442832947,0.1717199832201004,-0.14001472294330597
1789799306781100300,9.730100341796875,-0.5902267098426819,0.2853145897388458,-0.16469861567020416
1789799306791073300,9.7400732421875,-0.6532381772994995,0.36648958921432495,-0.18181900680065155
1789799306801045200,9.750045166015624,-0.7013920545578003,0.38439735770225525,-0.1902613788843155
1789799306811018200,9.760018310546876,-0.7547157406806946,0.33371445536613464,-0.18413875997066498
1789799306820991200,9.7699912109375,-0.8144259452819824,0.22592037916183472,-0.15426155924797058
1789799306830964200,9.779964111328125,-0.8808161616325378,0.13334225118160248,-0.11836027354001999
1789799306840936200,9.789936279296874,-0.9472948312759399,0.10324226319789886,-0.10270503163337708
1789799306850909200,9.7999091796875,-1.0074607133865356,0.13229094445705414,-0.12529422342777252
1789799306860882200,9.809882080078125,-1.0845459699630737,0.15760576725006104,-0.19111305475234985
1789799306870855200,9.819855224609375,-1.188594102859497,0.14614298939704895,-0.2787613868713379
1789799306880828200,9.829828125,-1.3402576446533203,0.12351278215646744,-0.3545382022857666
1789799306890800000,9.839800048828126,-1.5413841009140015,0.07779935747385025,-0.41324251890182495
1789799306900773400,9.8497734375,-1.7321938276290894,0.10453776270151138,-0.425190806388855
1789799306910746000,9.85974609375,-1.874542236328125,0.24944008886814117,-0.45374175906181335
1789799306920719000,9.869718994140625,-1.9821966886520386,0.41346630454063416,-0.538186252117157
1789799306930692000,9.879692138671874,-2.080925941467285,0.4554702043533325,-0.6398966312408447
1789799306940665300,9.889665283203126,-2.188380479812622,0.3499762713909149,-0.685067892074585
1789799306950637000,9.899636962890625,-2.2403290271759033,0.1803251951932907,-0.668100118637085
1789799306960610000,9.909610107421875,-2.2843897342681885,-0.021775972098112106,-0.6574621200561523
1789799306970583300,9.919583251953124,-2.3171658515930176,-0.1423007994890213,-0.6960411667823792
1789799306980556300,9.929556396484376,-2.2794928550720215,-0.11446943134069443,-0.7235745787620544
1789799306990529300,9.939529296875,-2.2202224731445312,-0.032254721969366074,-0.6804473400115967
1789799307000501200,9.949501220703125,-2.192521095275879,-0.1034410148859024,-0.6449676156044006
1789799307010474200,9.95947412109375,-2.179346799850464,-0.26939085125923157,-0.623807430267334
1789799307020447200,9.969447265625,-2.1813294887542725,-0.5340983867645264,-0.6288056969642639
1789799307030420200,9.979420166015625,-2.1585893630981445,-0.8858492374420166,-0.6883161664009094
1789799307040393200,9.989393310546875,-2.1549878120422363,-1.1322824954986572,-0.7374317049980164
1789799307050366200,9.9993662109375,-2.1936728954315186,-1.164588212966919,-0.7211449146270752
1789799307060338200,10.009338134765626,-2.176694869995117,-1.2712948322296143,-0.7328864336013794
1789799307070311400,10.0193115234375,-2.1555726528167725,-1.2806278467178345,-0.7090263366699219
1789799307080284200,10.0292841796875,-2.152679204940796,-1.1639777421951294,-0.6139510869979858
1789799307090257200,10.039257080078125,-2.03403377532959,-1.1572309732437134,-0.5543884038925171
1789799307100230100,10.049230224609374,-1.897479772567749,-1.0680350065231323,-0.477734237909317
1789799307110203400,10.059203369140626,-1.7460180521011353,-0.9155963659286499,-0.3764877915382385
1789799307120175000,10.069175048828125,-1.5439332723617554,-0.7960638999938965,-0.28365662693977356
1789799307130148000,10.079148193359375,-1.3606199026107788,-0.5955774188041687,-0.1762540191411972
1789799307140121300,10.089121337890624,-1.0784646272659302,-0.6243146657943726,-0.1563696563243866
1789799307150094300,10.09909423828125,-0.8277194499969482,-0.6250203847885132,-0.12370838224887848
1789799307160067300,10.1090673828125,-0.6140455007553101,-0.5699310302734375,-0.09678835421800613
1789799307170040000,10.1190400390625,-0.45426779985427856,-0.45214447379112244,-0.04922349750995636
1789799307180013000,10.129012939453125,-0.2805366516113281,-0.31153202056884766,0.05272498354315758
1789799307189985300,10.1389853515625,-0.0826808363199234,-0.09257995337247849,0.15608279407024384
1789799307199958300,10.148958251953125,0.14247997105121613,0.18159236013889313,0.22228963673114777
1789799307209931000,10.158930908203125,0.4044921398162842,0.45166006684303284,0.2795816957950592
1789799307219904300,10.168904296875,0.6624082326889038,0.7194682359695435,0.30239179730415344
1789799307229877200,10.178877197265624,0.9084179997444153,0.9604350328445435,0.3044933080673218
1789799307239850200,10.188850341796876,1.1411991119384766,1.1384811401367188,0.29981574416160583
1789799307249823000,10.198822998046875,1.35061776638031,1.2485495805740356,0.3259919583797455
1789799307259795200,10.208795166015625,1.535428762435913,1.3270052671432495,0.3714510500431061
1789799307269768200,10.218768310546874,1.6934417486190796,1.4098260402679443,0.4337807297706604
1789799307279741200,10.2287412109375,1.8371703624725342,1.4673306941986084,0.5317980647087097
1789799307289714200,10.238714111328125,1.9808154106140137,1.4656342267990112,0.6222280859947205
1789799307299687200,10.248687255859375,2.1200242042541504,1.4048444032669067,0.6709789037704468
1789799307309660200,10.25866015625,2.2558414936065674,1.2927212715148926,0.6940296292304993
1789799307319633200,10.268633056640626,2.393819570541382,1.197882890701294,0.6811050176620483
1789799307329607000,10.27860693359375,2.539529800415039,1.0908091068267822,0.6327827572822571
1789799307339580200,10.288580078125,2.6684792041778564,0.9459390640258789,0.5785746574401855
1789799307349551900,10.2985517578125,2.754364252090454,0.7567003965377808,0.5233460664749146
1789799307359524900,10.30852490234375,2.794806480407715,0.5411302447319031,0.4813610911369324
1789799307369498000,10.318498046875,2.813185214996338,0.35820332169532776,0.44873949885368347
1789799307379471000,10.32847119140625,2.8008551597595215,0.2720701992511749,0.39636507630348206
1789799307389443800,10.33844384765625,2.738649606704712,0.20380431413650513,0.33567696809768677
1789799307399416800,10.348416748046875,2.651315689086914,0.1328120231628418,0.3125621974468231
1789799307409390000,10.35839013671875,2.5682156085968018,0.01928066834807396,0.3496461808681488
1789799307419363000,10.368363037109376,2.4619908332824707,-0.0703752338886261,0.37639713287353516
1789799307429336000,10.378336181640625,2.3573155403137207,-0.16267719864845276,0.37838464975357056
1789799307439308000,10.38830810546875,2.263904094696045,-0.29853227734565735,0.34687891602516174
1789799307449281000,10.398281005859374,2.1555607318878174,-0.435401976108551,0.3362284004688263
1789799307459254000,10.40825390625,2.03279709815979,-0.5235514044761658,0.33637872338294983
1789799307469227000,10.41822705078125,1.9167476892471313,-0.5101133584976196,0.3097844123840332
1789799307479200000,10.428199951171875,1.7415481805801392,-0.48366835713386536,0.2660794258117676
1789799307489173000,10.438173095703124,1.5727676153182983,-0.4906242787837982,0.24608385562896729
1789799307499146000,10.44814599609375,1.3594882488250732,-0.4338434338569641,0.24417397379875183
1789799307509119000,10.458118896484375,1.160779356956482,-0.41698455810546875,0.21032573282718658
1789799307519092000,10.468092041015625,0.9060430526733398,-0.3776334524154663,0.16384479403495789
1789799307529065000,10.47806494140625,0.7321034669876099,-0.4123096764087677,0.10861855745315552
1789799307539037000,10.488036865234376,0.580561101436615,-0.406753271818161,0.0843324065208435
1789799307549010000,10.498010009765625,0.4408695101737976,-0.358303964138031,0.06393098831176758
1789799307558983000,10.50798291015625,0.322648823261261,-0.29890620708465576,0.039742834866046906
1789799307568956000,10.517955810546875,0.1911187618970871,-0.08402158319950104,0.03483995795249939
1789799307578929000,10.527928955078124,0.07114147394895554,-0.03272593393921852,-0.007248899899423122
1789799307588902000,10.53790185546875,-0.054836172610521317,-0.017766160890460014,-0.04722081869840622
1789799307598875100,10.547875244140625,-0.17963770031929016,0.015083029866218567,-0.06969350576400757
1789799307608848000,10.557847900390625,-0.3059069514274597,0.060436397790908813,-0.07574820518493652
1789799307618820900,10.56782080078125,-0.433576762676239,0.10188482701778412,-0.08913230150938034
1789799307628793900,10.5777939453125,-0.5498759746551514,0.17378804087638855,-0.11890484392642975
1789799307638767000,10.58776708984375,-0.6386802792549133,0.2461412400007248,-0.15085077285766602
1789799307648740000,10.597739990234375,-0.719852089881897,0.29853469133377075,-0.16558682918548584
1789799307658712800,10.607712890625,-0.8054518103599548,0.3409329056739807,-0.1628527045249939
1789799307668685800,10.617685791015624,-0.8972895741462708,0.3271726071834564,-0.16253259778022766
1789799307678659000,10.6276591796875,-0.9873553514480591,0.23171694576740265,-0.1682962328195572
1789799307688631000,10.637631103515625,-1.075173258781433,0.09042827785015106,-0.17949669063091278
1789799307698603800,10.647603759765625,-1.1650408506393433,0.01300216093659401,-0.1837003082036972
1789799307708577000,10.657576904296874,-1.2784984111785889,0.0340038500726223,-0.1934453397989273
1789799307718550000,10.667550048828126,-1.4281152486801147,0.09631526470184326,-0.22256436944007874
1789799307728523000,10.67752294921875,-1.606814980506897,0.15694265067577362,-0.2561021149158478
1789799307738496000,10.68749609375,-1.7702378034591675,0.2051251381635666,-0.2828531265258789
1789799307748469000,10.697468994140625,-1.9188456535339355,0.21382968127727509,-0.33279645442962646
1789799307758442000,10.70744189453125,-2.0329368114471436,0.15564893186092377,-0.42004960775375366
1789799307768415000,10.7174150390625,-2.1089835166931152,0.03171952813863754,-0.5064273476600647
1789799307778388000,10.727387939453125,-2.1372435092926025,-0.21862618625164032,-0.5766925811767578
1789799307788361000,10.73736083984375,-2.115373134613037,-0.5052947402000427,-0.588853120803833
1789799307798334000,10.747333984375,-2.1155316829681396,-0.7422942519187927,-0.5811717510223389
1789799307808307000,10.757306884765624,-2.1424500942230225,-0.7670627236366272,-0.5930103063583374
1789799307818280000,10.767280029296876,-2.1613848209381104,-0.6724022030830383,-0.6508908867835999
1789799307828253000,10.7772529296875,-2.130337953567505,-0.5707607865333557,-0.6976909041404724
1789799307838226000,10.787225830078125,-2.093362808227539,-0.46468621492385864,-0.7134972810745239
1789799307848199000,10.797198974609374,-2.0898191928863525,-0.4353022277355194,-0.712884247303009
1789799307858172000,10.807171875,-2.0835812091827393,-0.46698838472366333,-0.7060718536376953
1789799307868145000,10.817144775390625,-2.0703747272491455,-0.4942048192024231,-0.684590756893158
1789799307878118100,10.8271181640625,-2.0308032035827637,-0.611849308013916,-0.688906729221344
1789799307888091000,10.8370908203125,-2.0198261737823486,-0.6929082274436951,-0.692490816116333
1789799307898064000,10.84706396484375,-2.035477876663208,-0.7255612015724182,-0.6799554824829102
1789799307908036900,10.857036865234376,-2.0519375801086426,-0.7039546966552734,-0.6541971564292908
1789799307918010000,10.867010009765625,-2.040947914123535,-0.7174056172370911,-0.6199358701705933
1789799307927983000,10.876983154296875,-2.0451338291168213,-0.6522529721260071,-0.5390884280204773
1789799307937955800,10.886955810546874,-1.9449303150177002,-0.6725969910621643,-0.46511539816856384
1789799307947928800,10.8969287109375,-1.8023369312286377,-0.714381754398346,-0.3964806795120239
1789799307957902000,10.906902099609376,-1.6296133995056152,-0.7763591408729553,-0.3328360319137573
1789799307967874000,10.9168740234375,-1.4432765245437622,-0.7978715896606445,-0.2700203061103821
1789799307977846800,10.9268466796875,-1.2579799890518188,-0.816598653793335,-0.20844335854053497
1789799307987820000,10.936820068359374,-1.0584591627120972,-0.7437366843223572,-0.14515545964241028
1789799307997793000,10.94679296875,-0.8331617116928101,-0.6363527178764343,-0.06904353201389313
1789799308007766000,10.95676611328125,-0.606463611125946,-0.45696189999580383,0.013184226118028164
1789799308017739000,10.966739013671875,-0.40235114097595215,-0.27279990911483765,0.10062115639448166
1789799308027711700,10.976711669921874,-0.20099538564682007,-0.11077665537595749,0.19661132991313934
1789799308037685000,10.98668505859375,-0.0006426186300814152,0.05109876021742821,0.28060904145240784
1789799308047658000,10.996657958984375,0.23636406660079956,0.2614184617996216,0.3380664587020874
1789799308057631000,11.006630859375,0.48258456587791443,0.4503572881221771,0.3643158972263336
1789799308067604000,11.01660400390625,0.7308856844902039,0.6147430539131165,0.35777437686920166
1789799308077577000,11.026576904296874,0.9722070693969727,0.775119960308075,0.31393250823020935
1789799308087550000,11.036550048828126,1.1998889446258545,0.9044308066368103,0.2870335280895233
1789799308097523000,11.04652294921875,1.4115272760391235,1.0174051523208618,0.3117585778236389
1789799308107496000,11.056495849609375,1.586627721786499,1.1416845321655273,0.3601119816303253
1789799308117469200,11.06646923828125,1.7132326364517212,1.2901250123977661,0.42957887053489685
1789799308127442000,11.07644189453125,1.8247349262237549,1.3701274394989014,0.5183560848236084
1789799308137416000,11.086416015625,1.9562281370162964,1.3814021348953247,0.5923901796340942
1789799308147389000,11.096388916015625,2.117398738861084,1.3492889404296875,0.630736768245697
1789799308157362000,11.10636181640625,2.3028485774993896,1.2666516304016113,0.6408461332321167
1789799308167335000,11.1163349609375,2.477449893951416,1.098328948020935,0.6389870047569275
1789799308177308000,11.126307861328126,2.626455783843994,0.9170066714286804,0.6135215163230896
1789799308187281000,11.136281005859376,2.7462151050567627,0.785021185874939,0.5686757564544678
1789799308197254000,11.14625390625,2.8322243690490723,0.6644725203514099,0.5275068879127502
1789799308207227000,11.156226806640625,2.8848929405212402,0.5698572993278503,0.47538939118385315
1789799308217200000,11.1662001953125,2.8846566677093506,0.47620275616645813,0.4254874885082245
1789799308227172900,11.1761728515625,2.8327720165252686,0.3637648820877075,0.4164508581161499
1789799308237145900,11.186145751953125,2.7573330402374268,0.22385597229003906,0.43771663308143616
1789799308247118800,11.196118896484375,2.6931073665618896,0.07773949950933456,0.44243788719177246
1789799308257092000,11.206092041015625,2.6615235805511475,-0.01315544918179512,0.42973005771636963
1789799308267065000,11.216065185546874,2.5666277408599854,-0.03830474615097046,0.40044379234313965
1789799308277037800,11.226037841796876,2.4225146770477295,-0.17475350201129913,0.3564803898334503
1789799308287010800,11.2360107421875,2.3117916584014893,-0.3493442237377167,0.33849552273750305
1789799308296984000,11.245984130859375,2.2074077129364014,-0.4991441071033478,0.3578806519508362
1789799308306957000,11.25595703125,2.039168119430542,-0.622443437576294,0.37779179215431213
1789799308316930000,11.265929931640626,1.8400580883026123,-0.669191300868988,0.38018128275871277
1789799308326902500,11.275902587890625,1.6442118883132935,-0.6824197769165039,0.3492928743362427
1789799308336875800,11.285875732421875,1.4557547569274902,-0.7060917615890503,0.3179958462715149
1789799308346848800,11.295848876953125,1.2349834442138672,-0.7117815613746643,0.27121609449386597
1789799308356821800,11.30582177734375,1.0219793319702148,-0.7223479747772217,0.18855513632297516
1789799308366794800,11.315794677734376,0.8112982511520386,-0.5930224657058716,0.13826507329940796
1789799308376767700,11.325767822265625,0.6171731352806091,-0.5487546920776367,0.10206052660942078
1789799308386740700,11.33574072265625,0.41522109508514404,-0.36445459723472595,0.12251227349042892
1789799308396713700,11.345713623046874,0.26929324865341187,-0.1616993099451065,0.13027441501617432
1789799308406686700,11.355686767578124,0.14375369250774384,0.03467632085084915,0.11570186167955399
1789799308416660700,11.36566064453125,0.020367108285427094,0.08187495917081833,0.08084046095609665
1789799308426633500,11.375633544921875,-0.09478504955768585,0.014192587696015835,0.05561685934662819
1789799308436606700,11.385606689453125,-0.2188730686903,-0.06945249438285828,0.03886120766401291
1789799308446579700,11.395579833984375,-0.34859803318977356,-0.06769267469644547,0.0188337042927742
1789799308456552700,11.405552734375,-0.4765245318412781,0.001849793829023838,-0.002168918028473854
1789799308466525700,11.415525634765626,-0.5874702334403992,0.08668611943721771,-0.015122266486287117
1789799308476498700,11.425498779296875,-0.6769816279411316,0.14868296682834625,-0.01962834596633911
1789799308486471700,11.4354716796875,-0.7585715651512146,0.1598767638206482,-0.04350757971405983
1789799308496444700,11.445444580078124,-0.8483706116676331,0.11295703053474426,-0.07551794499158859
1789799308506417700,11.455417724609376,-0.936525285243988,0.09565100818872452,-0.10927323997020721
1789799308516391000,11.465390869140625,-1.0161164999008179,0.12742628157138824,-0.12184107303619385
1789799308526363600,11.47536376953125,-1.088845133781433,0.1118590459227562,-0.11633099615573883
1789799308536336600,11.485336669921875,-1.1506198644638062,0.019483694806694984,-0.0981593132019043
1789799308546309600,11.4953095703125,-1.2283718585968018,-0.023669635877013206,-0.08677829056978226
1789799308556283600,11.50528369140625,-1.3620060682296753,0.043661344796419144,-0.10363304615020752
1789799308566256600,11.515256591796875,-1.502278208732605,0.21527837216854095,-0.16420982778072357
1789799308576230000,11.52522998046875,-1.5955547094345093,0.334409236907959,-0.23968850076198578
1789799308586202600,11.53520263671875,-1.6605910062789917,0.3255976140499115,-0.3027665317058563
1789799308596175600,11.545175537109374,-1.7367775440216064,0.2935602068901062,-0.37984222173690796
1789799308606148600,11.555148681640626,-1.8270862102508545,0.25595346093177795,-0.5008703470230103
1789799308616121900,11.565121826171875,-1.9031938314437866,0.17825961112976074,-0.6331920623779297
1789799308626094800,11.5750947265625,-1.9500888586044312,0.010852238163352013,-0.6778514385223389
1789799308636067600,11.585067626953125,-1.9779677391052246,-0.17757603526115417,-0.6493024230003357
1789799308646040600,11.59504052734375,-2.05185866355896,-0.1964072436094284,-0.6381634473800659
1789799308656013800,11.605013916015626,-2.1149559020996094,-0.07129862904548645,-0.7252829074859619
1789799308665986800,11.61498681640625,-2.094853639602661,-0.020245831459760666,-0.8105165958404541
1789799308675960800,11.6249609375,-2.073725700378418,-0.04724007844924927,-0.7608498930931091
1789799308685933600,11.63493359375,-2.079058885574341,-0.2666001319885254,-0.713625431060791
1789799308695906600,11.644906494140624,-2.1487722396850586,-0.44640976190567017,-0.6768918037414551
1789799308705879800,11.6548798828125,-2.233022689819336,-0.5098894238471985,-0.6611056923866272
1789799308715852800,11.664852783203125,-2.225539207458496,-0.6964309215545654,-0.7076622247695923
1789799308725825800,11.67482568359375,-2.2070274353027344,-0.8227119445800781,-0.7419635057449341
1789799308735798500,11.684798583984374,-2.2444252967834473,-0.8391120433807373,-0.7042009234428406
1789799308745771500,11.694771484375,-2.2224276065826416,-1.0040301084518433,-0.6785013675689697
1789799308755744800,11.704744873046875,-2.231252908706665,-1.053025484085083,-0.615027904510498
1789799308765718800,11.71471875,-2.179455518722534,-1.009895920753479,-0.5191689729690552
1789799308775691800,11.72469189453125,-2.0626487731933594,-0.9793571829795837,-0.44366174936294556
1789799308785664800,11.734664794921875,-1.9272230863571167,-0.8783935308456421,-0.3524248003959656
1789799308795637500,11.744637451171876,-1.783544898033142,-0.706433892250061,-0.23448383808135986
1789799308805610800,11.75461083984375,-1.547526240348816,-0.738126814365387,-0.20632995665073395
1789799308815583700,11.764583740234375,-1.3192298412322998,-0.706230640411377,-0.17492038011550903
1789799308825556700,11.774556640625,-1.0859901905059814,-0.6878197193145752,-0.15161292254924774
1789799308835529700,11.78452978515625,-0.8484110832214355,-0.7069655656814575,-0.12156258523464203
1789799308845502700,11.794502685546876,-0.6084637641906738,-0.6433538198471069,-0.08251745998859406
1789799308855476700,11.804476806640626,-0.3854292929172516,-0.44013726711273193,-0.027051115408539772
1789799308865449700,11.81444970703125,-0.1484958529472351,-0.167082279920578,0.04668862372636795
1789799308875422700,11.824422607421875,0.0963907539844513,0.08276374638080597,0.11266098916530609
1789799308885395700,11.834395751953124,0.3456061780452728,0.31319642066955566,0.1533042937517166
1789799308895368700,11.84436865234375,0.5900576710700989,0.546786904335022,0.17871762812137604
1789799308905341700,11.854341796875,0.8438313603401184,0.7570317387580872,0.20972003042697906
1789799308915314700,11.864314697265625,1.0731137990951538,0.8922644853591919,0.2512243092060089
1789799308925288700,11.874288818359375,1.256299614906311,0.9933604598045349,0.28537270426750183
1789799308935261700,11.88426171875,1.4194276332855225,1.1213669776916504,0.3136706054210663
1789799308945234700,11.894234619140626,1.6040091514587402,1.2426263093948364,0.3487550616264343
1789799308955208000,11.9042080078125,1.7965986728668213,1.3558708429336548,0.37617507576942444
1789799308965180700,11.9141806640625,1.9323445558547974,1.4714664220809937,0.4120241701602936
1789799308975153700,11.924153564453125,2.0259852409362793,1.539116621017456,0.47306200861930847
1789799308985126700,11.934126708984374,2.136305332183838,1.5328367948532104,0.5472823977470398
1789799308995100000,11.944099853515626,2.263697624206543,1.4725611209869385,0.5807090401649475
1789799309005073700,11.95407373046875,2.3999106884002686,1.3781256675720215,0.5659726858139038
1789799309015046700,11.964046630859375,2.5373783111572266,1.2162290811538696,0.5347509980201721
1789799309025019600,11.97401953125,2.658804178237915,0.9753445982933044,0.49177825450897217
1789799309034992600,11.98399267578125,2.7445898056030273,0.7160090208053589,0.4230673015117645
1789799309044965600,11.993965576171876,2.77616810798645,0.4839392900466919,0.3701140582561493
1789799309054939000,12.00393896484375,2.7948532104492188,0.2643474340438843,0.32737165689468384
1789799309064913000,12.013912841796875,2.7646970748901367,0.11780539155006409,0.305057555437088
1789799309074885600,12.0238857421875,2.6723763942718506,0.010479086078703403,0.3002329170703888
1789799309084858600,12.033858642578124,2.578143358230591,-0.07194974273443222,0.2860420048236847
1789799309094831600,12.04383154296875,2.491032600402832,-0.139847069978714,0.26927632093429565
1789799309104804900,12.053804931640625,2.3647541999816895,-0.18208187818527222,0.2262721210718155
1789799309114777900,12.06377783203125,2.242828845977783,-0.229824036359787,0.18309558928012848
1789799309124750600,12.07375048828125,2.173737049102783,-0.2708497643470764,0.1617138683795929
1789799309134724600,12.083724609375,2.121232748031616,-0.2841605544090271,0.17389997839927673
1789799309144697600,12.093697509765626,2.033212423324585,-0.3618606626987457,0.19481751322746277
1789799309154670600,12.103670654296875,1.900880217552185,-0.507660984992981,0.20308634638786316
1789799309164643800,12.113643798828125,1.726391315460205,-0.625271201133728,0.20569145679473877
1789799309174616800,12.123616943359375,1.539739966392517,-0.6128659844398499,0.199517622590065
1789799309184589600,12.133589599609374,1.32020103931427,-0.47168758511543274,0.18844179809093475
1789799309194563600,12.1435634765625,1.0563633441925049,-0.4134071469306946,0.14945034682750702
1789799309204536600,12.15353662109375,0.8020548820495605,-0.34096038341522217,0.11580369621515274
1789799309214509800,12.163509765625,0.5632771849632263,-0.32414570450782776,0.057896457612514496
1789799309224482800,12.17348291015625,0.36441659927368164,-0.30002784729003906,0.0011215927079319954
1789799309234455800,12.183455810546874,0.22347718477249146,-0.2998421788215637,-0.07906071096658707
1789799309244428500,12.193428466796876,0.08049419522285461,-0.18465059995651245,-0.1400604099035263
1789799309254402600,12.203402587890626,-0.05714835226535797,-0.18717049062252045,-0.20202285051345825
1789799309264375800,12.213375732421875,-0.174136221408844,-0.12330229580402374,-0.21991422772407532
1789799309274348800,12.223348876953125,-0.29757407307624817,0.05374245345592499,-0.20209313929080963
1789799309284321800,12.23332177734375,-0.41195258498191833,0.09668006747961044,-0.17769938707351685
1789799309294294500,12.24329443359375,-0.5142099261283875,0.019956406205892563,-0.14460389316082
1789799309304268500,12.2532685546875,-0.6045593023300171,0.007483224850147963,-0.1179879903793335
1789799309314241500,12.263241455078125,-0.6748389601707458,0.07553171366453171,-0.13054408133029938
1789799309324215300,12.27321533203125,-0.7234488129615784,0.12403560429811478,-0.15404221415519714
1789799309334188000,12.28318798828125,-0.7696965336799622,0.054515380412340164,-0.16352902352809906
1789799309344161000,12.2931611328125,-0.8318579196929932,-0.06265997886657715,-0.16779060661792755
1789799309354134000,12.303134033203126,-0.9035494327545166,-0.15103992819786072,-0.1760156750679016
1789799309364108000,12.31310791015625,-0.9977773427963257,-0.17286133766174316,-0.1793491542339325
1789799309374081000,12.3230810546875,-1.1132276058197021,-0.14914532005786896,-0.17361991107463837
1789799309384054300,12.33305419921875,-1.2424383163452148,-0.10761784017086029,-0.17093998193740845
1789799309394027000,12.343027099609374,-1.3723605871200562,-0.056794825941324234,-0.17353837192058563
1789799309404000000,12.353,-1.4906212091445923,0.017101503908634186,-0.19549214839935303
1789799309413974000,12.36297412109375,-1.5938913822174072,0.09886884689331055,-0.25360631942749023
1789799309423947000,12.372947021484375,-1.6855515241622925,0.15844376385211945,-0.32588133215904236
1789799309433920300,12.382920166015625,-1.7614442110061646,0.15199744701385498,-0.3898454010486603
1789799309443893200,12.392893310546874,-1.8500856161117554,0.09571445733308792,-0.42639195919036865
1789799309453866000,12.402865966796876,-1.9315950870513916,-0.026698030531406403,-0.44598761200904846
1789799309463840000,12.412840087890626,-2.02524995803833,-0.2319377362728119,-0.4525160789489746
1789799309473813000,12.42281298828125,-2.146407127380371,-0.41039764881134033,-0.45654967427253723
1789799309483786000,12.432785888671875,-2.2252018451690674,-0.3953438699245453,-0.4817202687263489
1789799309493759200,12.44275927734375,-2.2932379245758057,-0.2555142939090729,-0.5312583446502686
1789799309503732000,12.45273193359375,-2.2873964309692383,-0.12911084294319153,-0.5486668944358826
