time,seconds_elapsed,z,y,x
1789453811632365800,0.04936572265625,7.860014412689209,5.707926395416259,-2.006490628814697
1789453811642305000,0.059304931640625,8.577975635528563,6.146364574432373,-1.8089689918518066
1789453811652244000,0.069243896484375,9.151985483551025,5.960963583374023,-0.8830114997863769
1789453811662183700,0.07918359375,8.957905511474609,5.345504119110107,-0.25752631607055665
1789453811672123000,0.089122802734375,8.820987104034423,5.2444987365722655,-0.4192845657348633
1789453811682061800,0.099061767578125,8.390180442810058,5.522974317169189,-0.9217676391601562
1789453811692000800,0.109000732421875,7.5534069625854485,5.041889421081542,-1.3253402565002441
1789453811701940700,0.118940673828125,7.7596075805664055,4.892401454925537,-1.751208876800537
1789453811711879700,0.128879638671875,7.786542349243164,4.835988078308105,-2.009184105682373
1789453811721819000,0.13881884765625,8.732700917816162,4.144961624145507,-2.2412720291137695
1789453811731758800,0.1487587890625,9.577704466247559,3.958812445068359,-2.246658982849121
1789453811741697800,0.15869775390625,10.015544094848632,4.119672869110107,-2.085050370788574
1789453811751636700,0.16863671875,11.440842270660399,4.882375735473633,-2.04285256652832
1789453811761576000,0.178575927734375,7.787739450073242,4.455609289550781,-2.2622212936401365
1789453811771516000,0.188515869140625,8.024466139221191,3.7597944320678707,-2.369810730743408
1789453811781454800,0.198454833984375,8.212410969543457,3.4038065727233886,-2.054973212432861
1789453811791393800,0.208393798828125,8.222287051391602,3.874716111755371,-2.2168810997009274
1789453811801334000,0.218333984375,8.79105958328247,4.521749110412597,-2.61761060256958
1789453811811273000,0.22827294921875,7.719205427551269,4.5510780807495115,-2.5745149726867673
1789453811821212000,0.2382119140625,7.148637244415283,4.1100960624694824,-2.5266309394836424
1789453811831151900,0.24815185546875,8.163329835510254,3.8269817161560056,-2.577806999969482
1789453811841090800,0.2580908203125,9.045144234466552,3.5462615715026855,-2.2412720291137695
1789453811851029800,0.26802978515625,9.163357941436766,3.1937153770446773,-1.9197008186340332
1789453811860968700,0.27796875,9.623343935394287,2.850446714019775,-1.48111300201416
1789453811870908700,0.28790869140625,9.658359134674072,2.399738251495361,-0.9955389778137207
1789453811880848000,0.297847900390625,10.142586420440674,1.8227356513977049,-1.253214931488037
1789453811890786800,0.307786865234375,10.498424642181396,1.1001356628417969,-2.108094561767578
1789453811900726800,0.317726806640625,8.787468280792236,1.7313070755004882,-1.962646810913086
1789453811910665700,0.327665771484375,6.457760427856445,4.473565802001953,-0.4695628005981445
1789453811920605000,0.33760498046875,3.827879541778564,9.699359838104247,1.8219874633789062
1789453811930545000,0.347544921875,3.616142332458496,12.070517307281493,3.116352735900879
1789453811940483800,0.35748388671875,5.946149460601807,7.889642658233642,2.773832260894775
1789453811950422800,0.3674228515625,6.635529901123046,4.3902176567077635,1.0254664985656738
1789453811960362000,0.377362060546875,6.520458583831787,2.11333187789917,-0.44367549514770505
1789453811970302000,0.387302001953125,7.4871175041198725,0.14484920043945312,-1.7579425689697266
1789453811980241000,0.397240966796875,9.910049584197997,1.6897078216552734,-1.8623896163940428
1789453811990179800,0.407179931640625,13.981090232086181,4.612429498291015,-1.910273649597168
1789453812000119800,0.417119873046875,14.244901327514647,4.99280828704834,-2.806004345703125
1789453812010058800,0.427058837890625,7.388805598449706,2.8555343925476073,-2.984821282196045
1789453812019998000,0.436998046875,4.538358884429932,1.0160393295288086,-2.1232079597473144
1789453812029937700,0.446937744140625,4.981735104370117,0.4212298545837402,-1.5355810897827147
1789453812039876900,0.456876953125,6.687005236816406,0.8230068206787109,-1.9840449882507323
1789453812049815800,0.46681591796875,8.519766607666016,1.5301941360473632,-2.080561242675781
1789453812059754800,0.476754638671875,10.385597888946533,2.4492682983398435,-2.194136183929443
1789453812069694700,0.48669482421875,11.476007107543944,3.1157541854858395,-1.9904794052124022
1789453812079634000,0.496634033203125,11.92596738204956,3.67120897064209,-1.5699977386474608
1789453812089572900,0.50657275390625,11.445780311584471,4.249109396362305,-1.2785036865234374
1789453812099512800,0.516512939453125,8.092850524139404,4.273649963378906,-0.38531682968139647
1789453812109451800,0.52645166015625,4.422689016723632,4.13718046875,0.5491700057983399
1789453812119391000,0.536390869140625,4.971859022521972,5.329043982696533,0.9175777862548827
1789453812129331000,0.5463310546875,5.980715747070312,5.952434239959716,1.50670103225708
1789453812139270000,0.556269775390625,5.58627102355957,5.346551582336425,1.3778630554199218
1789453812149208800,0.566208740234375,5.244049823760986,5.276521183776855,1.4863503181457518
1789453812159149000,0.576149169921875,4.9416322265625,5.4878094802856445,1.8323124580383299
1789453812169088000,0.586087890625,5.632060130310058,5.708375308227539,2.366668341064453
1789453812179027000,0.59602685546875,7.210587212371825,5.424512773895263,3.2224457969665528
1789453812188966700,0.605966552734375,9.09138225402832,4.761618189239502,3.8762124877929685
1789453812198905900,0.61590576171875,9.824456874847412,4.269759385681152,3.4747347969055173
1789453812208844800,0.6258447265625,9.623643210601806,4.426729232025147,2.3241712615966796
1789453812218783700,0.63578369140625,10.006865113830566,4.901230073547363,2.424278818511963
1789453812228723700,0.6457236328125,10.589703580474852,5.609614489746093,3.027467999267578
1789453812238663000,0.655662841796875,11.456254943847656,6.03982260055542,3.4389714096069333
1789453812248601900,0.665601806640625,12.447304793548584,6.224026490783691,4.223072453308105
1789453812258541800,0.675541748046875,12.788628167724609,6.318597456359863,4.4014404769897455
1789453812268480800,0.685480712890625,12.348843250274658,6.49935968170166,4.023156614685059
1789453812278420200,0.695420166015625,11.372607523345946,6.750900493621826,3.338414939880371
1789453812288360200,0.705360107421875,10.132411063385009,6.780977651977539,2.607435245513916
1789453812298299100,0.715299072265625,8.060678439331054,6.930315980529785,2.0226514900207517
1789453812308238000,0.725238037109375,5.412691403198242,7.25892015838623,1.3717279136657714
1789453812318178300,0.73517822265625,6.333860491943359,7.387758135223388,1.0455179374694823
1789453812328117200,0.7451171875,9.233537977600097,7.144746666717529,1.4986206016540526
1789453812338056200,0.75505615234375,10.084975942993163,6.565499502563476,2.0031986015319823
1789453812347996200,0.76499609375,10.109815785217284,5.991040741729736,1.7744027053833007
1789453812357935000,0.77493505859375,10.181941110229491,5.771821652221679,1.2472294273376463
1789453812367874000,0.7848740234375,9.536404487609863,5.57340218963623,0.44592005920410155
1789453812377814000,0.79481396484375,8.75230344390869,5.191826300048827,-0.26919804916381834
1789453812387753200,0.804753173828125,7.907299895477294,5.584325734710693,-0.39698856277465816
1789453812397692200,0.814692138671875,7.752275337982177,5.906645133209228,-0.3315969299316406
1789453812407632100,0.824632080078125,7.921814743041992,5.684732566833496,-0.22640169448852537
1789453812417571000,0.834571044921875,8.48400322036743,5.031265151214599,0.2678513107299805
1789453812427510000,0.844510009765625,9.196727127075194,4.646397234344482,1.120336739349365
1789453812437450200,0.8544501953125,9.329904594421386,4.764311666107178,1.7004817291259764
1789453812447389200,0.86438916015625,9.233687615203857,5.239261420440673,1.8140566703796386
1789453812457328000,0.874328125,8.955062397003173,5.650465555572509,1.4264952766418457
1789453812467268400,0.884268310546875,8.381651099395752,5.584924285125732,0.6223427940368652
1789453812477207300,0.894207275390625,7.157465863037109,4.970811559295654,0.19767127456665037
1789453812487146200,0.904146240234375,5.9299885993957515,4.936544548034668,-0.0010474632263183592
1789453812497086000,0.9140859375,5.795614031219482,5.164292980957031,-0.13676876983642577
1789453812507025200,0.924025146484375,6.181978324127197,5.188683910369873,0.024091654205322263
1789453812516964000,0.933964111328125,6.678625531005859,5.422866760253906,0.6236895324707031
1789453812526904000,0.943904052734375,7.263259648895263,5.512649322509765,1.079635311126709
1789453812536843000,0.953843017578125,7.406612473297119,5.551106186676025,0.9343371978759765
1789453812546782200,0.9637822265625,7.4214265960693355,5.441122547912597,0.575206948852539
1789453812556722200,0.97372216796875,7.601141358184814,5.247042575836181,0.4969464820861816
1789453812566661000,0.9836611328125,7.853879270935058,5.258714308929443,0.6012438919067382
1789453812576600000,0.99360009765625,7.694365585327148,5.256469744873047,0.5461772537231445
1789453812586539000,1.0035390625,7.389254511260986,5.227290412139892,0.43619361495971676
1789453812596479200,1.013479248046875,7.011269924163818,5.085134688568115,0.18076222534179687
1789453812606418200,1.023418212890625,6.7736454093933105,4.981585466766357,0.06569090805053711
1789453812616357000,1.033357177734375,6.875398979949951,4.981136553955078,0.2389712532043457
1789453812626297300,1.04329736328125,7.173327449035644,5.202600207519531,1.004217958831787
1789453812636236300,1.053236328125,7.8523828948974606,5.433640667724609,1.8587983139038085
1789453812646175200,1.06317529296875,8.333168515777587,5.463867463684082,2.1926398078918456
1789453812656115000,1.073114990234375,8.268225795745849,5.330241083526611,2.0471920570373534
1789453812666054100,1.08305419921875,8.035090409088134,5.270834954833984,1.8275240547180174
1789453812675993000,1.0929931640625,7.697208699798583,5.304204140472412,1.3455413330078123
1789453812685933000,1.10293310546875,7.330746208190917,5.227589687347412,0.7516296836853027
1789453812695872000,1.1128720703125,7.281964349365234,5.289988568115234,0.4016273284912109
1789453812705811000,1.12281103515625,7.297975572967529,5.344755931091308,0.3930979850769043
1789453812715751200,1.132751220703125,7.420977683258056,5.368249034881591,0.45115737533569333
1789453812725690000,1.142690185546875,7.759757218170166,5.399523294067382,0.7083844161987304
1789453812735629000,1.152629150390625,8.113500513458252,5.296422985076904,0.8545803550720215
1789453812745569300,1.1625693359375,8.365789513397216,5.132120896148681,0.9083002548217773
1789453812755508200,1.17250830078125,8.472481124877929,4.9723079353332515,0.8987234481811522
1789453812765447200,1.182447265625,8.368782265472412,4.916493109130859,0.9666589202880859
1789453812775387100,1.19238720703125,8.279897528839111,4.913500357055664,1.0485106895446776
1789453812785326300,1.202326416015625,8.039130624389648,4.996549227142333,1.2122142280578612
1789453812795265300,1.212265380859375,7.87812056274414,5.054309342193603,1.2556091331481933
1789453812805205000,1.222205078125,7.959523419189453,4.904073188018798,1.2413935607910156
1789453812815144000,1.23214404296875,7.745092733001709,4.661360994720459,0.7404068634033203
1789453812825083100,1.242083251953125,7.570316011810302,4.432265823364258,0.8005611801147461
1789453812835023000,1.252023193359375,8.218845386505127,4.573224446105956,0.5945101997375488
1789453812844962000,1.261962158203125,8.642619080352782,4.5796588630676265,1.243638124847412
1789453812854902000,1.271902099609375,9.37180312347412,4.538209246826171,1.8448820167541502
1789453812864841200,1.28184130859375,10.025869089508056,4.472667976379395,1.7657237243652342
1789453812874780200,1.2917802734375,10.230274056243896,4.247014469909668,1.8381483245849608
1789453812884719000,1.301718994140625,9.896881475067138,4.345176737976074,1.9268834236145018
1789453812894659000,1.3116591796875,9.452008879089355,4.186261602783203,1.5279495719909668
1789453812904598300,1.321598388671875,8.870367513275147,4.050689933776855,0.8803180229187011
1789453812914538200,1.331538330078125,8.186673301696777,4.059668190002441,0.15562310791015624
1789453812924477200,1.341477294921875,7.693767034912109,4.416254599761962,-0.5970540390014648
1789453812934416100,1.351416015625,7.184101356506347,4.18177247467041,-0.3480570663452148
1789453812944356000,1.361356201171875,7.566575071716308,4.178779722595214,-0.19856910018920898
1789453812954295000,1.371294921875,8.614337573242187,4.454262551116943,0.08798691101074219
1789453812964234200,1.381234130859375,8.737339683532714,4.515613968658447,0.6319196006774902
1789453812974174000,1.391174072265625,9.229497762298584,4.430021259307861,0.8744821563720703
1789453812984113200,1.401113037109375,9.235483266448973,4.4756607284545895,0.8245031967163086
1789453812994052000,1.411052001953125,8.896105181121825,4.469226311492919,0.9083002548217773
1789453813003992000,1.420991943359375,8.671199862670898,4.211699995422363,1.0027215827941893
1789453813013931000,1.430930908203125,8.36339531173706,3.999962786102295,1.054645831298828
1789453813023870200,1.4408701171875,8.06397046661377,3.8326679450988768,1.2464812393188476
1789453813033810200,1.45081005859375,7.5816884696960445,3.9374142677307127,1.7673697380065916
1789453813043749000,1.4607490234375,7.1401079010009765,3.8947675506591795,1.920449006652832
1789453813053688000,1.47068798828125,7.032518463897705,3.4050036735534666,1.3485340850830076
1789453813063628300,1.480628173828125,7.1395093505859375,2.7871500076293945,0.730381143951416
1789453813073567200,1.490567138671875,7.119308274078369,2.331054591369629,0.06075286712646484
1789453813083506200,1.500506103515625,7.16300245437622,1.7214309936523438,-0.4547486778259277
1789453813093446100,1.510446044921875,6.646902359008789,1.3648445838928223,-0.7896376350402832
1789453813103385000,1.520385009765625,5.9585693817138665,0.9689034843444824,-0.6693290016174316
1789453813113324300,1.53032421875,5.9479451118469235,0.060902504730224606,-0.07496843948364257
1789453813123264000,1.540263916015625,6.338648895263671,-0.9452607429504394,0.6808510971069336
1789453813133203000,1.550202880859375,6.547542990112304,-2.028936269378662,3.467851467132568
1789453813143142100,1.56014208984375,5.5632268325805665,-3.3476924713134766,10.639682540130615
1789453813153082000,1.57008203125,5.624877525329589,-1.786972264099121,6.859238118743896
1789453813163021000,1.58002099609375,4.141370321655273,-0.3751414726257324,4.129698588562012
1789453813172960000,1.5899599609375,2.2330419609069825,0.47016135101318357,2.0910358749389646
1789453813182900200,1.599900146484375,3.639635436248779,1.3781623306274413,-0.8741828811645508
1789453813192839200,1.609839111328125,5.801300260162353,-2.4275708457946776,-2.2117934211730956
1789453813202778000,1.619778076171875,4.996100314331055,-8.681674494934082,-1.036838956451416
1789453813212718300,1.62971826171875,7.332990772247314,-6.9253779396057125,0.3755903854370117
1789453813222657300,1.6396572265625,7.18245534286499,-5.674557209777832,2.138171720123291
1789453813232596200,1.64959619140625,7.04793113708496,-8.175001568603514,4.087051871490479
1789453813242536200,1.6595361328125,8.524106098175048,-8.049455619049072,6.696582043457031
1789453813252475100,1.66947509765625,9.482385312652587,-6.872106952667236,10.252570059204102
1789453813262415000,1.6794150390625,10.243442165374756,-7.020098542785644,13.124714225769042
1789453813272354000,1.68935400390625,10.176853431701659,-8.06950705795288,14.14778652267456
1789453813282293200,1.699293212890625,8.600271638488769,-8.346186987304687,14.159308618164061
1789453813292233200,1.709233154296875,7.887398094177246,-6.761973676300048,13.948169959259033
1789453813302172200,1.719172119140625,8.502408645629883,-5.025878197479248,13.940239166259765
1789453813312111000,1.729111083984375,7.828291240692138,-4.965574243164062,14.167987599182128
1789453813322051300,1.73905126953125,5.060893396759033,-7.363816118621826,14.068179317474364
1789453813331990300,1.748990234375,5.93103606262207,-6.742371150207519,14.912285040283201
1789453813341929200,1.75892919921875,6.423343778991699,-1.1495160720825195,18.213589854431152
1789453813351869200,1.768869140625,2.4934113914489746,2.14490541229248,20.70505595703125
1789453813361808400,1.778808349609375,-1.149216796875,-1.4181155708312987,19.093907877349853
1789453813371747300,1.788747314453125,-1.9334674781799315,-3.399018169403076,17.216704138183594
1789453813381687000,1.79868701171875,-1.5282488471984863,-4.501697671508789,15.440056868743895
1789453813391626200,1.808626220703125,-0.13302782974243163,-4.969015908050537,13.327922091674804
1789453813401566200,1.818566162109375,2.421585341644287,-7.363965756225586,10.722881047821044
1789453813411505200,1.828505126953125,1.0978910987854003,-7.5333555236816405,9.092429717254639
1789453813421444000,1.838444091796875,-3.3496377601623535,-4.530278453826904,10.28549033203125
1789453813431384300,1.84838427734375,-4.061613478851318,-2.486827336883545,13.949367060089111
1789453813441323300,1.8583232421875,-1.7709610404968261,-4.353257168579101,11.834987718963623
1789453813451262200,1.86826220703125,2.2472575332641602,-6.580014350128174,7.247248425292969
1789453813461202200,1.8782021484375,4.083161293792724,-6.810306622314453,5.543175393676758
1789453813471141400,1.888141357421875,6.451326010894775,-5.950638588714599,6.274604000854492
1789453813481080300,1.898080322265625,8.714145854949951,-5.175366163635253,6.086808808135986
1789453813491020300,1.908020263671875,7.849090867614746,-6.05239215927124,6.455964776611328
1789453813500959200,1.917959228515625,8.03194801940918,-6.070348671722412,7.794173867034911
1789453813510898200,1.927898193359375,7.816619507598877,-5.689670607757568,8.141931658172608
1789453813520838100,1.937838134765625,7.785644523620605,-5.331438184356689,8.166621862792969
1789453813530777000,1.947777099609375,8.079233502197265,-5.002085818481445,8.134449777984619
1789453813540717000,1.957717041015625,7.630470328521728,-4.818929391479492,7.605031935882568
1789453813550656300,1.96765625,6.573579933166504,-4.725405889129639,6.8964978820800775
1789453813560595200,1.97759521484375,4.888810152435302,-4.409670545196533,7.253832479858398
1789453813570535200,1.98753515625,3.674052085113525,-4.375852446746826,7.805396687316894
1789453813580474000,1.99747412109375,3.070413991546631,-4.687397937774658,8.608651344299316
1789453813590413300,2.007413330078125,1.4501380180358885,-4.83284568862915,10.140491493988037
1789453813600353300,2.017353271484375,-3.7243303199768065,-4.3628339752197265,12.18693536300659
1789453813610292200,2.027292236328125,-1.0114005638122558,-2.4628853202819823,13.182175065612793
1789453813620231200,2.037231201171875,-8.986785569000244,-1.1167454368591307,17.93346826019287
1789453813630171400,2.04717138671875,-4.628889634704589,-0.2549824768066406,16.98326947631836
1789453813640110300,2.0571103515625,0.006284779357910156,-1.0561422073364257,17.796250577545166
1789453813650050000,2.067050048828125,1.5070003074645995,-3.5516485252380368,12.707075673675536
1789453813659989000,2.076989013671875,2.1262007118225097,-4.1015667190551754,11.432013652038574
1789453813669928200,2.08692822265625,0.24944588546752927,-3.1994016059875485,11.25529164199829
1789453813679868200,2.0968681640625,0.7945756759643554,-3.2423475982666012,9.856180046844482
1789453813689807000,2.10680712890625,3.0330045906066894,-4.082263468170166,9.163507579040527
1789453813699746000,2.11674609375,3.82413860168457,-5.653308670043945,8.399607611846923
1789453813709686300,2.126686279296875,1.156249764251709,-6.795791774749755,5.638494547271728
1789453813719625200,2.136625244140625,-2.9581857887268064,-6.93974314956665,4.249259033966064
1789453813729564200,2.146564208984375,-4.173692044067383,-6.663811408233642,3.56227279510498
1789453813739504400,2.15650439453125,-2.899078935241699,-4.930110131072998,3.0334535034179684
1789453813749443300,2.166443359375,-3.7578491432189938,-4.022408426666259,2.4389433036804196
1789453813759383300,2.17638330078125,-4.54524221420288,-3.8419454765319823,1.8531120849609375
1789453813769322200,2.186322265625,-2.3591864608764648,-4.006247565460205,2.7174188842773437
1789453813779261200,2.19626123046875,0.37768531188964843,-2.2363339881896973,8.853308826446533
1789453813789201200,2.206201171875,0.36930560607910157,-0.15248071823120116,12.003778936004638
1789453813799140000,2.21614013671875,-2.2068553802490234,-4.172943856048584,8.08237589187622
1789453813809079300,2.226079345703125,0.04474164352416992,-3.4708442192077635,9.761010530853271
1789453813819019300,2.236019287109375,2.8636148231506344,-0.27623101654052734,12.408847929382324
1789453813828958200,2.245958251953125,0.09053075027465819,5.437830520629882,17.804630283355714
1789453813838897200,2.255897216796875,2.768894219970703,8.078036401367187,22.81105559234619
1789453813848837000,2.265837158203125,7.771728226470946,0.9259574920654297,24.25431028060913
1789453813858776300,2.2757763671875,6.846818197631835,-13.137134146881102,9.188048146057127
1789453813868716300,2.28571630859375,6.625354544067382,-10.097246226501465,4.931606507110596
1789453813878655200,2.2956552734375,-0.000748188018798828,-14.095413361358641,4.187757978820801
1789453813888594200,2.30559423828125,-2.1818659004211423,-13.78371823272705,2.989609685516357
1789453813898534400,2.315534423828125,-4.743811314392089,-10.437971050262451,6.124667121887207
1789453813908473300,2.325473388671875,-4.119972144317627,-13.45152275238037,4.70520481262207
1789453813918412300,2.335412353515625,-1.1137526847839354,-13.517363298034667,4.786009118652344
1789453813928352000,2.34535205078125,-0.5810428153991699,-12.320711380767822,7.20145931854248
1789453813938291200,2.355291259765625,-1.1565490394592284,-10.257208824920653,7.441029122161865
1789453813948231200,2.365231201171875,-2.721758374786377,-7.997232095336914,8.070853796386718
1789453813958170000,2.375170166015625,-2.507327688598633,-5.005976396179199,10.122385343933106
1789453813968109000,2.385109130859375,-1.6578350120544432,-5.390694675445556,9.330652782440184
1789453813978049300,2.39504931640625,-1.7969979835510252,-5.765536872863769,6.864176159667968
1789453813987988200,2.40498828125,-2.986616933441162,-5.68188945236206,5.167734645843505
1789453813997927200,2.41492724609375,-2.0069395416259765,-5.334580574035644,3.4651579902648924
1789453814007867400,2.424867431640625,-0.7462427299499511,-5.416133068084717,2.1808184371948243
1789453814017806300,2.434806396484375,-0.9344868354797363,-6.076633451080322,1.0461164878845215
1789453814027746300,2.444746337890625,0.9714473236083984,-7.307702017211914,1.8115128311157225
1789453814037685200,2.454685302734375,-0.37289690856933594,-7.338078450775146,6.317400355529784
1789453814047624200,2.464624267578125,-1.4257470886230468,-4.817582653045654,10.720636483764649
1789453814057564200,2.474564208984375,0.869544115447998,-5.322609565734863,13.135188858032226
1789453814067503000,2.484503173828125,-0.06943184814453125,-4.907963765716552,11.042357331848144
1789453814077442000,2.494442138671875,-1.6493056686401366,-4.433911837005615,9.717615625762939
1789453814087382300,2.50438232421875,-1.8025345748901367,-8.156895418548583,11.098621070861816
1789453814097321200,2.5143212890625,1.5101426971435545,-6.683563571929931,9.873089096069336
1789453814107261200,2.52426123046875,-1.0283096130371092,-5.255871194458008,10.213664282226562
1789453814117200100,2.5342001953125,-1.2297218276977537,0.5741594856262207,18.613720806884764
1789453814127139300,2.544139404296875,0.07392097625732422,1.0458172126770018,19.047669857788083
1789453814137079300,2.554079345703125,-0.9516951599121093,-4.358793759918212,10.868628073883055
1789453814147018200,2.564018310546875,-3.4249054748535155,-7.056610118103027,7.063343810272216
1789453814156957200,2.573957275390625,-1.8490718696594237,-7.089979303741455,9.407716148376464
1789453814166897400,2.5838974609375,-0.4643254844665527,-7.48906279296875,9.724199680328368
1789453814176836400,2.59383642578125,-1.4395137481689453,-6.653336775970459,9.322721989440918
1789453814186776000,2.603776123046875,-1.6811784782409667,-6.284779357910156,9.464428800201416
1789453814196715000,2.613715087890625,-2.3139959045410157,-5.755361515808105,10.170867927551269
1789453814206654200,2.623654296875,-3.318363500976562,-4.769399344635009,11.208604709625243
1789453814216594200,2.63359423828125,-3.2056863853454587,-2.5966613380432126,8.972569996643067
1789453814226533000,2.643533203125,1.176600478363037,-3.056796969604492,6.90173519821167
1789453814236472000,2.65347216796875,-3.010708587646484,-4.227112668609619,6.721421885681152
1789453814246412300,2.663412353515625,-5.085134688568115,-3.196408853912353,6.157288119506836
1789453814256351200,2.673351318359375,-5.89242956085205,-2.1709423553466793,4.7286979164123535
1789453814266291200,2.683291259765625,1.1212345649719238,-3.271826206207275,6.324582960510254
1789453814276230100,2.693230224609375,0.7815572044372558,-5.793818379974365,8.365190962982178
1789453814286170000,2.703170166015625,-1.3290811965942382,-5.70747748260498,10.089165795898436
1789453814296109800,2.71310986328125,-0.38681320571899414,-5.428852264404297,10.236708473205566
1789453814306049000,2.723049072265625,-1.0984896492004395,-6.006303777313232,9.128193104553223
1789453814315988000,2.732988037109375,-1.7663222747802734,-5.839308211517333,8.35740980758667
1789453814325928000,2.742927978515625,-3.0713118171691893,-8.351573941040039,7.484424027252197
1789453814335867000,2.752866943359375,-0.5240308883666992,-8.268973983764647,8.111555224609374
1789453814345807000,2.76280712890625,-1.6630723281860351,-6.8314055244445795,7.982866885375976
1789453814355746000,2.77274609375,-1.5779285316467284,-4.830451486968994,8.481459381103516
1789453814365685000,2.78268505859375,-1.948580876159668,-3.925143984222412,8.35127466583252
1789453814375625000,2.792625,-2.0395605392456053,-3.7669770370483397,8.12636934738159
1789453814385564200,2.802564208984375,-0.8604162216186523,-4.44977342300415,8.209418217468262
1789453814395503000,2.812503173828125,-0.6018424423217773,-4.8014217918396,8.304288458251953
1789453814405443000,2.822443115234375,-1.7272668601989745,-4.809053309631348,7.811232553863525
1789453814415382000,2.832382080078125,-2.0814590682983396,-3.854215760040283,6.9348051086425775
1789453814425322000,2.842322021484375,-3.8735190109252926,-1.0266635993957518,5.593902541351318
1789453814435261000,2.852260986328125,-3.67749375,-0.616058014678955,5.7338137008666985
1789453814445200000,2.862199951171875,-5.198709629821777,-0.812083275604248,6.770503019714355
1789453814455140000,2.87214013671875,-6.211456932067871,1.7708114028930664,6.1361892173767085
1789453814465079000,2.8820791015625,-6.355258669281006,1.7778443702697753,5.671863732910156
1789453814475019000,2.89201904296875,-6.2684688591003415,1.8638859924316404,6.447136157989502
1789453814484958000,2.9019580078125,-4.6821606216430665,0.09202712631225586,6.3898249557495115
1789453814494897200,2.911897216796875,-2.659060218811035,-1.0613795234680174,6.354809756469726
1789453814504837000,2.921837158203125,-2.3699603683471677,-5.118503874206542,8.40185217590332
1789453814514776000,2.931776123046875,-1.1013327636718748,-8.190563879394531,11.61367370300293
1789453814524715800,2.9417158203125,-1.8969559028625487,-2.1273978126525876,10.270825846862792
1789453814534655000,2.951655029296875,-7.260865447235107,-7.313837158966064,5.661089825439452
1789453814544594200,2.96159423828125,-4.515763606262206,-5.368398672485351,3.7166988021850584
1789453814554534000,2.971533935546875,-4.089146797943115,-6.310068112945556,3.4766800857543942
1789453814564472800,2.981472900390625,-3.041384296417236,-10.132859976196288,5.924302370452881
1789453814574412000,2.991412109375,-0.2889502128601074,-3.595193067932129,7.990498403167724
1789453814584352000,3.00135205078125,-4.750245731353759,2.131886940765381,4.582950890350341
1789453814594291000,3.011291015625,-6.130652626037597,1.4535796829223633,4.910657242584228
1789453814604231200,3.021231201171875,0.7529764221191406,-0.5319616813659668,3.3131261848449705
1789453814614170000,3.031170166015625,-0.5442319648742675,-9.479542198181152,4.306719873809814
1789453814624109000,3.041109130859375,1.3708300880432127,-10.95466969604492,5.716755014038085
1789453814634049000,3.051049072265625,-2.8884546653747556,-10.588656117248535,6.251410172271728
1789453814643988000,3.060988037109375,-5.47119970626831,-11.225214483642578,7.454496506500243
1789453814653928000,3.070927978515625,0.1379658706665039,-6.866121448516846,7.203404607391357
1789453814663867000,3.080866943359375,0.45893853073120117,-11.160421401214599,11.582549081420897
1789453814673806000,3.09080615234375,-6.396109735107421,-8.2483239944458,11.667543240356444
1789453814683746000,3.10074609375,-4.340388334655762,-2.1594202598571774,8.906729450988768
1789453814693685000,3.11068505859375,-3.2052374725341797,-8.649951322937012,3.4946365982055663
1789453814703625000,3.120625,-5.817012208557129,-16.51610087738037,3.860051626586914
1789453814713564000,3.13056396484375,-4.876689506530761,-13.565546606445311,6.8692638381958
1789453814723503000,3.140503173828125,-3.3988685317993164,-14.289792608642577,8.960299713134765
1789453814733443000,3.150443115234375,-0.7839514060974121,-15.968277610015868,8.010250566864013
1789453814743382000,3.160382080078125,0.18166005096435545,-14.873977813720701,7.191433599090575
1789453814753322200,3.170322265625,-2.140715559387207,-11.571775173950195,7.512406259155273
1789453814763261200,3.18026123046875,-1.213560966491699,-10.33651675491333,4.215440935516357
1789453814773200100,3.1902001953125,-4.453215087890625,-11.122862362670897,-0.7113771682739257
1789453814783139800,3.200139892578125,-5.295076246643066,-8.84253491897583,3.4002152702331543
1789453814793078800,3.210078857421875,-7.784297785186767,-2.5287258659362792,2.292597727203369
1789453814803019000,3.22001904296875,-4.922927526092529,-5.18389550704956,4.007893579101562
1789453814812958000,3.2299580078125,-3.5730467025756836,-8.01144766769409,5.993135668182373
1789453814822897000,3.23989697265625,-3.825485340118408,-9.533561373138427,5.004928932952881
1789453814832837000,3.249837158203125,-3.914220439147949,-10.204237113189697,4.591031320953369
1789453814842776000,3.259776123046875,-5.566668497467041,-11.649886003112792,4.463839357757568
1789453814852716000,3.269716064453125,-7.656357633972168,-13.941885179901123,5.004629657745361
1789453814862655000,3.279655029296875,-6.417507912445068,-15.38678588180542,6.571185731506347
1789453814872594200,3.28959423828125,-4.257040189361572,-15.529390518188476,7.209240473937988
1789453814882534100,3.2995341796875,-2.7067946144104003,-14.232780681610107,7.136516598510742
1789453814892473000,3.30947314453125,-0.5705681831359863,-11.921029341125488,7.222109307861328
1789453814902413000,3.3194130859375,-5.538087715148926,-9.491812481689452,6.795492499542236
1789453814912352000,3.32935205078125,-4.8600797325134275,-3.11545491027832,5.473893183135986
1789453814922291000,3.339291015625,-4.10530765914917,0.03845686416625976,3.9778164207458495
1789453814932231000,3.34923095703125,-5.378873304748534,-0.6551134292602538,4.091092086791992
1789453814942169900,3.359169921875,-6.07768091430664,-2.5637410652160644,5.782296284484863
1789453814952110000,3.369110107421875,-4.357596659088134,-5.073014042663574,5.95018967590332
1789453814962049000,3.379049072265625,-3.094954558563232,-6.470030711364745,4.824615620422363
1789453814971988000,3.388988037109375,-4.187757978820801,-6.862530146026611,3.0582933456420895
1789453814981928200,3.39892822265625,-4.640561367797852,-6.44144992904663,2.983324906158447
1789453814991867100,3.4088671875,-4.489726663208008,-5.992088204956055,3.4974797126770016
1789453815001806800,3.418806884765625,-5.273827706909179,-5.591957252502441,5.269039303588867
1789453815011746000,3.42874609375,-6.013486382293701,-5.596296743011474,6.544849513244628
1789453815021685200,3.438685302734375,-3.7861306503295897,-5.1794063789367675,6.363488737487793
1789453815031625000,3.448625,-4.029740669250488,-5.399972206878662,5.653308670043945
1789453815041564000,3.45856396484375,-4.674229828643798,-5.768679262542724,4.844367784118652
1789453815051503900,3.46850390625,-4.492719415283203,-5.676203223419189,4.716277995300293
1789453815061443000,3.478443115234375,-5.469404055023193,-5.740248117828369,4.651484912872315
1789453815071382000,3.488382080078125,-4.983979668426513,-5.935225915527344,5.0203416061401365
1789453815081322000,3.498322021484375,-4.383035051727295,-6.118681617736816,5.480028324890136
1789453815091261000,3.508260986328125,-4.720467848205566,-6.133495740509033,5.103240838623047
1789453815101201200,3.518201171875,-5.577592042541504,-5.768679262542724,4.760720363616943
1789453815111140000,3.52814013671875,-5.524321055603027,-5.019892693328857,5.379471855163574
1789453815121079000,3.5380791015625,-5.702389804077148,-4.741117837524413,6.341641647338867
1789453815131019000,3.54801904296875,-4.975001412200927,-4.846761985778809,6.114641402435303
1789453815140958000,3.5579580078125,-4.007295028686523,-4.814290625762939,5.548412709808349
1789453815150898000,3.56789794921875,-4.355801007843017,-4.760421088409424,5.6857800300598145
1789453815160836900,3.5778369140625,-5.58642066116333,-4.781220715332031,6.779182000732422
1789453815170777000,3.587777099609375,-5.851728132629394,-5.261707061004638,6.544699875640869
1789453815180716000,3.597716064453125,-5.457881959533691,-5.814169094085693,5.165340444183349
1789453815190655000,3.607655029296875,-5.747729998016357,-5.588066674804687,4.80112251663208
1789453815200595000,3.617594970703125,-5.935225915527344,-5.319467176055908,6.242132640838623
1789453815210534100,3.6275341796875,-4.868160163116455,-5.240458521270751,5.30495232849121
1789453815220474000,3.63747412109375,-4.510825565338134,-4.3610383239746096,3.9510312896728514
1789453815230413000,3.6474130859375,-5.084985050964355,-3.9636008483886718,4.781220715332031
1789453815240352000,3.65735205078125,-4.80740729598999,-3.6367923217773437,6.42903000793457
1789453815250292000,3.6672919921875,-5.290437480926514,-4.3740567955017085,6.507889025115967
1789453815260231000,3.67723095703125,-6.066757369232177,-5.408202275085449,4.713734156036376
1789453815270171400,3.68717138671875,-5.473593907928467,-5.141398427581787,3.343053705596924
1789453815280110600,3.697110595703125,-4.370914405822754,-3.7957074569702147,6.672490389251709
1789453815290050600,3.707050537109375,-6.510133589172363,-4.079869266510009,8.276755139160155
1789453815299989500,3.716989501953125,-6.004957038879394,-4.8223710563659665,7.462576937103271
1789453815309928400,3.726928466796875,-4.912303256225585,-5.47763412322998,5.651513018798828
1789453815319868700,3.73686865234375,-5.136161111450195,-5.702389804077148,3.7761049308776853
1789453815329807600,3.7468076171875,-6.394164446258545,-5.4779333984375,5.067776726531982
1789453815339747300,3.756747314453125,-6.2392895263671875,-5.8557683479309075,6.552032118225097
1789453815349686500,3.7666865234375,-5.96275923461914,-6.430526383972167,6.810156984710693
1789453815359625500,3.77662548828125,-6.075735625457764,-7.022193469238281,6.274454363250732
1789453815369565400,3.7865654296875,-5.619490571594238,-6.937947498321533,5.399672931671142
1789453815379504400,3.79650439453125,-6.465840858459472,-6.324882235717773,5.428104076385497
1789453815389444600,3.806444580078125,-6.629694034576415,-6.26338118057251,5.445312400817871
1789453815399383600,3.816383544921875,-5.421819297027588,-6.272658712005615,5.516839175415039
1789453815409323500,3.826323486328125,-5.463119275665283,-6.401646326446532,4.92846411743164
1789453815419262500,3.836262451171875,-5.472546444702148,-6.245574305725097,4.819378304290772
1789453815429201700,3.84620166015625,-5.85412233428955,-5.8732759475708,4.251353960418701
1789453815439141600,3.8561416015625,-6.328623175811767,-4.971110834503174,3.893720087432861
1789453815449080600,3.86608056640625,-6.574477758789062,-4.13089568939209,5.3016603012084955
1789453815459020500,3.8760205078125,-5.67530539779663,-3.924395796203613,6.019022973632812
1789453815468959500,3.88595947265625,-5.8451440780639645,-4.27140539932251,5.711368060302734
1789453815478899500,3.8958994140625,-5.6477720787048336,-4.843320320892333,5.093065481567383
1789453815488838400,3.90583837890625,-6.005555589294433,-4.940884038543701,4.8509518386840815
1789453815498777600,3.915777587890625,-6.09054974822998,-4.923974989318848,6.263830093383788
1789453815508717600,3.925717529296875,-5.8083332275390624,-5.030068050384521,6.852654064178466
1789453815518656500,3.935656494140625,-5.554847126770019,-5.050119489288329,6.433070223236084
1789453815528596500,3.945596435546875,-5.404610972595215,-4.927117378997803,6.237942787933349
1789453815538535700,3.95553564453125,-4.5602059745788575,-5.831676693725585,5.086930339813232
1789453815548475400,3.965475341796875,-6.027851592254638,-5.586719936370849,5.986401976013183
1789453815558414300,3.975414306640625,-4.88447066192627,-6.404489440917969,6.69104545211792
1789453815568353500,3.985353515625,-5.365405920410156,-6.664260321044922,6.901884835815429
1789453815578293500,3.99529345703125,-5.558737704467773,-6.548440815734863,6.513126341247558
1789453815588232400,4.005232421875,-4.937292736053466,-6.583456015014648,5.613953980255126
1789453815598172400,4.01517236328125,-5.232827003479003,-3.712508949279785,6.4549173133850095
1789453815608111600,4.025111572265625,-3.535038751220703,-1.101183126068115,7.302165425872802
1789453815618051600,4.035051513671875,-4.070142822265625,-2.8151322395324705,4.746355153656006
1789453815627990500,4.044990478515625,-5.0014872680664055,-3.4292449653625487,4.573523721313476
1789453815637930500,4.054930419921875,-4.417451700592041,-4.41131655883789,5.560533355712891
1789453815647869700,4.06486962890625,-4.603750517272949,-5.511901134490967,5.600336958312988
1789453815657808600,4.07480859375,-5.459827248382568,-6.078578739929199,5.6006362335205075
1789453815667748400,4.084748291015625,-5.4056584358215325,-6.2222308395385735,5.990442191314697
1789453815677687300,4.094687255859375,-5.214720853424072,-6.242731191253662,6.227468155670166
1789453815687627500,4.10462744140625,-5.021688344573974,-6.302735870361328,6.469282523345947
1789453815697566500,4.11456640625,-4.89060580368042,-6.9521630706787105,5.9862523384094235
1789453815707505400,4.12450537109375,-5.223549472045898,-7.250540452575684,4.346972389221191
1789453815717445600,4.134445556640625,-5.826738652801513,-6.721272248077392,4.537760334014893
1789453815727384600,4.144384521484375,-4.969913733673096,-6.145017835998535,5.1410991523742675
1789453815737324500,4.154324462890625,-4.630236373138428,-6.207416716766357,5.316324786376953
1789453815747263500,4.164263427734375,-4.414758223724365,-6.93345837020874,5.514145698547363
1789453815757203500,4.174203369140625,-4.230853608703613,-7.432350141143798,4.050390658569336
1789453815767142700,4.184142578125,-6.2858268211364745,-6.865522898101807,4.236240562438964
1789453815777082400,4.194082275390625,-6.0990790916442865,-5.7966614944458,6.377704309844971
1789453815787021300,4.204021240234375,-4.782717091369628,-4.977694889068603,6.8119526359558105
1789453815796960500,4.21396044921875,-4.154987343597412,-4.720467848205566,6.0154316711425775
1789453815806900500,4.223900390625,-4.192396744537353,-5.60527499923706,3.950582376861572
1789453815816839400,4.23383935546875,-5.728127471923828,-6.432770948028564,2.8459575859069823
1789453815826779600,4.243779541015625,-5.89886397781372,-6.789357357788085,5.015253927612305
1789453815836718600,4.253718505859375,-4.30896443786621,-7.424568985748291,6.964732629394531
1789453815846658600,4.263658447265625,-4.187458703613281,-7.828141603088379,6.672191114044189
1789453815856597500,4.273597412109375,-4.819677579498291,-7.872284696197509,6.045209554290771
1789453815866537500,4.283537353515625,-4.624999057006836,-7.50148271408081,5.063437236022949
1789453815876476400,4.293476318359375,-4.732289218902587,-6.878391732025146,4.816235914611816
1789453815886415400,4.303415283203125,-4.265868807983399,-6.201281575012207,5.201852019500732
1789453815896355600,4.31335546875,-4.227711219024658,-5.86744008102417,5.3472997703552245
1789453815906294500,4.32329443359375,-4.153191692352294,-5.7788546195983885,5.708225670623779
1789453815916234500,4.333234375,-2.9640216552734375,-5.87387449798584,4.695328730773926
1789453815926173400,4.34317333984375,-4.008492129516601,-6.075735625457764,3.2013468948364254
1789453815936113700,4.35311376953125,-4.493916516113281,-6.547991902923584,3.446453289794922
1789453815946052600,4.363052490234375,-4.106205484771729,-7.294982820892334,3.651307169342041
1789453815955992600,4.37299267578125,-4.801721067047119,-8.066514305877686,4.48164623260498
1789453815965931500,4.382931640625,-4.328716601562499,-8.9002950340271,4.97335539855957
1789453815975870700,4.39287060546875,-5.335927312469482,-9.163657216644287,4.659864618682861
1789453815985810400,4.402810546875,-5.402665683746338,-8.867075485992432,4.519654183959961
1789453815995749400,4.412749267578125,-4.395903885650634,-8.016984259033203,4.358045571899414
1789453816005689600,4.422689697265625,-4.391564395141601,-7.3419690284729,4.225017742156982
1789453816015628500,4.432628662109375,-3.3467946456909177,-7.175123100280762,3.8417958389282223
1789453816025568500,4.442568603515625,-3.6188358093261717,-7.152527822113036,3.414430842590332
1789453816035507500,4.452507568359375,-4.707000463867187,-7.524077992248535,3.3719337631225583
1789453816045446400,4.4624462890625,-3.69036258392334,-7.757811929321289,4.320187258148193
1789453816055386600,4.47238671875,-3.1495722839355467,-7.805097412109374,4.690689965057373
1789453816065325600,4.48232568359375,-3.286640328979492,-7.867047380065918,4.134038079071044
1789453816075265300,4.492265380859375,-4.169053278350829,-7.8258970390319815,3.5619735198974607
1789453816085204500,4.50220458984375,-4.476408916473388,-7.7587097549438475,3.494786235809326
1789453816095144400,4.51214453125,-3.948038537597656,-7.911789023590088,3.8717233596801757
1789453816105083400,4.52208349609375,-2.7205612739562985,-7.99962629699707,3.427150038909912
1789453816115023600,4.532023681640625,-3.4784757369995116,-8.15928962020874,2.2201731269836427
1789453816124962600,4.541962646484375,-5.088725991058349,-8.57408505783081,1.9831471626281738
1789453816134901500,4.551901611328125,-5.600187320709228,-9.389759635925293,3.3571196403503416
1789453816144841500,4.561841552734375,-4.14930111465454,-10.747122339630126,4.684405185699463
1789453816154780700,4.57178076171875,-3.112312520599365,-11.444283935546874,4.638316803741454
1789453816164720600,4.581720703125,-3.5990836456298827,-11.729193933105469,3.5998318336486816
1789453816174659600,4.59165966796875,-3.650708618927002,-11.551723735046385,2.905363714599609
1789453816184599300,4.601599365234375,-3.3580174659729,-10.829871934509276,2.390161444854736
1789453816194538500,4.61153857421875,-3.706822720336914,-10.14453170928955,2.4076690444946287
1789453816204478500,4.621478515625,-3.947888899993896,-9.775375740814209,3.225139273834228
1789453816214417400,4.63141748046875,-3.67749375,-9.447220475769042,3.040336833190918
1789453816224357600,4.641357666015625,-4.178031534576416,-9.458592933654785,2.66878666305542
1789453816234296600,4.651296630859375,-3.4268507637023924,-9.523834928894042,2.0944775398254394
1789453816244235500,4.661235595703125,-3.0621839233398433,-9.12370397644043,1.5315408744812011
1789453816254175500,4.671175537109375,-3.279607361602783,-8.703072672271729,0.8762778076171874
1789453816264114700,4.68111474609375,-3.1830911071777344,-7.944410021209716,0.5550058723449707
1789453816274054100,4.69105419921875,-3.0858266647338866,-7.331045483398437,0.5966051261901855
1789453816283993000,4.7009931640625,-3.1299697578430172,-7.166294481658936,0.7351695472717285
1789453816293933000,4.71093310546875,-3.174262488555908,-7.349899821472167,0.8481459381103515
1789453816303872000,4.7208720703125,-3.2646436012268065,-7.74404526977539,1.025316860961914
1789453816313812000,4.73081201171875,-3.6640263656616208,-8.156446505737303,1.7325041763305664
1789453816323751200,4.740751220703125,-3.6418800003051754,-8.751405618286132,2.93678761138916
1789453816333690000,4.750690185546875,-3.3029508277893065,-9.37240167388916,3.7912183288574215
1789453816343630000,4.760630126953125,-3.2236428977966307,-9.738115977478026,3.9893385162353514
1789453816353569000,4.770569091796875,-3.1841385704040523,-9.87727894897461,3.810671217346191
1789453816363509200,4.78050927734375,-3.423259461212158,-9.639205521392821,3.4343326438903805
1789453816373448200,4.7904482421875,-3.394379403686523,-9.317335035705566,3.2392052085876464
1789453816383388200,4.80038818359375,-3.4503438674926756,-9.114875357818603,3.155108875274658
1789453816393327000,4.8103271484375,-3.442263436889648,-8.922441399383544,2.9604303527832028
1789453816403267000,4.82026708984375,-3.350385948181152,-8.95700768585205,2.324320899200439
1789453816413206000,4.8302060546875,-3.7370495162963864,-9.284414762878418,2.526481301879883
1789453816423146000,4.84014599609375,-3.4783260993957517,-9.70968483276367,2.6728268783569336
1789453816433085200,4.850085205078125,-3.1380501884460448,-9.76116016845703,2.3389853843688964
1789453816443024100,4.860024169921875,-3.274519683074951,-9.718513451385498,2.065298207092285
1789453816452964000,4.869964111328125,-3.078644059753418,-9.875034384918212,1.974617819213867
1789453816462903000,4.879903076171875,-3.3348236373901363,-9.762806182098387,1.7268179473876952
1789453816472843300,4.88984326171875,-3.7599440696716306,-9.664045363616943,1.8174983352661132
1789453816482782200,4.8997822265625,-4.071938473510742,-9.561393967437743,2.5164555824279784
1789453816492722000,4.909721923828125,-3.8476317054748534,-9.482385312652587,3.1932664642333983
1789453816502660900,4.919660888671875,-3.392583752441406,-9.251943402862548,3.1763574150085447
1789453816512601000,4.92960107421875,-3.6854245429992676,-9.049334087371825,2.9735984619140625
1789453816522540000,4.9395400390625,-3.72866981048584,-8.913762418365478,2.653224352264404
1789453816532480000,4.94947998046875,-3.5339912879943847,-9.09796630859375,2.6216508178710938
1789453816542419200,4.959419189453125,-2.935590510559082,-9.343970529174804,2.1812673500061033
1789453816552359200,4.969359130859375,-2.897133646392822,-9.392902025604247,1.6436194396972654
1789453816562298000,4.979298095703125,-3.0741549316406247,-9.586233809661865,1.4130278923034667
1789453816572237000,4.989237060546875,-3.224690361022949,-9.80605144958496,1.598578520965576
1789453816582177300,4.99917724609375,-3.4323873550415036,-9.784802909851074,1.8166005096435547
1789453816592116200,5.0091162109375,-3.385550785064697,-9.386916521453857,2.1260510742187497
1789453816602056000,5.019055908203125,-3.334524362182617,-9.024344607543945,2.4862287864685055
1789453816611995000,5.028994873046875,-3.2083798622131345,-8.853757739257812,2.823811220550537
1789453816621935000,5.03893505859375,-2.8892028533935545,-8.635436475372314,2.880673509979248
1789453816631874000,5.0488740234375,-2.6779145568847653,-8.503007196044921,2.5754127983093262
1789453816641814000,5.05881396484375,-2.6039935806274412,-8.33167213973999,2.3312042289733887
1789453816651753200,5.068753173828125,-2.3319524169921872,-8.225429441070556,1.8809446792602538
1789453816661693200,5.078693115234375,-2.468721186828613,-8.239645013427733,1.5269021087646484
1789453816671632100,5.088632080078125,-3.0647277626037597,-8.352172491455077,1.4068927505493163
1789453816681571000,5.098571044921875,-3.7957074569702147,-8.628104232788086,1.6799813774108885
1789453816691511000,5.108510986328125,-4.297591979980469,-8.801384577941894,2.503137835693359
1789453816701450000,5.118449951171875,-4.154688068389892,-8.802581678771972,3.371634487915039
1789453816711390000,5.128389892578125,-3.8042368003845213,-8.655936827087402,4.078073615264892
1789453816721329200,5.1383291015625,-3.2447417999267576,-8.523657185363769,4.479401668548584
1789453816731269000,5.14826904296875,-3.0397382827758785,-8.587851717376708,4.547786053466797
1789453816741208000,5.1582080078125,-3.2893338058471677,-8.753650182342529,4.441992267608643
1789453816751148000,5.16814794921875,-3.3732805015563962,-8.898499382781981,4.017470385742187
1789453816761087200,5.178087158203125,-3.404105847930908,-9.059509444427489,3.6236242126464844
1789453816771027200,5.188027099609375,-3.4193688835144043,-9.122057962799072,3.3731308639526367
1789453816780966100,5.197966064453125,-3.4843116035461423,-8.949825080871582,3.3104327079772946
1789453816790906000,5.207906005859375,-3.5136405738830563,-8.8489693359375,3.1735143005371094
1789453816800845000,5.217844970703125,-3.522918105316162,-8.76562119064331,2.954744123840332
1789453816810784000,5.227783935546875,-3.901351605224609,-8.649652047729491,2.8070518089294434
1789453816820724000,5.237723876953125,-4.20736050491333,-8.483853582763672,3.1159038230895995
1789453816830663200,5.2476630859375,-3.8043864379882812,-8.471134386444092,3.3678935478210446
1789453816840603100,5.25760302734375,-3.3891420875549314,-8.460360478973389,3.4015620086669918
1789453816850542000,5.2675419921875,-3.384952234649658,-8.500463356781005,3.515136949920654
1789453816860482000,5.27748193359375,-3.469048567962646,-8.52844558868408,3.667168755340576
1789453816870421200,5.287421142578125,-3.489548919677734,-8.54894594039917,3.624522038269043
1789453816880361000,5.29736083984375,-3.8865374824523924,-8.63154589767456,3.4503438674926756
1789453816890300200,5.307300048828125,-4.3339539176940916,-8.6321444480896,3.59429524230957
1789453816900240100,5.317240234375,-4.470124137115478,-8.39616594696045,4.095730852508544
1789453816910179000,5.327178955078125,-4.094084838867187,-8.436717737579345,4.416703512573242
1789453816920119000,5.337119140625,-3.9543233169555663,-8.56181477432251,4.4856864479064935
1789453816930058000,5.34705810546875,-4.059518552398681,-8.588300630187987,4.5708302444458
1789453816939997200,5.3569970703125,-4.093935201263427,-8.583362589263915,4.516661431884765
1789453816949937200,5.366937255859375,-4.337096307373047,-8.467243808746337,4.59028313293457
1789453816959876000,5.3768759765625,-4.237587300872803,-8.527996675872803,4.535964682769775
1789453816969816300,5.38681640625,-4.224868104553223,-8.387636603546142,4.489577025604248
1789453816979755300,5.39675537109375,-4.125209460449218,-8.147917162322997,4.402487940216064
1789453816989695000,5.406695068359375,-3.8212954872131344,-7.866748104858398,4.061014928436279
1789453816999634000,5.416634033203125,-4.240580052947998,-7.486518953704834,3.912424787902832
1789453817009574100,5.42657421875,-4.375253896331787,-7.522581616210937,3.759644794464111
1789453817019513000,5.43651318359375,-4.616320075988769,-7.7224974548339835,4.115931929016113
1789453817029453000,5.446453125,-4.438999515533447,-7.516446474456787,4.377648097991943
1789453817039392000,5.45639208984375,-4.461594793701171,-7.463624400329589,4.460248055267334
1789453817049332200,5.466332275390625,-4.668244324493408,-7.337629537963867,4.8650177734375
1789453817059271200,5.476271240234375,-4.580706326293945,-7.363516843414306,5.242852722930908
1789453817069210000,5.486210205078125,-4.17563733291626,-7.178864040374755,5.22863715057373
1789453817079150000,5.496150146484375,-3.8818987167358396,-7.356184600830078,4.847360536193848
1789453817089089300,5.50608935546875,-4.2211271644592285,-7.695263410949707,4.836287353515624
1789453817099029000,5.516029052734375,-4.616320075988769,-7.6373536582946775,5.0960582336425775
1789453817108968000,5.525968017578125,-4.7370776222229,-7.572111663055419,5.001636905670166
1789453817118908200,5.535908203125,-4.944774616241455,-7.7793597442626945,5.463119275665283
1789453817128847000,5.54584716796875,-4.573673358917236,-7.409156312561035,5.568613786315917
1789453817138787000,5.555787109375,-4.71792400894165,-7.40586428527832,5.732766237640381
1789453817148726000,5.56572607421875,-4.4644379081726075,-7.241562196350097,5.755062240600585
1789453817158666200,5.575666259765625,-4.711938504791259,-7.0287775238037105,5.495291360473632
1789453817168605200,5.585605224609375,-4.5404538108825685,-7.1683894081115715,5.345354481506347
1789453817178545000,5.595544921875,-4.627542896270752,-6.803872205352783,5.026027835083007
1789453817188484000,5.605484130859375,-4.504690423583984,-6.669796912384033,5.0680760017395015
1789453817198424000,5.615424072265625,-4.566191478729248,-6.407033280181884,4.849904375457763
1789453817208363000,5.625363037109375,-4.759523262786865,-6.579715074920654,4.7393221862792965
1789453817218302000,5.635302001953125,-4.9914615486145015,-6.526743363189697,4.997596690368652
1789453817228242200,5.6452421875,-5.5838768218994135,-6.498611493682861,5.523722505187988
1789453817238181000,5.65518115234375,-5.455936670684814,-6.688052700042724,6.040421150970459
1789453817248121000,5.66512109375,-5.188085359954834,-6.835445739746094,6.18003303527832
1789453817258060000,5.67506005859375,-5.508309832000732,-6.8134490119934075,6.222380477142334
1789453817268000000,5.685,-4.817433015441894,-6.497713668060302,5.957821193695068
1789453817277939200,5.694939208984375,-4.891952542114257,-6.0233624641418455,5.697002850341796
1789453817287879000,5.70487890625,-4.780173252105713,-5.645078601837158,5.473444270324706
1789453817297817900,5.71481787109375,-5.2618566986083986,-5.801300260162353,5.544372494506836
1789453817307757800,5.7247578125,-5.378723667144775,-5.766584336090087,6.0407204261779786
1789453817317697000,5.734697021484375,-5.6857800300598145,-6.272359436798095,6.3147068786621094
1789453817327637000,5.744636962890625,-5.371391424560547,-6.641365767669678,6.187066002655029
1789453817337576000,5.754575927734375,-5.136460386657714,-6.601711802673339,5.757755717468261
1789453817347516200,5.76451611328125,-4.593874435424804,-6.507739387512206,5.851428857421874
1789453817357455000,5.774455078125,-4.824765258026122,-6.386084015655517,5.20349803314209
1789453817367394000,5.78439404296875,-4.306270960998535,-6.0431146278381345,4.840028293609619
1789453817377333800,5.794333740234375,-4.686799387359619,-6.044461366271972,4.396801711273193
1789453817387273000,5.80427294921875,-4.809651860046387,-5.617246007537841,4.227112668609619
1789453817397213000,5.814212890625,-4.528632440185547,-5.466860215759277,4.44348864364624
1789453817407151900,5.82415185546875,-5.007921685028076,-5.294178421020508,4.496310717773437
1789453817417092000,5.834092041015625,-4.704456624603271,-5.284302339172363,4.855740242004394
1789453817427031000,5.844031005859375,-5.136011473846435,-5.918915416717529,5.42047255859375
1789453817436971000,5.853970947265625,-5.341613541412353,-6.172551155090332,5.651363381195068
1789453817446910000,5.863909912109375,-4.695179093170165,-6.465391945648193,5.808782140350341
1789453817456850200,5.87385009765625,-6.068104107666016,-6.401047776031493,5.3667526588439936
1789453817466789000,5.8837890625,-5.668272430419922,-6.070647946929931,5.203946945953369
1789453817476728800,5.893728759765625,-5.250334603118896,-5.976376256561279,4.9914615486145015
1789453817486667800,5.903667724609375,-5.0489223884582515,-5.275174445343017,4.417002787780762
1789453817496608000,5.91360791015625,-4.650587087249756,-4.869357263946533,4.5455414894104
1789453817506547000,5.923546875,-5.155165087127685,-4.812494974517822,4.4665328346252435
1789453817516487000,5.93348681640625,-4.784063829803467,-5.033210440063476,5.205742597198486
1789453817526426000,5.943426025390625,-5.096507146453857,-5.092167655944824,5.794566567993164
1789453817536365000,5.953364990234375,-5.857414361572265,-5.500977589416504,6.285976458740234
1789453817546305000,5.963304931640625,-6.095936701965332,-5.823596263122559,6.63358461227417
1789453817556244000,5.973243896484375,-6.000318273162842,-5.665578953552246,6.474968752288818
1789453817566184000,5.983183837890625,-5.858611462402344,-5.235520480346679,6.295553265380859
1789453817576123000,5.993122802734375,-5.674108296966552,-5.371541062164306,6.296002178192138
1789453817586062800,6.003062744140625,-5.626523538970947,-5.793818379974365,6.289867036437988
1789453817596001800,6.013001708984375,-6.221781926727295,-5.737704278564453,6.011840368652344
1789453817605942000,6.02294189453125,-3.8775592262268064,-5.65001664276123,5.679046337890624
1789453817615881000,6.032880859375,-4.977844526672363,-5.6441807762146,5.259013584136962
1789453817625821000,6.042821044921875,-4.621707029724121,-5.680243438720702,5.672013370513915
1789453817635760000,6.052760009765625,-5.272032055664062,-5.426158787536621,5.22265164642334
1789453817645700000,6.0627001953125,-5.448754065704345,-4.474762902832031,4.062361666870117
1789453817655639000,6.07263916015625,-4.721365673828124,-3.7804444213867185,4.563198726654052
1789453817665579000,6.0825791015625,-4.912452893829346,-4.342034348297119,5.5032221534729
1789453817675518000,6.09251806640625,-5.361365705108642,-4.597765013122558,5.987748714447021
1789453817685458000,6.1024580078125,-5.322459928131103,-4.980538003540039,6.098330903625488
1789453817695396900,6.11239697265625,-5.491251145172119,-4.948665193939209,5.972186403656005
1789453817705335800,6.122335693359375,-5.896918688964844,-4.974552499389648,5.806088663482666
1789453817715276000,6.132276123046875,-5.70747748260498,-5.185840795898438,6.492326714324951
1789453817725215000,6.142215087890625,-5.139004225921631,-5.320963552093506,6.58210927658081
1789453817735155000,6.152155029296875,-5.708076033020019,-5.2542251808166505,5.904250931549072
1789453817745094100,6.16209423828125,-5.785139398956298,-5.06298832321167,6.044760641479492
1789453817755033900,6.172033935546875,-5.465663114929199,-5.20274984512329,6.30094021911621
1789453817764972800,6.181972900390625,-5.815366194915772,-5.1800049293518065,5.992537117767333
1789453817774913000,6.1919130859375,-6.177189920806884,-4.974402861785888,6.05897621383667
1789453817784852000,6.20185205078125,-6.203376501464843,-4.729446104431152,6.297199279022216
1789453817794792000,6.2117919921875,-6.177489196014404,-4.5227965736389155,6.102071843719482
1789453817804731000,6.22173095703125,-6.134543203735351,-4.329165514373779,5.645677152252197
1789453817814671000,6.231671142578125,-5.853374146270752,-4.0815152801513666,5.172074136352538
1789453817824610000,6.241610107421875,-5.423764585876465,-3.950732014465332,4.767603693389892
1789453817834550000,6.251550048828125,-5.7843912109375,-3.999813148498535,4.34727166442871
1789453817844489000,6.261489013671875,-5.543175393676758,-4.077325427246094,4.632032024383545
1789453817854429000,6.271428955078125,-5.246294387817382,-4.393958596801758,5.093065481567383
1789453817864367900,6.281367919921875,-5.493794984436035,-4.920234049224853,5.354781650543212
1789453817874307800,6.291307861328125,-5.546317783355713,-5.178059640502929,5.567865598297119
1789453817884247000,6.3012470703125,-5.393537789916992,-5.295225884246826,5.862502040100098
1789453817894186000,6.31118603515625,-5.255571919250488,-5.361664980316162,6.123769296264648
1789453817904126000,6.3211259765625,-4.930858319091796,-5.429301177215576,6.086808808135986
1789453817914065000,6.33106494140625,-5.064484699249268,-5.436483782196045,5.792022728729248
1789453817924005000,6.341005126953125,-5.048623113250732,-5.404610972595215,5.909188972473144
1789453817933944000,6.350944091796875,-4.787655132293701,-5.416731618499756,6.264428643798828
1789453817943883800,6.3608837890625,-4.8427217704772945,-5.43932689666748,6.292560513305664
1789453817953823000,6.370822998046875,-5.25407554321289,-5.304653053283691,6.404639078521728
1789453817963763000,6.380762939453125,-5.035006091308594,-4.945073891448974,6.581660363769531
1789453817973702000,6.390701904296875,-5.024980371856689,-4.774935935974121,6.452822386932373
1789453817983641900,6.400641845703125,-4.856338792419433,-4.6221559425354,6.2952539901733395
1789453817993581000,6.4105810546875,-4.602852691650391,-4.649090711212158,6.198288822937012
1789453818003521000,6.42052099609375,-4.824765258026122,-4.89704022064209,5.890184996795654
1789453818013460000,6.4304599609375,-5.329792170715332,-5.2910360313415525,5.635352157592773
1789453818023400200,6.440400146484375,-5.255571919250488,-5.79082562789917,5.9391164932250975
1789453818033339100,6.450339111328125,-4.817283377838135,-6.274604000854492,6.240037714385986
1789453818043278800,6.46027880859375,-4.46862776107788,-6.6893994384765625,5.9856537879943845
1789453818053217800,6.4702177734375,-4.906018476867676,-7.084293074798584,5.606172824859619
1789453818063158000,6.480157958984375,-4.984428581237792,-7.300369774627685,5.373935263824462
1789453818073097000,6.490096923828125,-4.545092576599121,-7.332691497039795,5.201852019500732
1789453818083037000,6.500036865234375,-4.567687854766845,-7.298574123382568,5.084536138153076
1789453818092975900,6.509975830078125,-4.830750762176513,-7.299023036193847,5.0854339637756345
1789453818102915000,6.5199150390625,-4.536862508392334,-7.258171970367431,5.10743069152832
1789453818112855000,6.52985498046875,-4.085106582641601,-7.381024443054199,4.886715225982666
1789453818122794000,6.5397939453125,-4.184465951538086,-7.572710213470459,4.461894068908691
1789453818132734000,6.54973388671875,-4.363881438446045,-7.5713634750366205,4.1760862457275385
1789453818142673000,6.5596728515625,-4.396801711273193,-7.452850492858886,4.062511304473877
1789453818152612900,6.56961279296875,-4.239831864929199,-7.315782447814941,4.206612316894531
1789453818162551800,6.5795517578125,-4.18192211227417,-7.251587915802001,4.403385765838623
1789453818172492000,6.589491943359375,-4.298789080810547,-7.304110714721679,4.319887982940673
1789453818182431000,6.599430908203125,-4.204667028045654,-7.379528067016601,4.180874649047851
1789453818192371000,6.609370849609375,-4.0815152801513666,-7.33553461151123,4.142866697692871
1789453818202310100,6.61931005859375,-4.010287780761718,-7.319673025512695,4.019415674591064
1789453818212250000,6.62925,-4.308814800262451,-7.615356930541992,3.7544074783325194
1789453818222189000,6.63918896484375,-4.014627271270752,-8.17230809173584,3.47922392501831
1789453818232128800,6.649128662109375,-4.038270012664794,-8.52305863494873,3.6391865234374996
1789453818242068000,6.65906787109375,-4.197783698272705,-8.627356044769286,4.031685958099365
1789453818252008000,6.669008056640625,-4.012083432006835,-8.507945236968993,4.447229583740234
1789453818261947000,6.67894677734375,-3.9196073928833006,-8.28693049621582,4.573673358917236
1789453818271887000,6.68888720703125,-4.216488398742675,-8.226776179504395,4.038569287872314
1789453818281826300,6.698826416015625,-4.331110803222656,-8.083722630310058,3.4310406166076657
1789453818291766500,6.7087666015625,-4.335450293731689,-7.7967177062988275,3.9208044937133786
1789453818301705500,6.71870556640625,-4.44333900604248,-7.455095056915283,5.111021994018555
1789453818311645200,6.728645263671875,-4.111143525695801,-8.131008113098144,4.114585190582275
1789453818321584400,6.73858447265625,-3.331381972503662,-8.230666757202147,3.628861528778076
1789453818331523300,6.7485234375,-3.713556412506103,-8.441057228088379,2.3708581939697266
1789453818341463300,6.75846337890625,-4.509927739715576,-8.61852742614746,2.3018752586364744
1789453818351402200,6.76840234375,-3.7140053253173826,-8.327781562042237,3.4753333473205563
1789453818361342500,6.778342529296875,-3.8208465744018554,-8.527996675872803,4.179378273010253
1789453818371281400,6.788281494140625,-3.8703766212463377,-8.989479045867919,3.925892172241211
1789453818381221400,6.798221435546875,-4.7275008155822755,-9.320178150177002,3.5824738716125486
1789453818391160300,6.808160400390625,-4.059069639587402,-9.661501524353026,3.3475428337097166
1789453818401100300,6.818100341796875,-4.145859449768066,-9.657461309051513,3.582174596405029
1789453818411039200,6.828039306640625,-3.689015845489502,-9.562142155456542,3.829974468231201
1789453818420979200,6.837979248046875,-3.8783074142456053,-9.452008879089355,3.794809631347656
1789453818430918400,6.84791845703125,-3.9579146194458006,-9.579051204681395,3.3892917251586914
1789453818440858400,6.8578583984375,-3.372382675933838,-9.446173012542724,2.685396437072754
1789453818450797300,6.86779736328125,-3.489548919677734,-9.168744895172118,2.2110452331542967
1789453818460737300,6.8777373046875,-3.7192426414489743,-9.107094202423095,1.840692163848877
1789453818470676500,6.887676513671875,-3.239504483795166,-9.108740216064453,1.7669208251953124
1789453818480616400,6.897616455078125,-3.4159272186279295,-9.298480697631835,2.0362685119628905
1789453818490555400,6.907555419921875,-3.5118449226379393,-9.508422255706787,2.2744915771484373
1789453818500495400,6.917495361328125,-3.5058594184875487,-9.656862758636475,2.314744092559814
1789453818510434300,6.927434326171875,-3.346495370483398,-9.605985973358154,2.0956746406555173
1789453818520374300,6.937374267578125,-3.4223616355895996,-9.376591526794433,2.2321441352844236
1789453818530313200,6.947313232421875,-3.2338182548522947,-9.215431827545165,2.3751976844787595
1789453818540253400,6.95725341796875,-3.2050878349304197,-9.219771318054198,2.268356435394287
1789453818550192400,6.9671923828125,-3.3455975448608397,-9.42312882156372,2.273593751525879
1789453818560132400,6.97713232421875,-3.4917934837341305,-9.662249712371825,2.0880431228637693
1789453818570071600,6.987071533203125,-3.753210377502441,-9.939378554534912,2.319532495880127
1789453818580010500,6.997010498046875,-3.5664626480102535,-9.900622415161132,2.9792846908569333
1789453818589950200,7.0069501953125,-3.368192823028564,-9.585485621643066,2.953397385406494
1789453818599889200,7.01688916015625,-3.114108171844482,-8.99561418762207,2.404377017211914
1789453818609829400,7.026829345703125,-2.880074959564209,-8.569595929718018,2.1339818672180173
1789453818619768300,7.036768310546875,-2.920926025390625,-8.391227906036377,2.1095909378051756
1789453818629708300,7.046708251953125,-3.0071172851562498,-8.604611128997803,2.2685060729980466
1789453818639647200,7.056647216796875,-2.7536311843872068,-8.826972608184814,2.1823148132324217
1789453818649587500,7.06658740234375,-2.7226562004089354,-9.143306502532958,2.289305699920654
1789453818659526400,7.0765263671875,-2.68135622177124,-9.239224206542968,2.516754857635498
1789453818669466400,7.08646630859375,-2.5296236915588377,-9.024793520355225,2.4595932929992674
1789453818679405600,7.096405517578125,-2.689436652374267,-8.829067534637451,2.1134815155029294
1789453818689345300,7.10634521484375,-2.989011135101318,-8.793304147338867,1.8933646003723144
1789453818699284200,7.1162841796875,-3.2754175086975095,-8.911068941497803,1.530343773651123
1789453818709224400,7.126224365234375,-3.4190696083068848,-9.073725016784667,1.5251064575195312
1789453818719163400,7.136163330078125,-3.4856583419799803,-8.968829056549072,2.018611274719238
1789453818729103400,7.146103271484375,-3.320308789825439,-8.774599446868896,2.3418284988403317
1789453818739042300,7.156042236328125,-3.2043396469116208,-8.65010096054077,2.616114226531982
1789453818748982500,7.165982421875,-3.1769559654235837,-8.620023802185058,3.0527567543029783
1789453818758921500,7.17592138671875,-3.3099837951660156,-8.558373109436035,3.615543782043457
1789453818768861200,7.185861083984375,-3.226037099456787,-8.473678225708007,4.002207350158691
1789453818778800000,7.195800048828125,-3.2531215057373046,-8.523657185363769,4.014028720855713
1789453818788740400,7.205740234375,-3.6068648010253903,-8.673145151519774,3.968538889312744
1789453818798679300,7.21567919921875,-3.9169139160156248,-8.794950160980225,3.9706338157653804
1789453818808619300,7.225619384765625,-3.809474116516113,-8.798840738677978,3.9845501129150387
1789453818818558500,7.235558349609375,-3.418770333099365,-8.815600150299073,3.6563948478698727
1789453818828498400,7.24549853515625,-3.6638767280578612,-8.679130655670166,3.299808438110351
1789453818838437400,7.255437255859375,-3.7859810127258298,-8.974964198303223,3.2148142791748047
1789453818848377300,7.26537744140625,-4.355950645446777,-8.9891797706604,3.24967984085083
1789453818858316500,7.275316650390625,-4.723610237884521,-8.672247325897215,3.0379426315307616
1789453818868256300,7.28525634765625,-4.687697212982178,-8.56211404953003,3.266888165283203
1789453818878195200,7.2951953125,-4.192696019744873,-8.45961229095459,3.4657565406799313
1789453818888134100,7.305134033203125,-3.675249185943603,-8.59338830871582,3.4480993034362792
1789453818898074400,7.315074462890625,-3.7597944320678707,-8.619724526977539,3.8226422256469723
1789453818908013300,7.325013427734375,-3.7102643852233883,-8.371326104736328,4.102913457489014
1789453818917953300,7.334953369140625,-3.432836267852783,-8.379705810546875,4.094234476470947
1789453818927892500,7.344892578125,-3.5339912879943847,-8.245031967163085,3.834912509155273
1789453818937832400,7.35483251953125,-4.042759140777588,-8.314763090515136,3.784035723876953
1789453818947771400,7.364771484375,-4.384082514953613,-8.472481124877929,3.8992566787719722
1789453818957711400,7.37471142578125,-4.605097255706787,-8.68317087097168,4.205265578460693
1789453818967650300,7.384650390625,-4.694879817962646,-8.847024047088622,4.480748406982421
1789453818977590300,7.39459033203125,-4.889109427642822,-8.933514582061767,4.704007711791992
1789453818987529200,7.404529296875,-4.94761773071289,-8.750657430267333,4.8135424377441405
1789453818997469400,7.414469482421875,-4.88387211151123,-8.362497486114501,4.89644167022705
1789453819007408400,7.424408447265625,-4.838531917572022,-7.72459238128662,5.023184720611572
1789453819017348400,7.434348388671875,-4.926818103790283,-7.105990527343749,5.676352861022949
1789453819027287300,7.444287353515625,-4.368969116973877,-6.947673942565918,5.521029028320312
1789453819037227500,7.4542275390625,-4.242226066589355,-6.724713912963867,5.165789356994629
1789453819047166500,7.46416650390625,-4.733486319732665,-6.591985358428954,5.274426257324219
1789453819057106200,7.474106201171875,-4.726752627563476,-6.81838705291748,5.595249279785156
1789453819067045400,7.48404541015625,-4.86486813583374,-6.985083343505859,5.503820703887939
1789453819076985300,7.4939853515625,-5.147234294128418,-7.0573583061218255,5.670816269683837
1789453819086924300,7.50392431640625,-5.005677120971679,-6.70331573562622,5.6860793052673335
1789453819096864500,7.513864501953125,-5.651363381195068,-6.6537856887817375,6.153247904205322
1789453819106803500,7.523803466796875,-4.443189368438721,-6.676680242156982,5.814169094085693
1789453819116743400,7.533743408203125,-5.22908606338501,-6.63957011642456,6.264727919006347
1789453819126682400,7.543682373046875,-4.751293194580078,-7.462427299499511,6.714837831115722
1789453819136622300,7.553622314453125,-4.5039422355651855,-6.678924806213378,6.800580178070068
1789453819146561300,7.563561279296875,-4.856039517211914,-7.358728440093993,6.993163774108886
1789453819156501200,7.573501220703125,-4.121767795562744,-6.6443585197448725,6.899191358947753
1789453819166440200,7.583440185546875,-5.021688344573974,-6.544550238037109,6.414664797973632
1789453819176380400,7.59338037109375,-5.34984360961914,-6.7651160659790035,5.61829347076416
1789453819186319400,7.6033193359375,-4.131344602203369,-5.98849690246582,5.257217932891845
1789453819196259300,7.61325927734375,-4.667945049285889,-5.639392372894287,5.277419009399414
1789453819206198500,7.623198486328125,-4.518756358337402,-5.6817398147583,5.425260961914062
1789453819216138200,7.63313818359375,-4.923376438903809,-5.518934101867676,5.435735594177245
1789453819226077400,7.643077392578125,-4.770297170257568,-5.530456197357178,5.449951166534423
1789453819236017200,7.65301708984375,-4.575319372558593,-5.460276161193847,5.455188482666015
1789453819245956400,7.662956298828125,-4.4756607284545895,-5.401618220520019,5.50292287826538
1789453819255896300,7.672896240234375,-4.97978981552124,-5.364208819580078,5.556942053222656
1789453819265835300,7.682835205078125,-4.962431853485107,-5.261258148193359,5.860107838439941
1789453819275776000,7.69277587890625,-4.913649994659424,-5.589712688446045,6.315455066680908
1789453819285715000,7.70271484375,-4.914398182678222,-5.7992053337097165,6.501604245758056
1789453819295654700,7.712654541015625,-4.7286979164123535,-5.844695165252685,6.197540634918212
1789453819305593900,7.72259375,-4.853346040344238,-6.031293257141113,5.569062699127197
1789453819315533800,7.732533935546875,-4.816984102630615,-6.1267620483398435,5.058948107910156
1789453819325472800,7.74247265625,-5.133617272186279,-6.106112059020996,4.984877494049072
1789453819335413000,7.7524130859375,-5.437231970214843,-6.022315000915527,5.148730670166016
1789453819345352000,7.76235205078125,-5.335478399658203,-5.9391164932250975,5.384858808898925
1789453819355291000,7.772290771484375,-5.5829789962768555,-6.347178238677978,5.52895982131958
1789453819365230800,7.78223095703125,-5.518335551452636,-6.432022760009765,5.538686265563965
1789453819375170000,7.792170166015625,-5.569960524749756,-6.486041934967041,5.464017101287841
1789453819385110000,7.802110107421875,-6.078728377532959,-6.598419775390624,4.949862294769287
1789453819395049000,7.812049072265625,-5.691017346191406,-6.56924044265747,4.843320320892333
1789453819404989000,7.821989013671875,-6.5026517089843745,-6.461202092742919,4.643105207061767
1789453819414928000,7.831927978515625,-5.237316131591797,-6.2301616325378415,4.904971013641357
1789453819424867800,7.841867919921875,-5.097404972076416,-6.256048937988281,5.053112241363525
1789453819434806800,7.851806884765625,-5.940163956451416,-6.037278761291503,5.434538493347167
1789453819444747000,7.8617470703125,-5.36241316833496,-5.59913985748291,5.864148053741455
1789453819454686000,7.87168603515625,-5.992088204956055,-5.433640667724609,6.385784740447997
1789453819464626000,7.8816259765625,-6.152798991394042,-5.384260258483886,7.101351761627197
1789453819474564900,7.89156494140625,-5.454141019439697,-5.584325734710693,7.419481307220458
1789453819484504800,7.9015048828125,-6.02635521621704,-5.839906761932372,6.82512074508667
1789453819494443800,7.91144384765625,-4.956446349334716,-5.226691861724853,6.2392895263671875
1789453819504383700,7.9213837890625,-4.280982205963134,-4.9257706405639645,6.19948592376709
1789453819514323000,7.931322998046875,-4.278737641906738,-4.747103341674804,4.91619383392334
1789453819524263000,7.941262939453125,-4.857835168457031,-3.9809588104248044,3.5851673484802244
1789453819534201900,7.951201904296875,-4.44363828125,-3.3666964469909666,4.205864128875732
1789453819544141800,7.961141845703125,-4.602852691650391,-3.478625374603271,4.87145219039917
1789453819554081000,7.9710810546875,-4.911106155395507,-3.4415152488708496,4.203918840026855
1789453819564021000,7.98102099609375,-5.258265396118164,-3.299958075714111,3.9803602600097654
1789453819573960000,7.9909599609375,-4.81399135055542,-3.650708618927002,5.100397724151611
1789453819583900000,8.00089990234375,-4.9175405723571775,-4.24581736907959,5.65675033493042
1789453819593838800,8.0108388671875,-5.411045389556884,-4.434809662628173,5.181202030181884
1789453819603778800,8.02077880859375,-5.862502040100098,-4.469525586700439,5.760598831939697
1789453819613717800,8.0307177734375,-5.588216312408447,-4.62903927230835,6.861333045196533
1789453819623658000,8.040657958984376,-6.101323655700683,-4.882076460266113,7.4785881607055655
1789453819633597000,8.050596923828126,-6.110002636718749,-4.96677134399414,7.541585591888428
1789453819643537000,8.060536865234376,-6.082618955230712,-4.997895965576172,7.0470333114624015
1789453819653476000,8.07047607421875,-6.475417665100097,-4.962431853485107,6.483647733306884
1789453819663415800,8.080415771484375,-6.067505557250977,-4.932055419921875,6.292261238098144
1789453819673354800,8.090354736328125,-6.027402679443359,-4.943577515411377,5.973682779693603
1789453819683294700,8.100294677734375,-6.193350782012939,-5.065232887268066,6.040870063781738
1789453819693234000,8.11023388671875,-5.842749876403809,-5.258115758514404,5.88045855255127
1789453819703174000,8.120173828125,-6.218789174652099,-5.444264937591552,5.661987651062011
1789453819713112800,8.13011279296875,-5.807585039520263,-5.5446717697143555,5.815066919708252
1789453819723053000,8.140052978515625,-5.629366653442382,-5.576993492126465,5.742193406677246
1789453819732992000,8.149991943359375,-5.793668742370605,-5.523572867584228,5.716306101226806
1789453819742932000,8.159931884765625,-5.344606293487549,-5.47733484802246,5.5823804458618165
1789453819752871000,8.169870849609374,-5.033808990478516,-5.521178665924072,4.755034134674072
1789453819762811000,8.179810791015624,-5.449053340911865,-5.295375521850586,4.3816883132934565
1789453819772749800,8.189749755859374,-5.556044227600097,-5.064185424041748,4.836137715911865
1789453819782689800,8.199689697265624,-5.253476992797851,-4.935945997619629,5.090521642303466
1789453819792629000,8.20962890625,-5.1696799346923825,-4.734683420562744,4.987271695709228
1789453819802569000,8.21956884765625,-5.571606538391113,-4.582950890350341,5.08857635345459
1789453819812508000,8.2295078125,-5.597194568634033,-4.5838487159729,5.409997926330566
1789453819822447900,8.23944775390625,-5.205144046783447,-4.808454759216309,5.590311238861084
1789453819832387000,8.249386962890625,-4.734833058166504,-5.300612837982177,5.698050313568115
1789453819842326800,8.259326904296875,-4.399195912933349,-5.620238759613037,5.568913061523437
1789453819852265700,8.269265625,-4.324377111053466,-5.542876118469238,5.338920064544677
1789453819862206000,8.2792060546875,-3.9223008697509765,-5.17761072769165,4.875492405700683
1789453819872145000,8.289144775390625,-3.590255027008056,-4.572476258087158,4.512621216583252
1789453819882084900,8.2990849609375,-3.623175299835205,-4.14346524810791,4.29669415435791
1789453819892023800,8.30902392578125,-3.987542864990234,-3.9009026924133297,4.502894772338867
1789453819901964000,8.318964111328125,-4.139125757598877,-4.021360963439941,5.087678527832031
1789453819911903000,8.328903076171875,-4.282328944396973,-4.802169979858398,5.6946086486816405
1789453819921842700,8.3388427734375,-4.355202457427978,-5.638793822479248,6.060771865081787
1789453819931782000,8.348781982421874,-4.713135605621337,-6.374561920166015,6.0808233039855955
1789453819941721900,8.358721923828124,-4.740369649505615,-6.677578067779541,5.850082118988037
1789453819951660800,8.368660888671876,-4.734533782958984,-6.802974379730224,5.5349453254699705
1789453819961600800,8.378600830078126,-4.851700026702881,-6.974309436035155,5.3567269393920895
1789453819971540000,8.3885400390625,-5.319766451263427,-7.2614639976501465,5.403114596557617
1789453819981480000,8.39847998046875,-5.530156922149658,-7.385214295959472,5.688922419738769
1789453819991419000,8.4084189453125,-5.389347937011719,-7.366659233093261,6.242431916046142
1789453820001359000,8.418359130859375,-4.905120651245117,-7.286752752685547,5.8551697975158685
1789453820011298000,8.428298095703125,-5.130025969696044,-7.382820094299316,4.8795326210021965
1789453820021237800,8.43823779296875,-5.768379987335205,-7.492504457855224,4.3549031822204585
1789453820031176700,8.4481767578125,-5.52282467956543,-7.611167077636718,4.670937801361084
1789453820041117000,8.458116943359375,-4.230703971099853,-7.651718868255615,4.99250901184082
1789453820051055900,8.468055908203125,-4.356848471069336,-7.682244939422607,5.092167655944824
1789453820060995800,8.477995849609375,-4.920383686828613,-7.744344544982909,4.6450504959106445
1789453820070934800,8.487934814453125,-4.552724094390869,-7.601590270996093,3.968538889312744
1789453820080875000,8.497875,-3.40949280166626,-7.362319742584228,4.096778315734863
1789453820090814000,8.50781396484375,-3.9790135215759275,-7.657704372406005,4.799626140594482
1789453820100753700,8.517753662109374,-5.080495922851562,-8.882488159179687,3.167678433990478
1789453820110692900,8.52769287109375,-4.344129274749756,-9.240720582580567,4.018368211364746
1789453820120632800,8.5376328125,-4.461594793701171,-9.314043008422852,4.607491457366943
1789453820130571800,8.54757177734375,-3.5660137351989745,-8.867075485992432,5.6863785804748535
1789453820140512000,8.557511962890626,-4.514416867828369,-8.247276531219482,5.373336713409423
1789453820150451000,8.567450927734376,-3.913023338317871,-7.785794161224365,4.572326620483398
1789453820160391000,8.577390869140626,-2.8740894554138183,-7.270591891479492,4.083909481811523
1789453820170329900,8.587329833984375,-2.945017679595947,-6.996455801391601,3.3789667304992674
1789453820180270000,8.59727001953125,-3.9309798507690425,-7.3663599578857415,2.84745396194458
1789453820190209000,8.607208984375,-4.049792108154296,-8.045565041351319,2.9804817916870117
1789453820200148700,8.617148681640625,-2.867804676055908,-8.750358155059814,2.8857611885070797
1789453820210087700,8.627087646484375,-3.039439007568359,-9.154080410003662,3.052307841491699
1789453820220028000,8.63702783203125,-3.459621398925781,-9.593117139434813,3.1296704826354977
1789453820229966800,8.646966796875,-3.590404664611816,-9.679607674407958,3.4394203224182127
1789453820239906800,8.65690673828125,-3.46021994934082,-9.912743061065672,3.2960674980163573
1789453820249846000,8.666845947265625,-3.860051626586914,-10.24149687652588,2.8960861831665037
1789453820259786000,8.676785888671875,-4.18162283706665,-10.462960530090331,2.7162217834472653
1789453820269725000,8.686724853515624,-3.912275150299072,-10.543615198516845,2.517503045654297
1789453820279664400,8.696664306640624,-3.6631285400390623,-10.200047260284423,2.389562894439697
1789453820289603300,8.706603271484376,-3.8238393264770507,-9.8955347366333,2.2761375907897947
1789453820299543300,8.716543212890626,-4.04784681930542,-9.85692823486328,2.117671368408203
1789453820309482200,8.726482177734376,-3.812017955780029,-10.003573086547851,1.8109142807006835
1789453820319422200,8.736422119140625,-3.2118215270996093,-10.023624525451659,1.7063175956726073
1789453820329361200,8.746361083984375,-2.901024224090576,-9.510966094970703,1.8017863868713377
1789453820339300000,8.756300048828125,-2.8752865562438963,-8.463652506256103,1.9385551567077635
1789453820349240300,8.766240234375,-2.854486929321289,-7.551611311340332,1.860893240356445
1789453820359179300,8.77617919921875,-3.126378455352783,-7.440879484558105,1.7354969284057615
1789453820369119200,8.786119140625,-3.643077101135254,-7.7599068557739255,2.6575638427734374
1789453820379058400,8.796058349609375,-3.46036958694458,-8.59952345046997,3.0823849998474118
1789453820388998100,8.805998046875,-3.3527801498413083,-9.647136314392089,2.9013234992980954
1789453820398937300,8.815937255859374,-3.564367721557617,-10.194809944152832,3.1227871528625486
1789453820408877300,8.825877197265624,-3.2199019577026364,-9.757269590759277,3.475632622528076
1789453820418816300,8.835816162109374,-3.1289222946166992,-8.913612780761719,3.5935470542907715
1789453820428756200,8.845756103515624,-2.905513352203369,-8.275857313537598,3.604620236968994
1789453820438695200,8.855695068359376,-2.5671827301025387,-7.997082457733153,3.2172084808349606
1789453820448635400,8.865635498046874,-2.711433380126953,-8.28693049621582,2.620154441833496
1789453820458574300,8.87557421875,-2.9683611457824703,-8.75903713607788,2.344970888519287
1789453820468514300,8.885514404296876,-3.293074745941162,-9.28965207901001,2.2532430374145505
1789453820478453200,8.895453369140625,-3.444358363342285,-9.652074355316161,2.326266188049316
1789453820488393200,8.905393310546875,-3.3174656753540037,-9.729287358856201,2.205807917022705
1789453820498332200,8.915332275390625,-2.9554923118591305,-9.64668740158081,2.005892078399658
1789453820508272000,8.925272216796875,-2.971653173065185,-9.350404946136473,2.1959318351745605
1789453820518211300,8.93521142578125,-3.046322337341308,-9.095721744537354,2.6988638214111327
1789453820528151300,8.9451513671875,-2.8037597816467286,-9.035417790222168,2.863315547943115
1789453820538090200,8.95509033203125,-2.67507144241333,-9.093926093292236,2.750937707519531
1789453820548030500,8.965030517578125,-2.846256861114502,-9.405172309112547,2.4920646530151367
1789453820557969400,8.974969482421875,-3.116801648712158,-9.782408708190918,2.4096143333435056
1789453820567909000,8.9849091796875,-3.8027404243469234,-9.86411083984375,2.903568063354492
1789453820577848300,8.994848388671874,-4.4014404769897455,-9.55795230255127,3.4299931533813472
1789453820587788300,9.004788330078124,-4.253598524475097,-9.32810894317627,3.5791818443298338
1789453820597727200,9.014727294921874,-4.204068477630615,-8.895805905914306,3.447650390625
1789453820607667200,9.024667236328124,-4.331260440826416,-8.68287159576416,3.839700912475586
1789453820617606100,9.034606201171876,-3.7024832298278807,-8.704718685913086,3.5645173591613766
1789453820627546400,9.04454638671875,-3.0796915229797364,-9.168744895172118,2.71966344833374
1789453820637485300,9.0544853515625,-3.6762966491699216,-9.360430665588378,2.4697686500549314
1789453820647425300,9.06442529296875,-4.617517176818847,-8.967631955718993,3.046471974945068
1789453820657364500,9.074364501953125,-4.9275662918090815,-8.429535132598877,4.033182334136963
1789453820667304200,9.08430419921875,-4.683357722473144,-8.14058491973877,4.684554823303222
1789453820677243100,9.0942431640625,-3.9662943252563476,-8.058882788085937,4.671087438964843
1789453820687183400,9.104183349609375,-3.640982174682617,-8.07579183731079,4.425981044006347
1789453820697122300,9.114122314453125,-3.6631285400390623,-8.144625135040283,4.131793515014648
1789453820707062300,9.124062255859375,-3.646069853210449,-8.313865264892577,3.503315579223633
1789453820717001200,9.134001220703125,-4.136133005523681,-8.163030560302733,3.305195391845703
1789453820726941400,9.14394140625,-4.919485861206055,-7.733570637512207,3.976619319915771
1789453820736880400,9.15388037109375,-5.013757551574707,-7.544279068756103,4.73094248046875
1789453820746820000,9.163820068359374,-4.561253437805176,-7.593659477996826,4.741267475128174
1789453820756759000,9.173759033203124,-4.472667976379395,-7.709927896118163,4.7673044181823725
1789453820766699300,9.18369921875,-4.2886137237548825,-7.870489044952392,4.68620083694458
1789453820776638200,9.19363818359375,-4.535815045166015,-7.849240505218505,4.843170683288574
1789453820786578200,9.203578125,-4.728847554016113,-7.710676084136963,5.130175607299805
1789453820796517400,9.213517333984376,-4.90302572479248,-7.430704127502441,5.428552989196777
1789453820806457300,9.223457275390626,-4.918288760375976,-7.331045483398437,5.715557913208007
1789453820816396300,9.233396240234375,-4.630834923553467,-7.147739418792725,5.825092639160156
1789453820826336300,9.243336181640625,-4.166808714294433,-6.993762324523925,5.136310749053955
1789453820836275500,9.253275390625,-4.37944374923706,-6.953659446716308,5.587617761993408
1789453820846215200,9.263215087890625,-5.189731373596191,-7.349899821472167,6.047454118347168
1789453820856154000,9.273154052734375,-5.479729049682617,-7.406462835693359,6.328174263000488
1789453820866094300,9.28309423828125,-5.209034624481201,-7.308150930023193,6.5601125488281244
1789453820876033300,9.293033203125,-4.901828623962402,-6.930465618133544,6.065859543609619
1789453820885973200,9.30297314453125,-4.683208084869385,-6.5871969551086424,5.810877066802978
1789453820895912200,9.312912109375,-5.242852722930908,-6.794744311523437,5.859509288024902
1789453820905852400,9.322852294921875,-4.546888227844238,-6.083516780853271,5.135412923431396
1789453820915791400,9.332791259765624,-5.579387693786621,-6.6905965393066404,6.39715719833374
1789453820925731000,9.34273095703125,-3.9597102706909175,-6.152200440979003,5.5635261077880855
1789453820935670300,9.352670166015624,-5.77750788116455,-6.23749387512207,7.429507026672363
1789453820945610200,9.3626103515625,-4.2420764289855954,-6.3712698928833005,6.318747093963623
1789453820955549200,9.372549072265626,-5.215469041442871,-5.971737490844726,6.470778899383545
1789453820965489200,9.3824892578125,-5.064185424041748,-5.961412496185303,5.218162518310547
1789453820975428400,9.392428466796876,-5.908440784454346,-5.954080253601074,4.906317752075195
1789453820985368300,9.402368408203126,-5.448005877685547,-5.718700302886963,5.265597638702392
1789453820995307300,9.412307373046875,-5.04368507232666,-5.875520511627197,5.785289036560059
1789453821005247200,9.422247314453125,-4.189703267669677,-5.4421700111389155,5.531204385375976
1789453821015186400,9.4321865234375,-4.618115727233887,-5.408651187896728,5.4607250740051265
1789453821025126100,9.442126220703125,-4.7107414039611815,-5.380818593597412,5.228487512969971
1789453821035065000,9.452065185546875,-4.713434880828857,-5.002684368896484,4.658068967437744
1789453821045005300,9.46200537109375,-4.856039517211914,-4.815936639404296,4.650138174438476
1789453821054944300,9.4719443359375,-4.840177931213379,-5.166986457824707,4.979191265106201
1789453821064884200,9.48188427734375,-4.791396072387695,-5.8654947921752925,5.5668181350708
1789453821074823400,9.491823486328125,-4.65432802734375,-6.093093587493896,5.959616844940185
1789453821084763400,9.501763427734375,-5.319467176055908,-6.239439163970947,6.474968752288818
1789453821094702300,9.511702392578124,-6.054038172912597,-6.762272951507568,7.126640516662597
1789453821104642000,9.52164208984375,-5.796062944030761,-6.964433354187011,7.561487393188476
1789453821114581200,9.531581298828126,-6.3235354972839355,-6.796091049957275,7.221361119842529
1789453821124521200,9.541521240234376,-5.429151539611816,-6.6246063560485835,6.5780690612792965
1789453821134461200,9.551461181640626,-4.918887310791015,-6.740425861358642,5.596596018218994
1789453821144400400,9.561400390625,-4.083909481811523,-6.202329038238525,4.395305335235595
1789453821154339300,9.57133935546875,-4.356998108673095,-5.468057316589356,3.764882110595703
1789453821164279300,9.581279296875,-5.04338579711914,-5.214870491027832,3.9249943466186523
1789453821174218200,9.59121826171875,-5.048623113250732,-4.567987129974365,4.802020342254639
1789453821184158200,9.601158203125,-5.718999578094482,-4.4756607284545895,5.777208605957031
1789453821194097400,9.611097412109375,-4.666299035644531,-4.549731342315674,7.087884377288818
1789453821204037000,9.621037109375,-4.907963765716552,-4.505887524414062,7.206247721862793
1789453821213977300,9.630977294921875,-5.555445677185058,-4.393509683990478,6.976254724884033
1789453821223916300,9.640916259765625,-5.607669200897217,-4.948665193939209,7.220463294219971
1789453821233856300,9.650856201171875,-5.118653511810303,-4.924274264526367,7.0920742301940916
1789453821243795200,9.660795166015625,-5.371541062164306,-5.049670576477051,5.992237842559814
1789453821253734400,9.670734375,-3.9112276870727536,-5.147383931732177,5.17102667312622
1789453821263674400,9.68067431640625,-4.763264202880859,-4.64774397277832,3.8103719421386715
1789453821273614000,9.690614013671874,-5.49708701171875,-3.8781577766418454,3.8652889427185055
1789453821283554000,9.700553955078124,-5.105934315490722,-3.762188633728027,4.555866484069824
1789453821293494000,9.710493896484374,-4.957194537353515,-3.857507787322998,4.365826727294921
1789453821303433000,9.720432861328124,-4.506785350036621,-3.8877345832824703,4.293701402282714
1789453821313373200,9.730373291015624,-4.458751679229736,-4.161721035766601,5.1614498664855955
1789453821323312000,9.74031201171875,-5.32410594177246,-4.470573049926758,5.692064809417724
1789453821333251800,9.750251953125,-6.068553020477294,-4.48209514541626,5.994482406616211
1789453821343190800,9.760190673828125,-6.489483599853515,-4.43047017211914,7.073070254516601
1789453821353131000,9.770131103515626,-5.621435860443115,-4.837484454345703,8.046163591766357
1789453821363070000,9.780070068359375,-5.489754769134521,-5.24165562210083,6.9056257759094235
1789453821373010000,9.790010009765625,-5.889885721588135,-5.1797056541442865,5.455787033081054
1789453821382948900,9.799948974609375,-5.694159735870361,-4.626046520233154,4.871901103210449
1789453821392889000,9.80988916015625,-6.146963124847412,-4.129399313354492,5.277568647003173
1789453821402828000,9.819828125,-6.349422802734375,-4.150647853088379,6.357503233337402
1789453821412768000,9.82976806640625,-5.325452680206299,-4.251054685211181,7.028029335784912
1789453821422707200,9.839707275390625,-5.155015449523925,-4.4473792213439935,6.758532011413574
1789453821432647000,9.84964697265625,-4.919036948394775,-4.759972175598144,5.86714080581665
1789453821442585900,9.8595859375,-5.282057775115966,-4.7952866500854485,5.069722015380859
1789453821452525800,9.86952587890625,-5.239411058044433,-4.842572132873535,5.470301880645752
1789453821462465000,9.879465087890624,-4.86456886062622,-4.9808372787475585,6.006453414916992
1789453821472405000,9.889405029296874,-4.718821834564209,-5.250334603118896,5.478531948852539
1789453821482344000,9.899343994140626,-4.514865780639648,-5.281908137512207,4.36717346572876
1789453821492284200,9.9092841796875,-4.914697457885742,-4.876689506530761,3.413682654571533
1789453821502223000,9.91922314453125,-5.04982021408081,-4.3071687866210935,3.3180642257690427
1789453821512162800,9.929162841796876,-5.022586170196533,-3.7581484184265133,4.171746755218505
1789453821522101800,9.939101806640625,-4.970512284088135,-3.599382920837402,5.721842692565918
1789453821532042000,9.9490419921875,-4.4853871726989745,-3.9495349136352536,6.400149950408935
1789453821541981000,9.95898095703125,-4.447828134155273,-4.833444239044189,6.079326927947998
1789453821551921000,9.9689208984375,-4.673780915832519,-5.863848778533935,5.6480713539123535
1789453821561860000,9.978860107421875,-5.041141233062744,-6.164021811676025,5.199757093048095
1789453821571800000,9.988800048828125,-5.229385338592529,-5.846790091705322,5.776610055541992
1789453821581739000,9.998739013671875,-4.753687396240234,-5.708824221038818,6.432172397613525
1789453821591679000,10.008678955078125,-4.757727611541748,-5.8548705223083495,6.401945601654052
1789453821601618200,10.0186181640625,-5.370343961334228,-5.930437512207031,6.485144109344482
1789453821611558000,10.028557861328125,-5.238513232421875,-6.125864222717285,6.50549482345581
1789453821621496800,10.038496826171874,-5.464316376495361,-6.578368336486816,6.753593970489502
1789453821631437000,10.04843701171875,-4.80740729598999,-6.898742446136474,6.264129368591308
1789453821641376000,10.0583759765625,-4.636371514892578,-7.0196496299743645,4.693682717132568
1789453821651316000,10.06831591796875,-5.099799173736572,-7.0388032432556145,4.0912417243957515
1789453821661255000,10.0782548828125,-5.315875873565673,-7.02309129486084,4.097676141357422
1789453821671195100,10.088195068359376,-4.830451486968994,-6.936750397491455,5.1325698089599605
1789453821681134000,10.098134033203126,-4.697124382019043,-7.1680901329040525,5.474042820739745
1789453821691073800,10.10807373046875,-5.5545478515625,-7.912088298797607,5.34400774307251
1789453821701013000,10.118012939453125,-5.342062454223632,-8.25475841140747,5.8283846664428705
1789453821710953000,10.127952880859375,-4.753986671447754,-8.692149127197265,5.587318486785889
1789453821720892000,10.137891845703125,-5.155613999938964,-8.910769666290284,5.2180128807067865
1789453821730832000,10.147831787109375,-4.78226817855835,-8.013841869354248,4.912752169036865
1789453821740771000,10.15777099609375,-3.444208725738525,-7.132775658416747,5.368398672485351
1789453821750711000,10.1677109375,-4.688744676208496,-6.809708071899414,4.37959338684082
1789453821760650000,10.17764990234375,-4.294299952697753,-6.8016276412963865,3.591152852630615
1789453821770590000,10.18758984375,-4.20676195449829,-6.626102732086181,3.4480993034362792
1789453821780529000,10.19752880859375,-3.2906805442810056,-6.762572226715087,4.4644379081726075
1789453821790468900,10.20746875,-4.8786347953796385,-7.223156771087646,4.165013063049316
1789453821800407800,10.21740771484375,-3.585316986083984,-7.511508433532715,4.984129306030273
1789453821810348000,10.22734814453125,-3.659537237548828,-7.870788320159912,4.930708681488037
1789453821820287000,10.237286865234376,-3.782090435028076,-8.610147720336913,4.538957434844971
1789453821830227000,10.24722705078125,-4.399644825744629,-9.536703762817382,4.451419436645508
1789453821840166000,10.257165771484376,-4.4111669212341305,-10.141239682006836,4.371961869049072
1789453821850106000,10.267106201171876,-4.235193099212646,-10.46984385986328,3.943549409484863
1789453821860045000,10.277045166015625,-3.998616047668457,-10.150217938232421,4.167407264709472
1789453821869984800,10.28698486328125,-3.425803300476074,-9.65327145614624,4.097526503753662
1789453821879924000,10.296924072265625,-3.5091514457702635,-9.052326839447021,3.3156700241088863
1789453821889864000,10.306864013671875,-3.066972326660156,-8.667608560180664,2.3153426429748536
1789453821899803000,10.316802978515625,-3.1016882507324217,-8.935160595703124,1.5683517250061034
1789453821909743000,10.3267431640625,-3.540126429748535,-9.464578437805175,1.737292579650879
1789453821919682000,10.33668212890625,-3.31342546005249,-9.94012674255371,2.381781739044189
1789453821929622000,10.3466220703125,-2.8892028533935545,-10.318260967254638,2.7902923973083493
1789453821939561000,10.35656103515625,-3.1055788284301755,-10.386495714569092,2.989609685516357
1789453821949501000,10.3665009765625,-3.733009300994873,-10.158896919250488,2.6797102081298827
1789453821959440000,10.37643994140625,-3.6725557090759273,-9.564386719512939,2.5864859809875487
1789453821969379800,10.3863798828125,-3.414131567382812,-8.983493541717529,2.939331450653076
1789453821979318800,10.39631884765625,-2.7934347869873046,-8.49791951751709,2.7072435272216797
1789453821989259000,10.406259033203124,-2.7383681488037106,-8.276455863952636,1.8676269325256347
1789453821999198000,10.416197998046876,-3.235464268493652,-8.496273503875733,1.2912228828430174
1789453822009138000,10.426137939453126,-3.3361703758239742,-8.467692721557617,1.650353131866455
1789453822019077000,10.4360771484375,-3.140444390106201,-8.615983586883544,2.21538472366333
1789453822029017000,10.44601708984375,-3.1657331451416013,-9.090783703613281,2.4003368019104
1789453822038956000,10.4559560546875,-3.778798407745361,-9.497648348236083,2.8636148231506344
1789453822048896000,10.46589599609375,-3.883694367980957,-9.47370633163452,3.834164321136474
1789453822058835000,10.4758349609375,-3.731662562561035,-9.452457791900635,4.148852201843262
1789453822068775000,10.48577490234375,-3.615693419647217,-9.40397520828247,4.441094441986084
1789453822078713900,10.4957138671875,-3.4671032791137693,-9.26376477355957,4.55182626876831
1789453822088654000,10.505654052734375,-3.330035234069824,-8.953266745758055,4.249109396362305
1789453822098593000,10.515593017578125,-3.620332185363769,-8.636035025787352,3.9273885482788082
1789453822108533000,10.525532958984375,-3.637540509796142,-8.508094874572754,3.4572271972656248
1789453822118472000,10.535471923828124,-3.425952938079834,-8.804526967620848,2.799121015930176
1789453822128412000,10.545411865234374,-3.3476924713134766,-9.111732968139648,2.3876176055908203
1789453822138350800,10.555350830078124,-3.3743279647827147,-9.358934289550781,2.345719076538086
1789453822148290800,10.565290771484374,-3.2568624458312985,-9.426420848846435,2.5664345420837402
1789453822158230000,10.57522998046875,-3.0377929939270016,-9.267655351257323,3.1311668586730956
1789453822168170000,10.585169921875,-2.4516625,-9.254487242126464,3.2954689476013184
1789453822178109000,10.59510888671875,-2.0418051033020017,-9.412803826904296,2.9225720390319823
1789453822188049200,10.605049072265626,-2.3356933570861815,-9.78704747390747,2.4425346061706543
1789453822197988000,10.614988037109375,-2.792985874176025,-10.437222862243651,2.13248549118042
1789453822207928000,10.624927978515625,-3.3839047714233397,-10.728118363952635,1.6229694503784178
1789453822217867000,10.634866943359375,-4.067299707794189,-10.465205094146729,2.0694880599975587
1789453822227807000,10.644806884765625,-4.208108692932129,-9.79916811981201,2.8871079269409177
1789453822237746000,10.654745849609375,-4.0447044296264645,-9.328707493591308,3.2620997619628906
1789453822247686000,10.664685791015625,-3.5365351272583005,-9.241917683410644,3.3533787002563473
1789453822257624800,10.674624755859375,-3.042880672454834,-9.51261210861206,3.17306538772583
1789453822267565000,10.68456494140625,-3.586813362121582,-9.662997900390625,3.29427184677124
1789453822277503500,10.69450341796875,-4.048445369720459,-9.658808047485351,3.028515462493896
1789453822287443500,10.704443359375,-5.0376995681762695,-9.214085089111327,3.375824340820312
1789453822297382700,10.714382568359374,-6.205022515106201,-7.66787972946167,5.138854588317871
1789453822307322600,10.724322509765624,-6.153846454620361,-6.603507453918457,6.64585489578247
1789453822317262300,10.734262451171874,-4.593126247406006,-6.36528438873291,6.7290534034729
1789453822327201500,10.744201416015626,-3.1938650146484373,-6.414215885162353,5.49065259475708
1789453822337140500,10.754140380859376,-3.1616929298400875,-6.715586019134521,4.358943397521973
1789453822347080400,10.76408056640625,-4.156782994842529,-7.270591891479492,3.6680665809631345
1789453822357019400,10.774019287109375,-5.066729263305664,-7.6473793777465815,3.4886510940551756
1789453822366959600,10.783959716796875,-5.537489164733886,-7.633313442993163,4.042010952758789
1789453822376899600,10.793899658203125,-4.997147777557373,-7.2152259780883785,5.098901348114014
1789453822386838500,10.803838623046875,-4.517708895111084,-6.8309566116333,5.689221694946289
1789453822396778500,10.813778564453125,-3.9297827499389646,-6.60156216506958,5.821650974273681
1789453822406717400,10.823717529296875,-3.6858734558105466,-7.013065575408935,5.781847371673583
1789453822416657400,10.833657470703125,-3.6542999214172363,-7.5248261802673335,5.66288547668457
1789453822426596400,10.843596435546875,-3.689464758300781,-7.760954319000244,5.486313104248047
1789453822436536600,10.85353662109375,-3.9200563056945796,-7.682843489837646,5.382763882446289
1789453822446475500,10.8634755859375,-4.460098417663574,-7.779808657073974,6.063465341949462
1789453822456415500,10.87341552734375,-4.0912417243957515,-7.933336838531494,6.492476351928711
1789453822466354700,10.883354736328124,-3.4874539932250976,-7.843703913879394,6.396109735107421
1789453822476294400,10.89329443359375,-3.357568553161621,-7.776965542602539,6.100874742889404
1789453822486233600,10.903233642578124,-4.387823455047607,-7.219116555786132,5.882553479003906
1789453822496173600,10.913173583984374,-5.269637854003906,-6.824073281860351,5.987599076843261
1789453822506112500,10.923112548828126,-5.31827007522583,-6.477362953948974,5.879560726928711
1789453822516052500,10.933052490234376,-6.20592034072876,-6.4077814682006835,6.294206526947021
1789453822525991400,10.942991455078126,-5.956025542449951,-6.814945388031005,6.875099704742431
1789453822535931600,10.952931640625,-4.497657456207275,-7.057507943725586,6.688351975250244
1789453822545870600,10.96287060546875,-4.5838487159729,-6.944082640075683,6.63358461227417
1789453822555810600,10.972810546875,-4.414758223724365,-7.462128024291991,7.15028325805664
1789453822565749500,10.98274951171875,-4.8050130943298335,-7.037456504821777,6.459406441497802
1789453822575689500,10.992689453125,-4.333205729675293,-6.537068357849121,5.065981075286865
1789453822585628400,11.00262841796875,-3.944447235107422,-5.6866778556823725,3.8001965850830075
1789453822595568400,11.012568359375,-5.2061915100097655,-6.2964510910034175,4.10530765914917
1789453822605507600,11.022507568359375,-4.910956517791748,-6.4640452072143555,4.463390444946289
1789453822615447600,11.032447509765625,-3.6418800003051754,-6.00765051574707,4.640860643005371
1789453822625386500,11.042386474609375,-3.4907460205078125,-5.138405675506592,3.7128082244873046
1789453822635326700,11.05232666015625,-4.343231449127197,-5.661089825439452,5.4230163978576655
1789453822645265700,11.062265625,-3.8914755233764646,-5.086481427001953,4.5863925552368165
1789453822655205400,11.072205322265624,-4.412364022064208,-4.361786511993408,3.9829040992736813
1789453822665144300,11.082144287109376,-4.942530052185059,-5.479429774475097,5.616946732330322
1789453822675084500,11.09208447265625,-4.149450752258301,-5.100248086547851,4.352359342956543
1789453822685023500,11.1020234375,-5.278765747833251,-5.079298822021484,5.336825138092041
1789453822694963500,11.11196337890625,-4.835688803100585,-5.15830747680664,4.8971898582458495
1789453822704902400,11.12190234375,-4.7189714721679685,-5.487959117889404,4.893149642944335
1789453822714842600,11.131842529296875,-5.593603266143798,-5.902754555511474,4.5033436851501465
1789453822724781600,11.141781494140625,-6.297498554229736,-5.994033493804931,5.3095910942077635
1789453822734721500,11.151721435546875,-7.0449383850097655,-6.334608679962158,6.387879666900634
1789453822744660700,11.16166064453125,-7.455992882537841,-6.643011781311035,7.6288243148803705
1789453822754600400,11.171600341796875,-6.038326224517822,-6.881534121704101,7.359326990509032
1789453822764539400,11.181539306640625,-4.8983869590759275,-6.768258455657959,6.213551858520508
1789453822774479600,11.191479736328125,-4.059967465209961,-6.4190042884826655,5.280561399078369
1789453822784418600,11.20141845703125,-5.166238269805908,-5.728277109527587,4.753537758636474
1789453822794358500,11.211358642578125,-5.232228453063964,-5.262754524230957,5.4604257987976075
1789453822804297500,11.22129736328125,-4.841674307250976,-5.336525862884521,6.044760641479492
1789453822814237700,11.23123779296875,-4.673780915832519,-5.1319712585449215,6.412120958709717
1789453822824176600,11.2411767578125,-5.60527499923706,-4.9826329299926755,6.782623665618896
1789453822834116400,11.251116455078124,-5.281459224700927,-4.70490553741455,7.095216619873047
1789453822844055300,11.26105517578125,-4.942978964996338,-4.609736021423339,7.220014381408691
1789453822853995500,11.27099560546875,-4.076577239227294,-4.8692076263427735,7.103745963287353
1789453822863934500,11.2809345703125,-3.3583167411804196,-4.422838654327393,5.562179369354248
1789453822873874400,11.29087451171875,-3.3119290840148925,-3.9037458068847655,3.7856817375183103
1789453822883813600,11.300813720703125,-4.387973092651367,-3.399018169403076,2.939331450653076
1789453822893753600,11.310753662109375,-5.012859725952148,-3.397222518157959,4.06670115737915
1789453822903692500,11.320692626953125,-4.757129061126709,-4.097676141357422,4.02854356842041
1789453822913632500,11.330632568359375,-4.3610383239746096,-4.111891713714599,3.2836475769042965
1789453822923571700,11.34057177734375,-5.015702840423583,-3.7784991325378416,4.102614182281494
1789453822933511400,11.350511474609375,-5.147982482147216,-4.132691340637207,5.354632012939453
1789453822943450400,11.360450439453125,-5.853224508666992,-4.499153832244873,6.573430295562744
1789453822953390600,11.370390625,-6.054337448120116,-4.64101028060913,7.5625348564147945
1789453822963329500,11.38032958984375,-6.175843182373047,-4.82057540512085,7.708431520080566
1789453822973269500,11.39026953125,-6.010493630218505,-5.138256037902832,7.4040686340332025
1789453822983208400,11.40020849609375,-5.793968017578124,-5.452644643402099,7.301117962646484
1789453822993148700,11.410148681640624,-5.425709874725341,-5.751321300506591,5.942258882904053
1789453823003088400,11.42008837890625,-5.665429315948486,-5.519233377075195,4.18147319946289
1789453823013027300,11.43002734375,-6.167463476562499,-5.1976621665954585,4.070891010284424
1789453823022967600,11.439967529296876,-5.687725318908691,-5.085284326171875,4.786607669067383
1789453823032906500,11.449906494140626,-5.690119520568848,-4.767603693389892,5.1602527656555175
1789453823042846500,11.459846435546876,-5.500678314208984,-4.29011009979248,5.3844098960876465
1789453823052785400,11.469785400390625,-5.028422036743164,-4.14975002746582,4.815637364196777
1789453823062725600,11.4797255859375,-4.618863915252685,-4.3077673370361325,3.9459436111450192
1789453823072664600,11.48966455078125,-4.660014256286621,-4.520552009582519,3.3342250869750973
1789453823082604300,11.499604248046875,-5.002834006500244,-4.525490050506591,3.8640918418884276
1789453823092543500,11.50954345703125,-5.04338579711914,-4.782717091369628,4.543596200561523
1789453823102483500,11.5194833984375,-5.208136798858642,-5.130025969696044,4.939088387298583
1789453823112422400,11.52942236328125,-5.32440521697998,-5.365555558013916,5.569212336730956
1789453823122362600,11.539362548828125,-5.664830765533447,-5.604676448822021,6.06466244277954
1789453823132301600,11.549301513671875,-5.984307049560546,-5.861454576873779,6.3156047042846675
1789453823142241500,11.559241455078125,-5.852027407836914,-6.137685593414306,6.845770734405517
1789453823152180500,11.569180419921874,-4.938340199279785,-6.444592318725586,6.725911013793945
1789453823162120700,11.57912060546875,-5.134814373016357,-6.368127503204345,6.077232001495361
1789453823172059600,11.5890595703125,-5.314080222320556,-5.852326683044433,5.773318028259277
1789453823181999400,11.598999267578124,-4.7240591506958,-5.040243407440185,5.751022025299072
1789453823191938300,11.608938232421876,-4.744260227203369,-4.617517176818847,5.568763423919678
1789453823201878500,11.61887841796875,-4.435857125854492,-4.417302062988281,6.359298884582519
1789453823211817500,11.6288173828125,-4.222773178100586,-4.471919788360595,6.294356164550781
1789453823221757400,11.63875732421875,-5.3287447074890135,-5.121496626281738,6.890961290740966
1789453823231696600,11.648696533203125,-5.1213469886779786,-5.863848778533935,7.02279201965332
1789453823241636600,11.65863671875,-4.929212305450439,-7.007229708862305,7.279719785308838
1789453823251575600,11.668575439453125,-4.862324296569824,-8.192060255432128,7.40571464767456
1789453823261515500,11.678515625,-4.5702316940307615,-8.19026460418701,6.323984410095214
1789453823271454500,11.688454345703125,-4.714631981658935,-8.416217385864257,6.136338854980468
1789453823281394200,11.698394287109375,-4.674379466247558,-8.205228364562988,5.758054992675781
1789453823291333400,11.70833349609375,-4.021660238647461,-7.254730305480956,5.334430936431884
1789453823301273300,11.7182734375,-4.802918167877197,-6.774692872619629,4.6651019348144525
1789453823311212300,11.72821240234375,-5.4315457412719725,-6.372915906524658,4.0532337730407715
1789453823321152500,11.738152587890625,-4.673481640625,-6.300491306304932,4.218583325195312
1789453823331091500,11.748091552734374,-4.0806174545288085,-6.471676725006103,4.001159886932373
1789453823341031400,11.758031494140624,-4.114136277770996,-7.014561951446533,4.370166217803955
1789453823350970400,11.767970458984376,-5.02438182144165,-7.847145578765868,3.7702690643310546
1789453823360910300,11.777910400390626,-4.697573294830322,-8.769212493133544,4.563946914672851
1789453823370849300,11.787849365234376,-4.804713819122314,-9.232640151977538,4.285471334075927
1789453823380789200,11.797789306640626,-3.6282629783630367,-9.6151138671875,4.78181926574707
1789453823390728200,11.807728271484375,-4.8903065284729,-9.94057565536499,4.550329892730713
1789453823400668400,11.81766845703125,-5.279214660644531,-9.871742357635497,4.4768578292846675
1789453823410607400,11.827607421875,-4.207659780120849,-9.095871382141112,4.703708436584472
1789453823420547300,11.83754736328125,-3.4401685104370117,-8.182932361602782,4.789001870727539
1789453823430486500,11.847486572265625,-3.53054962310791,-7.621192797088622,4.74994645614624
1789453823440426200,11.85742626953125,-3.6682162185668945,-7.83981333618164,3.9891888786315914
1789453823450365200,11.867365234375,-3.847332430267334,-8.749909242248535,3.3170167625427243
1789453823460305400,11.877305419921875,-4.11802685546875,-9.542090716552734,3.2339678924560546
1789453823470244400,11.887244384765625,-3.530100710296631,-9.598953005981445,3.652504270172119
1789453823480184300,11.897184326171875,-3.287388516998291,-9.25089593963623,4.029890306854248
1789453823490123300,11.907123291015624,-3.0597897216796874,-8.65010096054077,3.6866216438293455
1789453823500063500,11.9170634765625,-4.112041351318359,-8.03194801940918,3.5236662933349607
1789453823510002400,11.92700244140625,-3.8596027137756344,-7.9183730781555175,2.881870610809326
1789453823519942400,11.9369423828125,-2.961477816009521,-8.174851930999756,2.083254719543457
1789453823529881300,11.94688134765625,-2.8630162727355954,-9.038260904693603,1.520168416595459
1789453823539821300,11.9568212890625,-3.72193611831665,-10.040533574676513,1.6029180114746093
1789453823549760300,11.96676025390625,-3.8040871627807613,-10.48286233139038,2.2744915771484373
1789453823559700200,11.9767001953125,-3.071461454772949,-10.523264484405518,3.038241906738281
1789453823569639400,11.986639404296875,-3.1281741065979003,-10.156203442382813,3.174262488555908
1789453823579579400,11.996579345703125,-3.845087866210937,-9.469217203521728,3.001131781005859
1789453823589518300,12.006518310546875,-4.02210915145874,-8.466944533538818,3.2058360229492187
1789453823599458600,12.01645849609375,-3.678690850830078,-7.376834590148925,3.7196915542602538
1789453823609397500,12.0263974609375,-3.0732571060180662,-7.311891870117187,3.436726845550537
1789453823619337200,12.036337158203125,-3.2849943153381345,-7.979574858093261,2.7748797241210936
1789453823629276200,12.046276123046875,-4.169951103973388,-9.015067076110839,3.4153286682128905
1789453823639216400,12.05621630859375,-4.223820641326904,-9.930400298309326,4.067748620605468
1789453823649156400,12.06615625,-4.189254354858398,-10.392630856323242,4.108450048828125
1789453823659095300,12.07609521484375,-4.324377111053466,-10.385448251342773,4.519354908752441
1789453823669035500,12.086035400390625,-3.824737152099609,-9.996540119171142,4.301482557678223
1789453823678974500,12.095974365234374,-3.7618893585205075,-9.701454764556884,3.7505169006347656
1789453823688914200,12.1059140625,-3.9208044937133786,-9.517699787139891,3.5052608680725097
1789453823698853400,12.115853271484376,-3.4172739570617674,-9.651026892089844,2.71337866897583
1789453823708793300,12.12579345703125,-3.331232334899902,-9.912294148254395,2.5540146209716794
1789453823718732300,12.135732177734376,-2.839523168945312,-9.70369932861328,2.793584424591064
1789453823728672300,12.14567236328125,-2.6234464691162107,-9.150788382720947,3.449296404266357
1789453823738611500,12.155611572265625,-2.0911855125427246,-8.748412866210938,4.071639198303222
1789453823748551400,12.165551513671875,-1.4835072036743162,-8.385092764282225,3.46007031173706
1789453823758490400,12.175490478515625,-1.9029414070129393,-8.391377543640136,2.649034499359131
1789453823768430300,12.185430419921875,-2.605938869476318,-8.850465711975097,2.325218724822998
1789453823778369500,12.19536962890625,-2.800168479156494,-9.445574462127684,1.9610007972717285
1789453823788309200,12.205309326171875,-3.329885596466064,-9.558700490570068,1.9904794052124022
1789453823798248200,12.215248291015625,-3.8796541526794432,-9.445125549316407,2.693626505279541
1789453823808188400,12.2251884765625,-3.76024334487915,-9.382128118133544,2.6262895835876465
1789453823818127400,12.23512744140625,-4.179078997802734,-9.286360051727295,2.8600235206604
1789453823828067300,12.2450673828125,-4.236988750457764,-8.64456436920166,3.9344215156555173
1789453823838006300,12.25500634765625,-3.525162669372558,-8.412476445770263,4.3245267486572265
1789453823847946500,12.264946533203124,-3.395875779724121,-8.686911811065674,3.7587469688415527
1789453823857885400,12.274885498046874,-4.537311421203613,-8.415169922637938,4.198531886291503
1789453823867825200,12.2848251953125,-5.182698406219482,-7.800009733581542,5.016750303649902
1789453823877764400,12.294764404296876,-4.4184991638183595,-7.173028173828125,5.089923091888427
1789453823887704300,12.304704345703126,-3.0762498580932616,-7.023390570068359,4.370315855407714
1789453823897643300,12.314643310546876,-2.718466347503662,-7.076362281799316,4.193893120574951
1789453823907583200,12.324583251953126,-3.0234277839660644,-7.127538342285156,3.5058594184875487
1789453823917522400,12.3345224609375,-3.895216463470459,-7.782202858734131,3.342904067993164
1789453823927462400,12.34446240234375,-5.058499195098877,-8.452130410766602,3.9639001235961913
1789453823937401300,12.3544013671875,-5.9017070922851556,-8.407688042449951,5.506514180755615
1789453823947341600,12.364341552734375,-5.68203908996582,-7.811531829071044,7.001543479919433
1789453823957280500,12.374280517578125,-4.1943420333862305,-7.430404852294921,7.476942147064208
1789453823967220200,12.38422021484375,-2.872293804168701,-7.155221298980712,6.742670425415039
1789453823977159200,12.3941591796875,-2.7269956909179687,-6.812401548767089,5.457283409118652
1789453823987099400,12.404099365234375,-3.8609494522094723,-6.968772844696044,5.418976182556152
1789453823997038300,12.414038330078125,-4.751442832183837,-7.385214295959472,5.391442863464355
1789453824006978300,12.423978271484375,-5.450549716949463,-7.438784558105469,5.8080339523315425
1789453824016917200,12.433917236328124,-5.657049610137939,-7.803601036071777,6.769156281280517
1789453824026857500,12.443857421875,-4.9263691909790035,-8.0062103515625,6.650942574310302
1789453824036796400,12.45379638671875,-4.116081566619873,-8.078186038970946,6.344634399414062
1789453824046736100,12.463736083984376,-4.370914405822754,-7.73147571105957,6.183175424957275
1789453824056675300,12.47367529296875,-4.322731097412109,-7.359925540924072,5.470601155853271
1789453824066615300,12.483615234375,-4.443189368438721,-7.01650724029541,5.177311452484131
1789453824076554200,12.49355419921875,-4.158728283691406,-6.590788257598876,4.537760334014893
1789453824086494500,12.503494384765625,-4.283077132415771,-6.630591860198974,4.8403275688171385
1789453824096433400,12.513433349609375,-4.404582866668701,-6.2761003768920895,4.963329679107666
1789453824106373400,12.523373291015625,-4.38632707901001,-6.546196251678467,5.824344451141357
1789453824116312300,12.533312255859375,-4.366126002502441,-6.935104383850097,6.1373863182067865
1789453824126252300,12.543252197265625,-4.834940615081787,-6.8858736122131345,6.496516567230224
1789453824136191500,12.55319140625,-4.330212977600097,-7.125593053436279,6.592583908843994
1789453824146131200,12.563131103515625,-4.626345795440674,-6.534524518585204,5.870432833099365
1789453824156070100,12.573070068359375,-5.075108969116211,-6.051045420837402,5.91816722869873
1789453824166010400,12.58301025390625,-4.873846392059326,-5.948094749450683,5.608866301727295
1789453824175949300,12.59294921875,-5.756408979034424,-5.730372035980224,6.3423898353576655
1789453824185889300,12.60288916015625,-5.548711985015869,-5.939864681243896,7.535001537322998
1789453824195828500,12.612828369140624,-5.0757075195312495,-6.011840368652344,7.181707154846191
1789453824205768400,12.6227685546875,-5.13915386352539,-6.25021307144165,6.606350568389892
1789453824215707400,12.632707275390626,-4.763413840484619,-6.061220777893066,5.175815076446533
1789453824225647400,12.6426474609375,-5.284601614379882,-5.743839420318603,4.7761330368041985
1789453824235587300,12.65258740234375,-5.409249738311767,-5.349544334411621,4.490624488830566
1789453824245526300,12.6625263671875,-5.289390017700195,-4.995801039123535,4.661211357116699
1789453824255466500,12.672466552734376,-5.226093311309814,-4.94791700592041,5.0945618576049805
1789453824265405400,12.682405517578125,-4.8980876838684075,-5.065232887268066,5.6407391113281244
1789453824275345400,12.692345458984375,-4.947019180297851,-5.936722291564941,5.6961050247192375
1789453824285284600,12.70228466796875,-5.6112605033874505,-5.929090773773193,5.228038600158691
1789453824295224300,12.712224365234375,-5.404910247802734,-5.539434453582763,5.4896051315307615
1789453824305163300,12.722163330078125,-5.531802935791015,-5.591508339691162,5.596446380615234
1789453824315103500,12.732103515625,-4.425681768798828,-5.614552530670165,5.786635774993896
1789453824325042400,12.74204248046875,-5.147982482147216,-5.810727429199218,6.293009426116943
1789453824334982400,12.751982421875,-5.0203416061401365,-6.119130530548095,6.443095942687988
1789453824344921600,12.761921630859375,-4.527884252166748,-5.925349833679199,6.51836365737915
1789453824354861600,12.771861572265625,-5.964255610656738,-5.617096369934082,7.353491123962402
1789453824364800500,12.781800537109374,-4.170549654388427,-5.354033462524414,7.352742935943603
