time,seconds_elapsed,z,y,x
1789453811633608000,0.05060791015625,0.10731074213981628,0.5284630060195923,-0.22980310022830963
1789453811643547000,0.060546875,0.16744785010814667,0.5694038271903992,-0.20703360438346863
1789453811653486800,0.07048681640625,0.17691005766391754,0.7012393474578857,-0.19072148203849792
1789453811663426000,0.080426025390625,0.19395563006401062,0.8202115297317505,-0.19082561135292053
1789453811673365000,0.090364990234375,0.15012745559215546,0.9497095942497253,-0.3091735541820526
1789453811683304700,0.1003046875,0.17678329348564148,0.8774092793464661,-0.4572591483592987
1789453811693243600,0.11024365234375,0.23501917719841003,0.8558600544929504,-0.58033287525177
1789453811703182800,0.120182861328125,0.23621146380901337,0.8783677816390991,-0.7708432078361511
1789453811713121800,0.130121826171875,0.30128926038742065,0.9357817769050598,-0.7222673892974854
1789453811723061800,0.140061767578125,0.3969617486000061,1.0048420429229736,-0.44247275590896606
1789453811733000700,0.150000732421875,0.4515397548675537,0.975811243057251,-0.043961863964796066
1789453811742940000,0.15993994140625,0.3150218725204468,1.310605525970459,0.14592604339122772
1789453811752879900,0.1698798828125,0.15141801536083221,0.901083767414093,0.17970584332942963
1789453811762818800,0.17981884765625,0.11400726437568665,0.4770006537437439,0.23346121609210968
1789453811772757800,0.1897578125,0.11191055923700333,0.42883363366127014,0.2646854519844055
1789453811782697000,0.199697021484375,0.151824951171875,0.4567776620388031,0.1946062296628952
1789453811792637000,0.209636962890625,0.25955459475517273,0.7551158666610718,0.12964987754821777
1789453811802576000,0.219575927734375,0.4029807448387146,0.8763195276260376,0.012077702209353447
1789453811812514800,0.229514892578125,0.5748758316040039,0.7575372457504272,-0.1720535159111023
1789453811822455000,0.239455078125,0.7820817232131958,0.7006345391273499,-0.3276122212409973
1789453811832394000,0.24939404296875,0.9627779722213745,0.8021339774131775,-0.3989274203777313
1789453811842333000,0.2593330078125,1.1914055347442627,0.7822667956352234,-0.47170335054397583
1789453811852272600,0.269272705078125,1.4948195219039917,0.8450694680213928,-0.5140340328216553
1789453811862211800,0.2792119140625,1.84567129611969,0.9920594692230225,-0.4860348701477051
1789453811872150800,0.28915087890625,2.2949862480163574,1.1778665781021118,-0.3839915990829468
1789453811882089700,0.29908984375,2.9949288368225098,1.4959779977798462,-0.23927943408489227
1789453811892029700,0.30902978515625,3.92470383644104,1.5143016576766968,0.002837598090991378
1789453811901969000,0.318968994140625,4.300722122192383,0.9765417575836182,0.44009536504745483
1789453811911907800,0.328907958984375,3.554542064666748,0.08682730793952942,0.6163292527198792
1789453811921847800,0.338847900390625,1.2005282640457153,-0.5677694082260132,0.28669673204421997
1789453811931786800,0.348786865234375,-0.6656251549720764,-0.8499686121940613,0.37954413890838623
1789453811941725700,0.3587255859375,-1.2722604274749756,-1.1445273160934448,0.41141951084136963
1789453811951666000,0.368666015625,-1.1708049774169922,-1.5797014236450195,0.15336932241916656
1789453811961604900,0.37860498046875,-0.6255546808242798,-1.8074828386306763,-0.20405618846416473
1789453811971543800,0.388543701171875,-0.1459263116121292,-1.595495581626892,-0.4819362759590149
1789453811981482800,0.398482666015625,-0.2229079157114029,-0.7128182053565979,-0.46520256996154785
1789453811991423000,0.408423095703125,-0.5622814297676086,0.45299890637397766,-0.40312907099723816
1789453812001362000,0.41836181640625,-0.658635675907135,0.21981865167617798,-0.5220205783843994
1789453812011300900,0.42830078125,-0.5680461525917053,-0.6890085339546204,-0.7482460141181946
1789453812021240800,0.43824072265625,-0.36452949047088623,-1.4752542972564697,-0.8716830015182495
1789453812031180000,0.448179931640625,-0.05620814487338066,-1.8953101634979248,-0.7830651998519897
1789453812041119000,0.458118896484375,0.2442092001438141,-2.0685901641845703,-0.4992428421974182
1789453812051058700,0.46805859375,0.502022922039032,-2.0912184715270996,-0.0528874509036541
1789453812060998000,0.477997802734375,0.6925124526023865,-2.0020413398742676,0.47643551230430603
1789453812070936800,0.487936767578125,0.8028762340545654,-1.7056819200515747,0.9953522086143494
1789453812080876800,0.497876708984375,0.8222267627716064,-1.194894552230835,1.3968154191970825
1789453812090815700,0.507815673828125,0.740601658821106,-0.8633667230606079,1.4730156660079956
1789453812100754700,0.517754638671875,0.5685343146324158,-1.0835150480270386,1.0874714851379395
1789453812110694000,0.52769384765625,0.3964290916919708,-1.2081592082977295,0.4698428511619568
1789453812120633900,0.5376337890625,0.24489657580852509,-0.6548124551773071,-0.24455781280994415
1789453812130572800,0.54757275390625,0.24604065716266632,-0.2000148445367813,-0.5825681090354919
1789453812140511700,0.55751171875,0.28811115026474,0.16219663619995117,-0.881223738193512
1789453812150452000,0.567451904296875,0.28340375423431396,0.27602171897888184,-1.199158787727356
1789453812160391000,0.577390869140625,0.24981649219989777,0.1743512898683548,-1.5002644062042236
1789453812170329900,0.587329833984375,0.15251284837722778,0.06851620972156525,-1.6607367992401123
1789453812180270000,0.59727001953125,0.009741044603288174,0.08594579994678497,-1.6102644205093384
1789453812190209000,0.607208984375,-0.0633869618177414,0.1320270150899887,-1.370909333229065
1789453812200148000,0.61714794921875,-0.02286323718726635,-0.11996795237064362,-0.9509391784667969
1789453812210087700,0.627087646484375,0.08125144988298416,-0.45053866505622864,-0.5249010324478149
1789453812220026600,0.637026611328125,0.1433744728565216,-0.778403639793396,-0.16283045709133148
1789453812229965800,0.6469658203125,0.126569926738739,-1.0310382843017578,0.1429307907819748
1789453812239905800,0.65690576171875,-0.00010492854926269501,-0.9976435899734497,0.42312249541282654
1789453812249844700,0.6668447265625,-0.16455645859241486,-0.7119066119194031,0.7264198064804077
1789453812259783700,0.67678369140625,-0.2879883646965027,-0.3082275986671448,1.0360466241836548
1789453812269723100,0.68672314453125,-0.33580464124679565,0.11083197593688965,1.2777918577194214
1789453812279663000,0.6966630859375,-0.32466569542884827,0.40885859727859497,1.3872743844985962
1789453812289602000,0.70660205078125,-0.27851632237434387,0.4159069359302521,1.2727627754211426
1789453812299541200,0.716541259765625,-0.19230179488658905,-0.015982428565621376,0.7917354106903076
1789453812309481200,0.726481201171875,-0.08592156320810318,-0.38327521085739136,0.2480417639017105
1789453812319420200,0.736420166015625,-0.09982805699110031,-0.17068971693515778,0.03528102487325668
1789453812329359000,0.746359130859375,-0.19309648871421814,0.1559256911277771,-0.0029406624380499125
1789453812339299300,0.75629931640625,-0.25302401185035706,0.3015071153640747,0.056835852563381195
1789453812349238300,0.76623828125,-0.292367160320282,0.35145843029022217,0.24128824472427368
1789453812359177200,0.77617724609375,-0.2538527846336365,0.31752124428749084,0.4445015490055084
1789453812369117000,0.786116943359375,-0.12792201340198517,0.30049219727516174,0.533035159111023
1789453812379056000,0.79605615234375,0.0011861718958243728,0.24091008305549622,0.5155230164527893
1789453812388995000,0.8059951171875,0.08819510787725449,0.2483091503381729,0.3991561830043793
1789453812398935000,0.81593505859375,0.15078338980674744,0.3117903769016266,0.28210943937301636
1789453812408874000,0.8258740234375,0.21780823171138763,0.3247389495372772,0.24122166633605957
1789453812418813200,0.835813232421875,0.2689198851585388,0.3405189514160156,0.29006803035736084
1789453812428753200,0.845753173828125,0.23343698680400848,0.2833044230937958,0.3991146385669708
1789453812438692000,0.855692138671875,0.10509872436523438,0.1682358831167221,0.5180431604385376
1789453812448631000,0.865631103515625,-0.04657575860619545,0.13612082600593567,0.630912184715271
1789453812458571300,0.8755712890625,-0.13431306183338165,0.18484388291835785,0.6885325908660889
1789453812468510200,0.88551025390625,-0.13278014957904816,0.1917704939842224,0.6774165630340576
1789453812478449200,0.89544921875,-0.10364863276481628,0.039976444095373154,0.5650473833084106
1789453812488389400,0.905389404296875,-0.07672140747308731,-0.1311875879764557,0.4286336302757263
1789453812498328300,0.915328369140625,-0.021709555760025978,-0.21156391501426697,0.28896549344062805
1789453812508267300,0.925267333984375,-0.0041675809770822525,-0.2517411708831787,0.14837002754211426
1789453812518207000,0.93520703125,-0.057488325983285904,-0.223067969083786,0.05236760154366493
1789453812528146000,0.94514599609375,-0.1121254712343216,-0.16996772587299347,-0.005892510060220957
1789453812538085000,0.955085205078125,-0.12622478604316711,-0.14082103967666626,-0.054306115955114365
1789453812548025000,0.965025146484375,-0.12030324339866638,-0.12400689721107483,-0.07413254678249359
1789453812557964000,0.974964111328125,-0.11890748143196106,-0.07495440542697906,-0.06108705699443817
1789453812567903000,0.984903076171875,-0.11100134998559952,-0.028186630457639694,-0.03710715472698212
1789453812577843200,0.99484326171875,-0.10866948962211609,-0.05405284836888313,0.007251521106809378
1789453812587782100,1.0047822265625,-0.07656561583280563,-0.14245861768722534,0.05586566403508186
1789453812597721000,1.01472119140625,-0.02389680966734886,-0.27335989475250244,0.07875579595565796
1789453812607661300,1.024661376953125,0.0333225354552269,-0.3762098550796509,0.07801224291324615
1789453812617600300,1.034600341796875,0.0676134005188942,-0.4464310109615326,0.0508650466799736
1789453812627539200,1.044539306640625,0.03803020715713501,-0.40211760997772217,0.002947852946817875
1789453812637479200,1.054479248046875,-0.017589645460247993,-0.23061057925224304,-0.07114368677139282
1789453812647418000,1.064418212890625,-0.06908612698316574,-0.027283020317554474,-0.15085475146770477
1789453812657357300,1.074357421875,-0.11133451014757156,0.10289335995912552,-0.19709628820419312
1789453812667297000,1.084297119140625,-0.14849919080734253,0.13335059583187103,-0.20449481904506683
1789453812677236000,1.094236083984375,-0.15425348281860352,0.09240289777517319,-0.21922342479228973
1789453812687175000,1.1041748046875,-0.1182856336236,0.03716627508401871,-0.25196006894111633
1789453812697115100,1.114115234375,-0.08046607673168182,-0.017771007493138313,-0.28735002875328064
1789453812707054000,1.12405419921875,-0.054368168115615845,-0.10673070698976517,-0.30263495445251465
1789453812716993000,1.133992919921875,-0.04066700115799904,-0.18906259536743164,-0.2828277051448822
1789453812726933200,1.143933349609375,-0.029983464628458023,-0.23612864315509796,-0.24696823954582214
1789453812736872200,1.1538720703125,-0.028683310374617577,-0.24033856391906738,-0.2059936374425888
1789453812746811100,1.16381103515625,-0.011611915193498135,-0.17317497730255127,-0.18581406772136688
1789453812756751000,1.173751220703125,0.008384696207940578,-0.10933767259120941,-0.1784975677728653
1789453812766690300,1.183690185546875,0.02563132718205452,-0.054134342819452286,-0.1781899780035019
1789453812776629200,1.193629150390625,0.030538467690348625,-0.010385262779891491,-0.19088952243328094
1789453812786569200,1.2035693359375,0.01353578269481659,-0.0023118900135159492,-0.2325219213962555
1789453812796508200,1.213508056640625,-0.013885721564292908,0.017845310270786285,-0.2799419164657593
1789453812806447000,1.223447021484375,0.009268865920603275,-0.011120028793811798,-0.30067408084869385
1789453812816387000,1.233386962890625,0.0233540590852499,-0.1457446813583374,-0.3048730790615082
1789453812826326000,1.243325927734375,0.055263787508010864,-0.33808937668800354,-0.2297690212726593
1789453812836265000,1.253264892578125,0.08781587332487106,-0.4887619614601135,-0.11591009050607681
1789453812846205200,1.263205078125,0.030411435291171074,-0.5172860026359558,-0.03652552142739296
1789453812856144100,1.27314404296875,0.01792760193347931,-0.38068023324012756,0.028677983209490776
1789453812866083000,1.2830830078125,0.03815404325723648,-0.07683539390563965,0.0238810982555151
1789453812876023000,1.29302294921875,-0.03399977833032608,0.17979267239570618,0.040954891592264175
1789453812885962200,1.302962158203125,-0.08071135729551315,0.2670186460018158,0.12962058186531067
1789453812895901200,1.312901123046875,-0.07727667689323425,0.21654614806175232,0.26444363594055176
1789453812905841200,1.322841064453125,-0.04420607537031174,0.012108327820897102,0.3824794590473175
1789453812915780000,1.332780029296875,0.07224064320325851,-0.22190682590007782,0.4769388437271118
1789453812925719000,1.342718994140625,0.1969037503004074,-0.4186140298843384,0.4536231458187103
1789453812935659300,1.3526591796875,0.3166823387145996,-0.48019376397132874,0.3434273898601532
1789453812945598200,1.36259814453125,0.4197852909564972,-0.27855145931243896,0.17109398543834686
1789453812955537200,1.372537109375,0.4693051874637604,-0.07748574018478394,0.032996565103530884
1789453812965477000,1.38247705078125,0.4870452880859375,0.025251027196645737,-0.010486196726560593
1789453812975416000,1.392416015625,0.5314375162124634,0.02803696133196354,0.022892266511917114
1789453812985355300,1.402355224609375,0.5530251264572144,-0.11968778818845749,0.11773382127285004
1789453812995295000,1.412294921875,0.5845015645027161,-0.29045286774635315,0.21236738562583923
1789453813005234200,1.422234130859375,0.6145409345626831,-0.39171743392944336,0.2332361787557602
1789453813015173000,1.432173095703125,0.6984925270080566,-0.3769747018814087,0.16653278470039368
1789453813025113000,1.442113037109375,0.7442440390586853,-0.31957507133483887,0.04868311807513237
1789453813035052000,1.452052001953125,0.7619157433509827,-0.26720479130744934,-0.087689109146595
1789453813044991200,1.4619912109375,0.8225662708282471,-0.20409294962882996,-0.2454957813024521
1789453813054931200,1.47193115234375,0.9478456377983093,-0.1420508772134781,-0.360403448343277
1789453813064870100,1.4818701171875,1.1183806657791138,-0.1974020153284073,-0.3831194341182709
1789453813074809000,1.49180908203125,1.3556493520736694,-0.34502875804901123,-0.3024437427520752
1789453813084749300,1.501749267578125,1.6334985494613647,-0.5715361833572388,-0.17943793535232544
1789453813094688300,1.511688232421875,1.883462905883789,-0.8852805495262146,-0.09191767126321793
1789453813104627200,1.521627197265625,2.106492757797241,-1.1860742568969727,-0.027215640991926193
1789453813114567200,1.531567138671875,2.295102834701538,-1.399514079093933,-0.02365313097834587
1789453813124506000,1.541506103515625,2.4426698684692383,-1.472896933555603,-0.08385787904262543
1789453813134445300,1.5514453125,1.6499196290969849,-1.6792322397232056,-0.29135382175445557
1789453813144385000,1.561385009765625,1.0862752199172974,-1.8141160011291504,-0.5314825177192688
1789453813154324000,1.571323974609375,0.9236809611320496,-1.8256558179855347,-0.8148828148841858
1789453813164263200,1.58126318359375,1.0476182699203491,-2.036527633666992,-1.3095543384552002
1789453813174203100,1.591203125,1.525283932685852,-2.35284686088562,-1.8460081815719604
1789453813184142000,1.60114208984375,2.4753925800323486,-2.2402050495147705,-2.2752485275268555
1789453813194081000,1.6110810546875,3.799978256225586,-2.350473165512085,-2.9195244312286377
1789453813204021200,1.621021240234375,4.748122692108154,-1.820473313331604,-3.4027140140533447
1789453813213960200,1.630960205078125,5.46459436416626,-1.5190627574920654,-3.832428216934204
1789453813223900200,1.640900146484375,6.334630012512207,-1.8365135192871094,-4.142944812774658
1789453813233839000,1.650839111328125,7.027952194213867,-2.1436874866485596,-4.170804023742676
1789453813243778300,1.6607783203125,7.312466144561768,-2.354504108428955,-4.0257978439331055
1789453813253718000,1.670718017578125,7.319997310638428,-2.519364595413208,-3.857222318649292
1789453813263657200,1.6806572265625,7.024900436401367,-2.6150639057159424,-3.5784506797790527
1789453813273596200,1.69059619140625,6.53902006149292,-3.0038132667541504,-3.1291592121124268
1789453813283536100,1.7005361328125,5.891452312469482,-3.6801135540008545,-2.4195477962493896
1789453813293475000,1.71047509765625,5.043168544769287,-4.181941509246826,-1.3604731559753418
1789453813303414000,1.7204140625,4.228909015655518,-4.652591228485107,-0.15033091604709625
1789453813313354200,1.730354248046875,3.853527545928955,-6.0063700675964355,1.0232727527618408
1789453813323293200,1.740293212890625,3.910473585128784,-7.1089677810668945,2.1201963424682617
1789453813333232000,1.750232177734375,3.9593758583068848,-6.895401954650879,2.821685552597046
1789453813343172400,1.76017236328125,3.926274299621582,-6.255300521850586,2.8585329055786133
1789453813353111300,1.770111328125,3.81689190864563,-6.212235927581787,2.9093127250671387
1789453813363050200,1.78005029296875,3.4709455966949463,-6.368357181549072,3.0398688316345215
1789453813372990200,1.789990234375,3.1456267833709717,-6.288407802581787,3.0316028594970703
1789453813382929400,1.799929443359375,2.6948652267456055,-5.68427848815918,3.023404359817505
1789453813392869000,1.809869140625,2.7264351844787598,-3.8607306480407715,1.8600348234176636
1789453813402808000,1.81980810546875,2.9105136394500732,-1.7717970609664917,0.7572325468063354
1789453813412747300,1.829747314453125,2.996304988861084,-1.1909393072128296,-0.0292391125112772
1789453813422687200,1.839687255859375,2.4293127059936523,-1.0565071105957031,-0.7475940585136414
1789453813432626200,1.849626220703125,1.9027174711227417,-0.875082790851593,-1.3445301055908203
1789453813442565000,1.859565185546875,1.890702724456787,-0.36751917004585266,-1.626289963722229
1789453813452505000,1.869505126953125,2.1856133937835693,-0.19142189621925354,-1.7310965061187744
1789453813462444300,1.8794443359375,2.2859318256378174,-0.12239595502614975,-1.594027042388916
1789453813472383200,1.88938330078125,2.263427734375,-0.21953102946281433,-1.1397266387939453
1789453813482323200,1.8993232421875,2.307307004928589,-0.32127949595451355,-0.6704569458961487
1789453813492262100,1.90926220703125,2.1905689239501953,-0.3827577531337738,-0.3094981908798218
1789453813502202400,1.919202392578125,2.0052223205566406,-0.4883608818054199,0.028359469026327133
1789453813512141300,1.929141357421875,1.8143861293792725,-0.6234065890312195,0.3429917097091675
1789453813522080300,1.939080322265625,1.6430600881576538,-0.6926977634429932,0.701897144317627
1789453813532020200,1.949020263671875,1.5059411525726318,-0.7718727588653564,1.0956255197525024
1789453813541959200,1.958959228515625,1.4665101766586304,-0.960862398147583,1.4456839561462402
1789453813551898400,1.9688984375,1.4678899049758911,-1.0947117805480957,1.6387255191802979
1789453813561838000,1.978838134765625,1.4774130582809448,-1.3584518432617188,1.7328600883483887
1789453813571777000,1.988777099609375,1.4823495149612427,-1.414020299911499,1.7550886869430542
1789453813581716200,1.99871630859375,1.5390876531600952,-1.3125250339508057,1.6046792268753052
1789453813591656200,2.00865625,1.3253660202026367,-0.5624691843986511,0.7484923601150513
1789453813601595100,2.01859521484375,1.291281819343567,-0.9517056345939636,0.618883490562439
1789453813611534000,2.0285341796875,0.7094639539718628,-0.08805982023477554,-0.6081905961036682
1789453813621474300,2.038474365234375,0.23541225492954254,-0.08566723018884659,-1.367321491241455
1789453813631413200,2.048413330078125,-0.2798002362251282,0.15520024299621582,-1.561967372894287
1789453813641353200,2.058353271484375,-0.5142308473587036,0.41697433590888977,-1.6197129487991333
1789453813651292400,2.06829248046875,-0.7758022546768188,0.7306696772575378,-1.581035852432251
1789453813661231400,2.0782314453125,-1.2351008653640747,0.7662058472633362,-1.7278839349746704
1789453813671171000,2.088171142578125,-1.62538743019104,0.7286155819892883,-1.915595293045044
1789453813681110000,2.098110107421875,-1.9460601806640625,0.6161382794380188,-1.7839155197143555
1789453813691049200,2.10804931640625,-2.15796160697937,0.6305686235427856,-1.518625259399414
1789453813700989200,2.1179892578125,-2.1193175315856934,0.6809055805206299,-1.3399852514266968
1789453813710928100,2.12792822265625,-1.956101655960083,0.5868962407112122,-1.4936455488204956
1789453813720868000,2.1378681640625,-1.838568925857544,0.06417392939329147,-1.6712614297866821
1789453813730807300,2.147807373046875,-1.727830410003662,-0.5193449258804321,-1.6272639036178589
1789453813740746200,2.157746337890625,-1.7125548124313354,-1.189578652381897,-1.5135554075241089
1789453813750686200,2.167686279296875,-1.6579018831253052,-2.30114483833313,-1.2396767139434814
1789453813760625200,2.177625244140625,-1.5566322803497314,-3.405822992324829,-0.6102103590965271
1789453813770564400,2.187564453125,-2.004268169403076,-3.9889261722564697,0.05739724636077881
1789453813780504300,2.19750439453125,-2.706411361694336,-4.288895606994629,0.5692291259765625
1789453813790443300,2.207443359375,-2.7327044010162354,-4.46049690246582,0.7452986836433411
1789453813800382200,2.21738232421875,-2.7607645988464355,-3.66711163520813,0.5773067474365234
1789453813810322200,2.227322265625,-3.0496978759765625,-2.515460729598999,0.6218928694725037
1789453813820261000,2.23726123046875,-3.6099743843078613,-1.8360955715179443,0.2515893578529358
1789453813830201000,2.247201171875,-4.34067440032959,-2.148733139038086,0.05156998336315155
1789453813840140000,2.25714013671875,-5.420074939727783,-2.1278843879699707,0.7246400117874146
1789453813850079200,2.267079345703125,-5.070600986480713,-2.1003620624542236,0.8837167620658875
1789453813860019200,2.277019287109375,-3.897120714187622,-0.7207403182983398,0.47081199288368225
1789453813869958100,2.286958251953125,-2.5867435932159424,0.5164039731025696,-0.055030763149261475
1789453813879897000,2.29689697265625,-1.7460675239562988,-0.46817731857299805,0.46045973896980286
1789453813889837300,2.30683740234375,-1.635641098022461,-1.4719467163085938,1.4021756649017334
1789453813899776300,2.3167763671875,-1.5069656372070312,-2.788708448410034,2.4808120727539062
1789453813909715200,2.326715087890625,-1.1023257970809937,-3.0048446655273438,3.03031063079834
1789453813919655400,2.336655517578125,-0.6906532645225525,-2.377622365951538,2.670111656188965
1789453813929594400,2.346594482421875,-0.3667617440223694,-1.3240350484848022,1.8245638608932495
1789453813939534000,2.3565341796875,-0.04535523056983948,-0.39502668380737305,0.8143786787986755
1789453813949473000,2.36647314453125,-0.15043210983276367,0.18670916557312012,-0.04779361933469772
1789453813959412200,2.376412109375,-0.3586524426937103,0.5977997779846191,-0.5301440358161926
1789453813969352200,2.386352294921875,-0.26558294892311096,0.9809202551841736,-0.6862233877182007
1789453813979291100,2.396291015625,0.01440876629203558,1.1360746622085571,-0.7221565842628479
1789453813989231000,2.406231201171875,0.38878822326660156,0.9243925213813782,-0.6087096929550171
1789453813999170300,2.41617041015625,0.9313201904296875,0.8336759209632874,-0.3180437386035919
1789453814009109200,2.426109130859375,1.6215900182724,1.0575932264328003,-0.3580138087272644
1789453814019049200,2.43604931640625,2.4660046100616455,1.6116571426391602,-0.7012524008750916
1789453814028988200,2.44598828125,3.250408887863159,1.8333370685577393,-0.8854235410690308
1789453814038927400,2.45592724609375,3.3706939220428467,1.0058977603912354,-0.5312143564224243
1789453814048867300,2.465867431640625,3.085012674331665,0.8117807507514954,-0.34764719009399414
1789453814058806300,2.47580615234375,2.8946940898895264,0.8218762874603271,-0.4042271077632904
1789453814068745200,2.4857451171875,2.8565783500671387,0.8388198614120483,-0.565693736076355
1789453814078685200,2.495685302734375,3.051809787750244,0.37856969237327576,-1.0979385375976562
1789453814088624000,2.5056240234375,2.9487955570220947,1.1634032726287842,-1.1498093605041504
1789453814098564000,2.515564208984375,2.889336347579956,1.5795152187347412,-1.2927803993225098
1789453814108503000,2.5255029296875,2.0607922077178955,1.8652218580245972,-1.5825501680374146
1789453814118442200,2.535442138671875,0.8165568709373474,1.5022447109222412,-1.2619972229003906
1789453814128382200,2.54538232421875,0.12837527692317963,0.7403901815414429,-0.6068036556243896
1789453814138321200,2.555321044921875,0.18903756141662598,0.7199805378913879,-0.5757099390029907
1789453814148260000,2.565260009765625,0.18764206767082214,0.6470051407814026,-0.6733493804931641
1789453814158200300,2.575200439453125,0.1588335931301117,0.8353305459022522,-0.7119662761688232
1789453814168139300,2.58513916015625,0.0923943817615509,1.236350417137146,-0.7100935578346252
1789453814178079200,2.595079345703125,0.04157354310154915,1.4259001016616821,-0.7486249804496765
1789453814188018400,2.605018310546875,0.11412817239761353,1.523779034614563,-0.7484912872314453
1789453814197957400,2.614957275390625,0.2629445493221283,1.0123343467712402,-0.9419280886650085
1789453814207897000,2.62489697265625,0.5075742602348328,0.388830304145813,-1.1739821434020996
1789453814217836000,2.6348359375,0.5251673460006714,1.0360673666000366,-0.9250969290733337
1789453814227776300,2.6447763671875,0.4733310639858246,1.7920632362365723,-0.23647725582122803
1789453814237715200,2.654715087890625,0.3571682572364807,0.5978788733482361,-0.3145217299461365
1789453814247654100,2.664654052734375,0.14417581260204315,-1.7539438009262085,-0.8574103116989136
1789453814257594000,2.674593994140625,0.5149911642074585,-2.607367753982544,-1.300012230873108
1789453814267533300,2.684533203125,0.8435064554214478,-2.122124433517456,-0.5068570971488953
1789453814277472000,2.694471923828125,0.7768821716308594,-1.8088003396987915,0.0869668573141098
1789453814287412000,2.704411865234375,0.267858624458313,-1.0167912244796753,0.5069748163223267
1789453814297352200,2.714352294921875,-0.09189637005329132,-0.20807650685310364,0.4184228181838989
1789453814307291100,2.724291015625,-0.15384230017662048,0.41371941566467285,-0.15693582594394684
1789453814317230000,2.73422998046875,-0.05055931210517883,0.0158346239477396,-0.4282296299934387
1789453814327169800,2.744169677734375,-0.050269562751054764,0.27117931842803955,-0.5732457041740417
1789453814337109000,2.75410888671875,-0.049308694899082184,0.48864611983299255,-0.6471049785614014
1789453814347049000,2.764049072265625,-0.12353978306055069,0.4488725960254669,-0.48867326974868774
1789453814356988000,2.77398779296875,-0.18603459000587463,0.3151451647281647,-0.20249851047992706
1789453814366926800,2.7839267578125,-0.19373537600040436,0.10152076184749603,0.1073397696018219
1789453814376867000,2.7938671875,-0.10295780748128891,0.04345666244626045,0.363384872674942
1789453814386806000,2.803805908203125,-0.02466699667274952,0.027425765991210938,0.6344429850578308
1789453814396745000,2.813744873046875,-0.04915822669863701,-0.18898829817771912,0.9166153073310852
1789453814406685200,2.823685302734375,-0.16273991763591766,-0.5402880311012268,1.1576976776123047
1789453814416624000,2.8336240234375,-0.4862324893474579,-0.9201085567474365,1.0808641910552979
1789453814426564000,2.843564208984375,-0.6917595267295837,-1.0972024202346802,0.694943904876709
1789453814436503000,2.8535029296875,-0.6242497563362122,-1.6914262771606445,0.7169719338417053
1789453814446442200,2.863442138671875,-0.8029036521911621,-2.929985284805298,0.7073488831520081
1789453814456382000,2.8733818359375,-0.96490478515625,-4.273148536682129,0.6971250176429749
1789453814466321000,2.88332080078125,-1.2765932083129883,-5.056637763977051,0.6472299098968506
1789453814476260900,2.8932607421875,-1.3195222616195679,-5.034207820892334,0.4729611575603485
1789453814486200000,2.903199951171875,-0.6761201620101929,-3.7489566802978516,0.35330745577812195
1789453814496139000,2.913138916015625,0.3313837945461273,-1.5979206562042236,0.15624234080314636
1789453814506079000,2.923078857421875,1.114861011505127,0.12385829538106918,-0.3143630027770996
1789453814516018000,2.933017822265625,1.0501121282577515,1.762290358543396,-0.5819864273071289
1789453814525958100,2.942958251953125,0.9847871661186218,1.9581621885299683,-1.040681004524231
1789453814535897000,2.95289697265625,1.0402663946151733,2.044386863708496,-1.3509608507156372
1789453814545836000,2.9628359375,1.1708142757415771,1.51565420627594,-1.2937610149383545
1789453814555776000,2.97277587890625,1.5708954334259033,0.33073851466178894,-1.1544859409332275
1789453814565715200,2.982715087890625,1.3948692083358765,0.07663378864526749,-0.8134316802024841
1789453814575654100,2.992654052734375,1.190830111503601,0.30405497550964355,-0.8070999979972839
1789453814585593900,3.00259375,1.5194199085235596,1.2697901725769043,-1.0665099620819092
1789453814595532800,3.01253271484375,1.911877989768982,2.9400129318237305,-0.9268255829811096
1789453814605473000,3.02247314453125,3.4733409881591797,4.310298919677734,-0.3455275595188141
1789453814615412000,3.032411865234375,3.7948620319366455,5.377529621124268,-1.1253868341445923
1789453814625351000,3.042350830078125,2.9847960472106934,3.2137930393218994,-1.5291879177093506
1789453814635291100,3.052291015625,2.3988029956817627,1.1428265571594238,-2.2097043991088867
1789453814645230000,3.06222998046875,2.8799901008605957,1.2321785688400269,-2.150667905807495
1789453814655170000,3.072170166015625,3.1616344451904297,1.774151086807251,-1.5048092603683472
1789453814665109000,3.08210888671875,2.299931764602661,0.17853298783302307,-2.0388426780700684
1789453814675048200,3.092048095703125,1.365320086479187,-1.2066642045974731,-2.329943895339966
1789453814684988000,3.10198779296875,1.3558189868927002,-0.9816643595695496,-2.163536787033081
1789453814694927000,3.111927001953125,1.7471327781677246,-1.491502046585083,-1.9434831142425537
1789453814704867000,3.1218671875,1.799261450767517,-2.1549582481384277,-1.7085363864898682
1789453814714806000,3.131805908203125,1.652592420578003,-1.6973340511322021,-1.3938641548156738
1789453814724745000,3.141744873046875,1.834765076637268,-0.9167020916938782,-0.6258566975593567
1789453814734685000,3.151684814453125,2.038874387741089,0.09973591566085815,0.2584557831287384
1789453814744623900,3.161623779296875,2.3003969192504883,0.5137735605239868,1.1452751159667969
1789453814754564000,3.171564208984375,2.0275800228118896,1.492690086364746,1.162070870399475
1789453814764503000,3.1815029296875,1.4245895147323608,1.008764386177063,0.2786649167537689
1789453814774442000,3.19144189453125,1.1974464654922485,0.8659137487411499,0.572928249835968
1789453814784382200,3.20138232421875,0.09075014293193817,0.08352339267730713,-0.3108143210411072
1789453814794321200,3.211321044921875,-0.3467555642127991,-0.3659934401512146,-0.7686436772346497
1789453814804260900,3.2212607421875,-0.5459693074226379,-0.40284812450408936,-1.0207291841506958
1789453814814199800,3.23119970703125,-0.7429487109184265,-0.48741546273231506,-1.3583370447158813
1789453814824139000,3.241138916015625,-0.9556378126144409,-0.5360437035560608,-1.794854998588562
1789453814834079000,3.251078857421875,-1.1844643354415894,-0.7130669951438904,-2.061765670776367
1789453814844018000,3.261017822265625,-1.4466367959976196,-1.141220211982727,-2.3388373851776123
1789453814853958100,3.270958251953125,-1.6856653690338135,-1.4414527416229248,-2.544811725616455
1789453814863897000,3.28089697265625,-1.8263468742370605,-1.183826208114624,-2.3109493255615234
1789453814873836000,3.2908359375,-1.8182532787322998,-0.7883657217025757,-1.8899431228637695
1789453814883776000,3.30077587890625,-1.8216056823730469,0.2905716598033905,-1.327213168144226
1789453814893715000,3.31071484375,-1.184738039970398,0.43730461597442627,-1.3359789848327637
1789453814903655200,3.3206552734375,-0.7643935680389404,-0.09600642323493958,-1.0002715587615967
1789453814913594000,3.330593994140625,-0.5540445446968079,-0.3333452045917511,-0.43934008479118347
1789453814923533000,3.340532958984375,-0.30287066102027893,-0.3024682402610779,-0.32261133193969727
1789453814933473000,3.35047314453125,-0.24653814733028412,-0.3569205701351166,-0.6298990845680237
1789453814943412000,3.360411865234375,-0.26804476976394653,-0.36721929907798767,-0.8905118107795715
1789453814953352000,3.37035205078125,-0.36174142360687256,-0.1611097902059555,-0.8019180297851562
1789453814963291000,3.380290771484375,-0.374446302652359,-0.13013403117656708,-0.7950795292854309
1789453814973230000,3.39022998046875,-0.34193098545074463,-0.18985168635845184,-0.8826674818992615
1789453814983170000,3.400170166015625,-0.30027779936790466,-0.2441181242465973,-0.7874783277511597
1789453814993109000,3.41010888671875,-0.26687803864479065,-0.2776190936565399,-0.6883469820022583
1789453815003049000,3.420049072265625,-0.2290118783712387,-0.5524493455886841,-0.8693561553955078
1789453815012988200,3.42998828125,-0.23988743126392365,-0.4831427037715912,-0.8423250913619995
1789453815022927000,3.439927001953125,-0.3086475729942322,-0.3045705556869507,-0.7055888175964355
1789453815032867000,3.4498671875,-0.34553661942481995,-0.22481021285057068,-0.611480176448822
1789453815042806000,3.459805908203125,-0.370897114276886,-0.09451398998498917,-0.533407986164093
1789453815052746000,3.46974609375,-0.34043559432029724,-0.1908663511276245,-0.5232347249984741
1789453815062685000,3.479684814453125,-0.35763242840766907,-0.23208117485046387,-0.5183619260787964
1789453815072623900,3.489623779296875,-0.4648614227771759,-0.13278387486934662,-0.4176558256149292
1789453815082564000,3.499564208984375,-0.5732467770576477,-0.022340726107358932,-0.26254746317863464
1789453815092503000,3.5095029296875,-0.6177281737327576,0.008159658871591091,-0.17375421524047852
1789453815102443000,3.519443115234375,-0.6437044143676758,-0.04345906153321266,-0.15405242145061493
1789453815112382000,3.5293818359375,-0.6642733216285706,-0.22504563629627228,-0.21852408349514008
1789453815122321200,3.539321044921875,-0.6510781645774841,-0.3743794560432434,-0.3015132546424866
1789453815132261000,3.54926123046875,-0.6296775341033936,-0.3506472408771515,-0.2501768171787262
1789453815142200000,3.559199951171875,-0.6187689900398254,-0.29598504304885864,-0.11217900365591049
1789453815152139800,3.569139892578125,-0.6601904630661011,-0.2857358753681183,-0.04571768641471863
1789453815162079000,3.579078857421875,-0.6804578900337219,-0.3544848561286926,-0.1045149564743042
1789453815172019000,3.58901904296875,-0.7140201330184937,-0.2735165059566498,-0.09625490009784698
1789453815181958000,3.5989580078125,-0.7018662691116333,-0.26074716448783875,-0.013308081775903702
1789453815191896800,3.608896728515625,-0.7655051350593567,-0.25085753202438354,0.04326651245355606
1789453815201837000,3.618837158203125,-0.7725798487663269,-0.31464076042175293,-0.021074658259749413
1789453815211776000,3.62877587890625,-0.7705885767936707,-0.14383013546466827,0.0046304380521178246
1789453815221716000,3.638716064453125,-0.6810184717178345,-0.08547575026750565,0.09933537244796753
1789453815231655200,3.6486552734375,-0.6690236330032349,0.11783955246210098,0.12971006333827972
1789453815241594000,3.658593994140625,-0.7030454874038696,0.37573766708374023,0.11104662716388702
1789453815251534000,3.6685341796875,-0.6695690155029297,0.2370157390832901,0.052609413862228394
1789453815261473000,3.67847314453125,-0.5288569331169128,0.19490131735801697,0.06355607509613037
1789453815271413500,3.68841357421875,-0.4742831587791443,0.38610056042671204,0.22015367448329926
1789453815281352400,3.6983525390625,-0.4989142119884491,0.4372234046459198,0.3832552433013916
1789453815291292400,3.70829248046875,-0.49894481897354126,0.37505030632019043,0.28089290857315063
1789453815301231600,3.718231689453125,-0.5023059844970703,0.257101833820343,0.3125222325325012
1789453815311170600,3.728170654296875,-0.4062420427799225,0.2343033105134964,0.39822566509246826
1789453815321110500,3.738110595703125,-0.28028813004493713,0.264350950717926,0.4162225127220154
1789453815331049500,3.748049560546875,-0.20531001687049866,0.3859791159629822,0.47613459825515747
1789453815340989700,3.75798974609375,-0.19538015127182007,0.4052945077419281,0.5380650758743286
1789453815350928600,3.7679287109375,-0.23378799855709076,0.22620783746242523,0.5273897647857666
1789453815360867600,3.77786767578125,-0.30017685890197754,0.1425504833459854,0.545365035533905
1789453815370807300,3.787807373046875,-0.34338557720184326,0.09132645279169083,0.5289086103439331
1789453815380746500,3.79774658203125,-0.34515580534935,0.09473396837711334,0.49077531695365906
1789453815390686500,3.8076865234375,-0.3204943835735321,0.17248788475990295,0.529673159122467
1789453815400625400,3.81762548828125,-0.3208177089691162,0.097600057721138,0.4879981577396393
1789453815410565600,3.827565673828125,-0.3185478746891022,0.09597180038690567,0.4670092761516571
1789453815420504600,3.837504638671875,-0.30013877153396606,0.03344956785440445,0.4053190052509308
1789453815430443500,3.847443603515625,-0.19099871814250946,0.052378252148628235,0.35888493061065674
1789453815440383500,3.857383544921875,-0.06061248108744621,0.023689882829785347,0.27633118629455566
1789453815450322700,3.86732275390625,0.017731858417391777,0.040350086987018585,0.23684050142765045
1789453815460262700,3.8772626953125,0.09975721687078476,0.07909268885850906,0.2149232178926468
1789453815470201600,3.88720166015625,0.1782674789428711,0.1076420396566391,0.2162630558013916
1789453815480141300,3.897141357421875,0.2950548231601715,0.2206530123949051,0.20724399387836456
1789453815490080500,3.90708056640625,0.3783033490180969,0.22262614965438843,0.194525808095932
1789453815500019500,3.91701953125,0.4025442600250244,0.1725296974182129,0.18184329569339752
1789453815509959400,3.92695947265625,0.3993380665779114,0.06705120205879211,0.13912007212638855
1789453815519898400,3.9368984375,0.37824663519859314,-0.00014647385978605598,0.14524348080158234
1789453815529838600,3.946838623046875,0.41596099734306335,0.11249272525310516,0.20824241638183594
1789453815539777500,3.956777587890625,0.3964296281337738,0.14338566362857819,0.2430235743522644
1789453815549717500,3.966717529296875,0.433438777923584,0.23117703199386597,0.36673885583877563
1789453815559656700,3.97665673828125,0.4350998103618622,0.17855988442897797,0.42828369140625
1789453815569595600,3.986595703125,0.418758362531662,0.008654740639030933,0.4020603597164154
1789453815579535400,3.996535400390625,0.4645277261734009,-0.08803318440914154,0.4040087163448334
1789453815589474600,4.006474609375,0.4351804852485657,-0.20987918972969055,0.38967400789260864
1789453815599414500,4.01641455078125,0.22554364800453186,-0.1631058305501938,0.4309000074863434
1789453815609353500,4.026353515625,0.3078095018863678,-0.01769084669649601,0.5008295178413391
1789453815619293400,4.03629345703125,0.43561938405036926,0.02299533039331436,0.493467777967453
1789453815629232400,4.046232421875,0.5051406621932983,0.044068656861782074,0.537295401096344
1789453815639172600,4.056172607421875,0.5481097102165222,0.06084923446178436,0.619036853313446
1789453815649111600,4.066111572265625,0.600197970867157,0.00936021190136671,0.6206014752388
1789453815659050500,4.076050537109375,0.6161491870880127,-0.0484335795044899,0.5908225774765015
1789453815668990700,4.08599072265625,0.627543568611145,-0.07188963890075684,0.5860472321510315
1789453815678929700,4.0959296875,0.5927482843399048,-0.0649276003241539,0.5865018367767334
1789453815688869400,4.105869384765625,0.5516455769538879,-0.09157119691371918,0.5924620032310486
1789453815698808300,4.115808349609375,0.5836482644081116,-0.1081072986125946,0.6227975487709045
1789453815708747500,4.12574755859375,0.6186233162879944,-0.17043325304985046,0.5948058366775513
1789453815718687500,4.1356875,0.6145001649856567,-0.1067538782954216,0.5590931177139282
1789453815728626400,4.14562646484375,0.6475231051445007,0.04140523076057434,0.5859476327896118
1789453815738566400,4.15556640625,0.6623374819755554,0.08433538675308228,0.6412414908409119
1789453815748505600,4.165505615234375,0.7168025970458984,0.1555301994085312,0.719838559627533
1789453815758445600,4.175445556640625,0.8279631733894348,0.11235290765762329,0.6328054070472717
1789453815768384500,4.185384521484375,0.8513308167457581,0.07706202566623688,0.4709611237049103
1789453815778324500,4.195324462890625,0.8592252135276794,0.17234167456626892,0.4332025647163391
1789453815788263700,4.205263671875,0.8283411264419556,0.17772579193115234,0.3931150734424591
1789453815798202600,4.21520263671875,0.8310109376907349,0.105809785425663,0.36406904458999634
1789453815808142300,4.225142333984375,0.9067373871803284,0.07313279807567596,0.34842854738235474
1789453815818081500,4.23508154296875,1.0010823011398315,0.19343072175979614,0.29324546456336975
1789453815828021500,4.245021484375,1.0305325984954834,0.3197649419307709,0.3163057565689087
1789453815837960400,4.25496044921875,1.0511879920959473,0.2681851089000702,0.36988192796707153
1789453815847900700,4.264900634765625,1.008772611618042,0.08242669701576233,0.3678424656391144
1789453815857839600,4.274839599609375,0.9488613605499268,0.055146344006061554,0.4127928912639618
1789453815867779600,4.284779541015625,0.9713352918624878,0.127188578248024,0.4676350951194763
1789453815877718500,4.294718505859375,1.0145994424819946,0.17272037267684937,0.47960734367370605
1789453815887657500,4.304657470703125,1.0630159378051758,0.11706137657165527,0.5219603776931763
1789453815897597400,4.314597412109375,1.0228722095489502,-0.07387129217386246,0.5240403413772583
1789453815907536400,4.324536376953125,0.8922942280769348,-0.14003033936023712,0.633007824420929
1789453815917476400,4.334476318359375,0.8382027745246887,-0.06662803143262863,0.7629077434539795
1789453815927415600,4.34441552734375,0.7936928272247314,-0.024773789569735527,0.7656511068344116
1789453815937355500,4.35435546875,0.7936432957649231,0.0260638240724802,0.8118510842323303
1789453815947294500,4.36429443359375,0.8055452108383179,0.008071774616837502,0.775794506072998
1789453815957234700,4.374234619140625,0.783402144908905,0.06541362404823303,0.767638623714447
1789453815967173600,4.384173583984375,0.770561933517456,0.07157458364963531,0.7408418655395508
1789453815977112600,4.394112548828125,0.7616773843765259,0.046729955822229385,0.5856461524963379
1789453815987052500,4.404052490234375,0.7235851287841797,0.04336904361844063,0.5071662664413452
1789453815996991500,4.413991455078125,0.6667212843894958,0.0224981177598238,0.4552455544471741
1789453816006931500,4.423931396484375,0.6355748176574707,0.04615391418337822,0.4211070239543915
1789453816016870400,4.433870361328125,0.5987086892127991,0.028430575504899025,0.4663509428501129
1789453816026810400,4.443810302734375,0.6334277987480164,-0.03898255154490471,0.4093121290206909
1789453816036749600,4.45374951171875,0.643391489982605,0.01145931612700224,0.40090295672416687
1789453816046688500,4.4636884765625,0.61903315782547,0.02207414247095585,0.44428902864456177
1789453816056628500,4.47362841796875,0.6197660565376282,0.03244209662079811,0.49092790484428406
1789453816066567400,4.4835673828125,0.6198355555534363,0.004219778813421726,0.49281370639801025
1789453816076507600,4.493507568359375,0.5962511301040649,-0.016822390258312225,0.43824657797813416
1789453816086446600,4.503446533203125,0.5680866241455078,-0.09648819267749786,0.33724886178970337
1789453816096386600,4.513386474609375,0.5304345488548279,-0.10825323313474655,0.3195204734802246
1789453816106325500,4.523325439453125,0.5296321511268616,-0.09264791011810303,0.37726128101348877
1789453816116265500,4.533265380859375,0.5761730074882507,0.002912965603172779,0.32479938864707947
1789453816126204400,4.543204345703125,0.6054731607437134,0.13145868480205536,0.16613464057445526
1789453816136143400,4.553143310546875,0.6845346689224243,0.1518007069826126,0.04161588475108147
1789453816146083600,4.56308349609375,0.7514947652816772,0.18431630730628967,0.07849161326885223
1789453816156022500,4.5730224609375,0.7183030247688293,0.19056221842765808,0.12090964615345001
1789453816165962500,4.58296240234375,0.6425586938858032,0.22828297317028046,0.09461013227701187
1789453816175901400,4.5929013671875,0.5927714705467224,0.2675637900829315,0.06660805642604828
1789453816185841700,4.602841552734375,0.6061884760856628,0.2892579138278961,0.07708200067281723
1789453816195780600,4.612780517578125,0.6229924559593201,0.21496076881885529,0.05567151680588722
1789453816205720300,4.62272021484375,0.6541136503219604,0.24904896318912506,0.08697804063558578
1789453816215659500,4.632659423828125,0.6979963779449463,0.22858977317810059,0.09686236083507538
1789453816225599500,4.642599609375,0.7365078330039978,0.27470266819000244,0.08436228334903717
1789453816235538400,4.652538330078125,0.7446840405464172,0.304919958114624,0.12415950000286102
1789453816245477400,4.662477294921875,0.7895556092262268,0.2952313721179962,0.1467609405517578
1789453816255417600,4.67241748046875,0.8356695771217346,0.3329838216304779,0.16478735208511353
1789453816265356500,4.6823564453125,0.8266361355781555,0.3779771327972412,0.1865033060312271
1789453816275296300,4.692296142578125,0.8222358226776123,0.4352545142173767,0.19326773285865784
1789453816285235200,4.702235107421875,0.7970539927482605,0.49053722620010376,0.18038229644298553
1789453816295175200,4.712175048828125,0.7831006646156311,0.5342172980308533,0.16505925357341766
1789453816305114000,4.722114013671875,0.7530063986778259,0.5092147588729858,0.11490234732627869
1789453816315054000,4.73205419921875,0.671109139919281,0.45674651861190796,0.05986679717898369
1789453816324993000,4.741992919921875,0.5716533660888672,0.46940290927886963,0.031989891082048416
1789453816334932000,4.751931884765625,0.48737311363220215,0.4845139682292938,0.02377723529934883
1789453816344872000,4.761871826171875,0.40175196528434753,0.5131360292434692,0.019776368513703346
1789453816354811100,4.77181103515625,0.34624022245407104,0.5078957080841064,0.0184040404856205
1789453816364751000,4.781751220703125,0.2663262188434601,0.4916141927242279,0.012483567930758
1789453816374690000,4.79168994140625,0.22093930840492249,0.42501893639564514,-0.020896758884191513
1789453816384630300,4.80163037109375,0.14754951000213623,0.283109188079834,-0.05221846327185631
1789453816394569200,4.8115693359375,0.13952700793743134,0.23800909519195557,-0.05077023804187775
1789453816404509200,4.82150927734375,0.11938684433698654,0.17131982743740082,-0.05127357318997383
1789453816414448000,4.8314482421875,0.06462160497903824,0.11667202413082123,-0.08234360814094543
1789453816424388000,4.84138818359375,0.021080518141388893,0.18207845091819763,-0.09843922406435013
1789453816434327000,4.8513271484375,0.004572913981974125,0.2768403887748718,-0.07809746265411377
1789453816444266000,4.861265869140625,-0.022178804501891136,0.30252605676651,-0.060495033860206604
1789453816454206000,4.8712060546875,-0.02118784375488758,0.3424806594848633,-0.0654359981417656
1789453816464145200,4.881145263671875,-0.01732625998556614,0.3391370475292206,-0.08547282218933105
1789453816474085000,4.891085205078125,-0.024934111163020134,0.276828408241272,-0.12834171950817108
1789453816484024000,4.901024169921875,-0.05753306671977043,0.19303683936595917,-0.1837834119796753
1789453816493964300,4.91096435546875,-0.11949630081653595,0.1882553994655609,-0.2134331911802292
1789453816503903200,4.9209033203125,-0.20568737387657166,0.18405719101428986,-0.24053511023521423
1789453816513843000,4.930843017578125,-0.28133633732795715,0.14362028241157532,-0.2825712561607361
1789453816523782000,4.940781982421875,-0.37298157811164856,0.06284128129482269,-0.3319350779056549
1789453816533722000,4.95072216796875,-0.4421537220478058,0.039325300604104996,-0.35766226053237915
1789453816543661000,4.9606611328125,-0.4835405647754669,0.07556746155023575,-0.35949158668518066
1789453816553601000,4.97060107421875,-0.48746687173843384,0.15290085971355438,-0.3617022931575775
1789453816563540000,4.9805400390625,-0.4850772023200989,0.23899154365062714,-0.3685460686683655
1789453816573479200,4.990479248046875,-0.4588291049003601,0.2890070378780365,-0.3634551763534546
1789453816583419100,5.000419189453125,-0.42877745628356934,0.31676197052001953,-0.33294519782066345
1789453816593358000,5.010358154296875,-0.4161356985569,0.3036927878856659,-0.32079026103019714
1789453816603298300,5.02029833984375,-0.39967843890190125,0.25699105858802795,-0.31318533420562744
1789453816613237200,5.0302373046875,-0.4271436035633087,0.21018145978450775,-0.3316791355609894
1789453816623177000,5.040177001953125,-0.46698954701423645,0.19709788262844086,-0.3354237973690033
1789453816633116000,5.050115966796875,-0.5093758702278137,0.15274986624717712,-0.3164077699184418
1789453816643056000,5.06005615234375,-0.5451237559318542,0.16064293682575226,-0.27274924516677856
1789453816652995000,5.0699951171875,-0.5491526126861572,0.15787751972675323,-0.22045646607875824
1789453816662935000,5.07993505859375,-0.5404499173164368,0.10293517261743546,-0.18399380147457123
1789453816672874200,5.089874267578125,-0.4875076115131378,0.009248891845345497,-0.15446360409259796
1789453816682813200,5.099813232421875,-0.43996086716651917,-0.09702348709106445,-0.1789202094078064
1789453816692753200,5.109753173828125,-0.43980374932289124,-0.12868447601795197,-0.24270665645599365
1789453816702692000,5.119692138671875,-0.4755987524986267,-0.11658386886119843,-0.300325483083725
1789453816712632000,5.129632080078125,-0.5083412528038025,-0.09841419011354446,-0.28461894392967224
1789453816722571000,5.139571044921875,-0.5402512550354004,-0.05971153452992439,-0.21542522311210632
1789453816732511000,5.149510986328125,-0.5826476812362671,-0.04261430725455284,-0.16120539605617523
1789453816742450000,5.159449951171875,-0.6112609505653381,-0.019450662657618523,-0.14862489700317383
1789453816752390100,5.16939013671875,-0.6129379868507385,0.0025632926262915134,-0.15627428889274597
1789453816762329000,5.1793291015625,-0.6015084981918335,0.02581029199063778,-0.1491870880126953
1789453816772269000,5.18926904296875,-0.599831759929657,0.03543389216065407,-0.12147369980812073
1789453816782208300,5.199208251953125,-0.5834487676620483,0.07007016241550446,-0.10402999818325043
1789453816792148200,5.209148193359375,-0.5594704747200012,0.1352880448102951,-0.09286469221115112
1789453816802087200,5.219087158203125,-0.5115748643875122,0.14840944111347198,-0.10002859681844711
1789453816812026000,5.229026123046875,-0.472623735666275,0.04764261841773987,-0.12466683238744736
1789453816821966000,5.238966064453125,-0.4664500057697296,-0.019568907096982002,-0.15124517679214478
1789453816831905000,5.248905029296875,-0.46997228264808655,0.006804376374930143,-0.17317071557044983
1789453816841845000,5.258844970703125,-0.46656158566474915,0.05612824857234955,-0.18494881689548492
1789453816851784000,5.268783935546875,-0.4635157287120819,0.03671194240450859,-0.1833791434764862
1789453816861724200,5.27872412109375,-0.4547637701034546,0.043365318328142166,-0.17508579790592194
1789453816871663000,5.2886630859375,-0.4333769977092743,0.0997319221496582,-0.18087178468704224
1789453816881603000,5.29860302734375,-0.3807114064693451,0.12733478844165802,-0.23086144030094147
1789453816891542300,5.308542236328125,-0.3614135980606079,0.09227000921964645,-0.31365966796875
1789453816901482000,5.31848193359375,-0.39017200469970703,0.08756154030561447,-0.38500654697418213
1789453816911421200,5.328421142578125,-0.4138278067111969,0.11359340697526932,-0.4316222369670868
1789453816921361200,5.338361083984375,-0.4475466012954712,0.11244451999664307,-0.45472249388694763
1789453816931300000,5.348300048828125,-0.46997523307800293,0.1413307636976242,-0.44395560026168823
1789453816941239000,5.358239013671875,-0.5081433653831482,0.10543641448020935,-0.4372425675392151
1789453816951179000,5.368178955078125,-0.5399641394615173,0.09317947924137115,-0.42598485946655273
1789453816961118000,5.378117919921875,-0.580480694770813,0.07778427749872208,-0.4110405445098877
1789453816971058200,5.38805810546875,-0.6031106114387512,0.09832843393087387,-0.39564719796180725
1789453816980997000,5.3979970703125,-0.6137512922286987,0.1682739555835724,-0.3615161180496216
1789453816990937000,5.40793701171875,-0.5992437601089478,0.17343224585056305,-0.34867703914642334
1789453817000876300,5.417876220703125,-0.5806993246078491,0.13034415245056152,-0.36764806509017944
1789453817010816000,5.42781591796875,-0.5472268462181091,0.037148699164390564,-0.3992997109889984
1789453817020755000,5.4377548828125,-0.5533175468444824,-0.030852986499667168,-0.43011754751205444
1789453817030695200,5.447695068359375,-0.5263559222221375,-0.003724697045981884,-0.440647691488266
1789453817040634000,5.457634033203125,-0.5160902738571167,-0.020744958892464638,-0.4519994258880615
1789453817050574000,5.467573974609375,-0.5044365525245667,-0.028487300500273705,-0.4717843234539032
1789453817060513000,5.477512939453125,-0.5163461565971375,-0.02792697213590145,-0.47425413131713867
1789453817070452200,5.4874521484375,-0.5064453482627869,0.045879874378442764,-0.43676453828811646
1789453817080392200,5.49739208984375,-0.46037372946739197,0.10683324187994003,-0.4039440155029297
1789453817090331100,5.5073310546875,-0.4616733491420746,0.07009120285511017,-0.40331709384918213
1789453817100271000,5.51727099609375,-0.4273867607116699,0.08253855258226395,-0.41034170985221863
1789453817110210300,5.527210205078125,-0.45887890458106995,0.02941940724849701,-0.4536937177181244
1789453817120150000,5.53714990234375,-0.48947036266326904,0.02100115641951561,-0.47192466259002686
1789453817130089000,5.5470888671875,-0.5174053311347961,0.008009989745914936,-0.5029467344284058
1789453817140029200,5.557029296875,-0.5354903340339661,0.01061882171779871,-0.5320394039154053
1789453817149968100,5.566968017578125,-0.5493717789649963,-0.02358522079885006,-0.5602704882621765
1789453817159908000,5.576908203125,-0.5498303771018982,-0.045214083045721054,-0.5588023066520691
1789453817169847000,5.586846923828125,-0.5292119383811951,-0.06991437077522278,-0.5353947281837463
1789453817179787300,5.596787353515625,-0.49554768204689026,-0.0930660292506218,-0.5048706531524658
1789453817189726200,5.606726318359375,-0.4718133509159088,-0.0663987323641777,-0.4498896598815918
1789453817199666000,5.616666015625,-0.40796539187431335,-0.08749975264072418,-0.44421181082725525
1789453817209604900,5.62660498046875,-0.38480281829833984,-0.05740923061966896,-0.45358774065971375
1789453817219544000,5.6365439453125,-0.37210220098495483,-0.13489443063735962,-0.5098035931587219
1789453817229484000,5.646484130859375,-0.38627180457115173,-0.20046012103557587,-0.5530061721801758
1789453817239423000,5.656423095703125,-0.43016335368156433,-0.21865910291671753,-0.5570808053016663
1789453817249363200,5.66636328125,-0.4600914418697357,-0.25805017352104187,-0.5835542678833008
1789453817259302100,5.67630224609375,-0.47789040207862854,-0.17843684554100037,-0.5823861956596375
1789453817269242000,5.6862421875,-0.46135884523391724,-0.13951821625232697,-0.6012360453605652
1789453817279181000,5.69618115234375,-0.4296376407146454,-0.11100534349679947,-0.5879790782928467
1789453817289121000,5.70612109375,-0.36805418133735657,-0.13725799322128296,-0.5564272999763489
1789453817299060000,5.71606005859375,-0.32752034068107605,-0.17912021279335022,-0.5604332089424133
1789453817309000000,5.726,-0.3513343334197998,-0.225759357213974,-0.5933541655540466
1789453817318939000,5.73593896484375,-0.3937169313430786,-0.2587977349758148,-0.6248369812965393
1789453817328878800,5.74587890625,-0.38631442189216614,-0.27583956718444824,-0.6405155658721924
1789453817338818000,5.755818115234375,-0.44063863158226013,-0.261698454618454,-0.6290074586868286
1789453817348758000,5.765758056640625,-0.45990288257598877,-0.2674998939037323,-0.6229509115219116
1789453817358697000,5.775697021484375,-0.4635058641433716,-0.22336970269680023,-0.6146628856658936
1789453817368636000,5.785635986328125,-0.48863545060157776,-0.12216159701347351,-0.6060103178024292
1789453817378576100,5.795576171875,-0.3929893672466278,-0.15771213173866272,-0.6304208040237427
1789453817388515000,5.80551513671875,-0.401003360748291,-0.016745157539844513,-0.607459306716919
1789453817398454800,5.815454833984375,-0.3252691626548767,0.004011519718915224,-0.6285914778709412
1789453817408394000,5.82539404296875,-0.3140266239643097,0.10169467329978943,-0.622925341129303
1789453817418334000,5.835333984375,-0.3414103388786316,0.14951997995376587,-0.6045703291893005
1789453817428273000,5.84527294921875,-0.332417368888855,0.00762969022616744,-0.6349806785583496
1789453817438212900,5.855212890625,-0.4428298771381378,0.12166678160429001,-0.5983552932739258
1789453817448152000,5.865152099609375,-0.4308171570301056,0.05534102022647858,-0.655429482460022
1789453817458092000,5.875092041015625,-0.4229333996772766,-0.004811000544577837,-0.7193930149078369
1789453817468031000,5.885031005859375,-0.4329777956008911,-0.03056856244802475,-0.7554548978805542
1789453817477971200,5.89497119140625,-0.4243829846382141,0.003721234854310751,-0.7582541704177856
1789453817487910100,5.90491015625,-0.4321375787258148,0.12079406529664993,-0.7584054470062256
1789453817497849900,5.914849853515625,-0.3506168723106384,0.09316403418779373,-0.8191758394241333
1789453817507788800,5.924788818359375,-0.26749110221862793,0.07479327917098999,-0.8390717506408691
1789453817517729000,5.93472900390625,-0.24578899145126343,0.1116037592291832,-0.7852383852005005
1789453817527668000,5.94466796875,-0.2741095721721649,0.18539676070213318,-0.7579830288887024
1789453817537607000,5.95460693359375,-0.3317539691925049,0.24922767281532288,-0.7545052170753479
1789453817547547000,5.964546875,-0.3582622706890106,0.2597085237503052,-0.7260991334915161
1789453817557486000,5.974486083984375,-0.328985333442688,0.2506415545940399,-0.7374799251556396
1789453817567426000,5.984426025390625,-0.3588779866695404,0.3629496991634369,-0.6952528357505798
1789453817577365000,5.994364990234375,-0.49573439359664917,0.7803911566734314,-0.5450854301452637
1789453817587305000,6.004304931640625,-0.391965389251709,0.4775439202785492,-0.5757874250411987
1789453817597244000,6.014243896484375,-0.33055686950683594,0.40272533893585205,-0.4534793496131897
1789453817607184000,6.024183837890625,-0.28605198860168457,0.2814529836177826,-0.34842270612716675
1789453817617122800,6.034122802734375,-0.29313281178474426,0.25129401683807373,-0.3075042963027954
1789453817627063000,6.04406298828125,-0.3440508544445038,0.48385536670684814,-0.10951131582260132
1789453817637002000,6.054001953125,-0.21111516654491425,0.23195892572402954,-0.13905268907546997
1789453817646942000,6.06394189453125,-0.1880631148815155,0.30764251947402954,-0.1333644539117813
1789453817656881000,6.073880859375,-0.17098000645637512,0.3375695049762726,-0.04706098511815071
1789453817666821000,6.083821044921875,-0.16024640202522278,0.3111666738986969,0.03977031633257866
1789453817676760000,6.093760009765625,-0.1393352597951889,0.2610989809036255,0.11768775433301926
1789453817686699800,6.10369970703125,-0.1208752915263176,0.2426121085882187,0.19612184166908264
1789453817696639000,6.113638916015625,-0.1177884191274643,0.226689875125885,0.19622063636779785
1789453817706578000,6.123577880859375,-0.08063013106584549,0.12868979573249817,0.2466534525156021
1789453817716518000,6.133517822265625,-0.0825958102941513,0.07211840152740479,0.33895623683929443
1789453817726456800,6.143456787109375,-0.06827519088983536,0.04162866994738579,0.39665067195892334
1789453817736397000,6.15339697265625,-0.06548180431127548,-0.011464109644293785,0.3914884030818939
1789453817746336000,6.1633359375,-0.07156446576118469,-0.04927700012922287,0.44782277941703796
1789453817756276000,6.17327587890625,-0.04898431897163391,-0.05539960786700249,0.5005600452423096
1789453817766215200,6.183215087890625,-0.015358982607722282,-0.05903375893831253,0.5133011341094971
1789453817776155000,6.19315478515625,0.013257748447358608,-0.07824793457984924,0.5155227184295654
1789453817786093800,6.20309375,0.04188193753361702,-0.07688998430967331,0.4922773241996765
1789453817796033800,6.21303369140625,0.0766817256808281,-0.05961938947439194,0.4625689685344696
1789453817805973000,6.222972900390625,0.1329178363084793,-0.040885381400585175,0.41648003458976746
1789453817815913000,6.232912841796875,0.19754795730113983,0.03647225722670555,0.40133917331695557
1789453817825852000,6.242851806640625,0.30272337794303894,0.10974087566137314,0.3636956512928009
1789453817835792100,6.252792236328125,0.41473859548568726,0.14618943631649017,0.3414604067802429
1789453817845731000,6.26273095703125,0.5062118172645569,0.16389065980911255,0.35292795300483704
1789453817855671000,6.272671142578125,0.5779192447662354,0.17014670372009277,0.3557485044002533
1789453817865610000,6.28260986328125,0.6439238786697388,0.15901441872119904,0.3603675067424774
1789453817875550000,6.292550048828125,0.7043419480323792,0.12330701947212219,0.3872092366218567
1789453817885489000,6.302489013671875,0.7441197037696838,0.09197386354207993,0.4047573506832123
1789453817895427800,6.312427734375,0.7547720670700073,0.07714857906103134,0.4510982036590576
1789453817905367800,6.322367919921875,0.786703884601593,0.041722677648067474,0.5056570768356323
1789453817915307000,6.33230712890625,0.8394755125045776,0.01302445586770773,0.5531513094902039
1789453817925247000,6.3422470703125,0.8731144070625305,-0.00752023421227932,0.6218092441558838
1789453817935186000,6.35218603515625,0.903930127620697,-0.04555097222328186,0.708246111869812
1789453817945126100,6.362126220703125,0.9402799010276794,-0.10192609578371048,0.7432906627655029
1789453817955065000,6.372065185546875,0.9343873858451843,-0.1301843672990799,0.7755252718925476
1789453817965004800,6.3820048828125,0.9262503385543823,-0.15022945404052734,0.8177071213722229
1789453817974944000,6.391944091796875,0.9316909313201904,-0.1850806325674057,0.8544725775718689
1789453817984884000,6.401884033203125,0.9273505210876465,-0.21442867815494537,0.8968908786773682
1789453817994823000,6.411822998046875,0.8956916332244873,-0.1891249120235443,0.9185128211975098
1789453818004763000,6.421762939453125,0.9009910821914673,-0.16453328728675842,0.902885913848877
1789453818014702000,6.4317021484375,0.9339066743850708,-0.15441113710403442,0.8837518692016602
1789453818024642000,6.44164208984375,0.9657719135284424,-0.15391872823238373,0.8758950233459473
1789453818034581000,6.4515810546875,1.0056977272033691,-0.16132231056690216,0.8934758901596069
1789453818044521000,6.46152099609375,1.049169659614563,-0.2100866585969925,0.8741331100463867
1789453818054460200,6.471460205078125,1.1042659282684326,-0.25390204787254333,0.8348748683929443
1789453818064400000,6.48139990234375,1.14019775390625,-0.2411028891801834,0.8320897817611694
1789453818074338800,6.4913388671875,1.1658281087875366,-0.21343371272087097,0.8320937752723694
1789453818084279000,6.501279052734375,1.1784415245056152,-0.24187041819095612,0.7685115933418274
1789453818094218000,6.511218017578125,1.1624908447265625,-0.2881031632423401,0.7184492349624634
1789453818104157000,6.521156982421875,1.1354190111160278,-0.2746659219264984,0.721016526222229
1789453818114097000,6.531096923828125,1.1428484916687012,-0.23625114560127258,0.7293418049812317
1789453818124036000,6.5410361328125,1.1693471670150757,-0.22984331846237183,0.7203251719474792
1789453818133976000,6.55097607421875,1.2018241882324219,-0.2380213588476181,0.6937928795814514
1789453818143915000,6.5609150390625,1.2449973821640015,-0.2101292610168457,0.6648885011672974
1789453818153855000,6.57085498046875,1.2659099102020264,-0.17496168613433838,0.632630467414856
1789453818163794000,6.5807939453125,1.2712255716323853,-0.1775641292333603,0.5704362988471985
1789453818173734000,6.59073388671875,1.26870596408844,-0.17369376122951508,0.5424337387084961
1789453818183672800,6.6006728515625,1.2423616647720337,-0.15987569093704224,0.5185792446136475
1789453818193613000,6.610613037109375,1.189348816871643,-0.13779115676879883,0.5139431953430176
1789453818203552000,6.620552001953125,1.1391551494598389,-0.13885881006717682,0.4850785434246063
1789453818213492000,6.630491943359375,1.1280932426452637,-0.06078638508915901,0.4494664967060089
1789453818223431000,6.640430908203125,1.1431217193603516,-0.038966041058301926,0.4235168993473053
1789453818233371100,6.65037109375,1.1314239501953125,-0.047022104263305664,0.37687909603118896
1789453818243310000,6.66031005859375,1.097757339477539,-0.0070885359309613705,0.32753312587738037
1789453818253249800,6.670249755859375,1.0250725746154785,0.004222441930323839,0.3120018243789673
1789453818263189000,6.68018896484375,1.004435658454895,-0.03404532000422478,0.3115277886390686
1789453818273129000,6.69012890625,0.9987064599990845,-0.044437773525714874,0.2970159649848938
1789453818283068400,6.700068359375,1.0019168853759766,-0.07951000332832336,0.2819821536540985
1789453818293008400,6.71000830078125,0.8144713640213013,-0.0790649875998497,0.28905072808265686
1789453818302947300,6.719947265625,0.7434163689613342,-0.09025532752275467,0.2660769522190094
1789453818312887600,6.729887451171875,0.6916053295135498,-0.050630684942007065,0.31434062123298645
1789453818322826500,6.739826416015625,0.7228876352310181,-0.06708928942680359,0.38265442848205566
1789453818332765400,6.749765380859375,0.8061023950576782,-0.21301400661468506,0.37607935070991516
1789453818342705200,6.759705078125,0.7837318181991577,-0.21053752303123474,0.41891735792160034
1789453818352644400,6.769644287109375,0.686962902545929,-0.22951282560825348,0.4351983368396759
1789453818362584300,6.779584228515625,0.6075378656387329,-0.24502094089984894,0.411099910736084
1789453818372523300,6.789523193359375,0.5230062007904053,-0.27502545714378357,0.37313178181648254
1789453818382463500,6.79946337890625,0.46657490730285645,-0.24474316835403442,0.34416136145591736
1789453818392402400,6.80940234375,0.42931273579597473,-0.24875761568546295,0.30760788917541504
1789453818402342400,6.81934228515625,0.3860150873661041,-0.24735786020755768,0.2818375527858734
1789453818412281300,6.82928125,0.3192474842071533,-0.25973570346832275,0.2631477415561676
1789453818422221300,6.83922119140625,0.2589135766029358,-0.3009238839149475,0.2385856807231903
1789453818432160300,6.84916015625,0.2168249934911728,-0.30224400758743286,0.23733346164226532
1789453818442100200,6.859100341796875,0.1914442628622055,-0.34104838967323303,0.2590049207210541
1789453818452039200,6.8690390625,0.1900530308485031,-0.32429391145706177,0.23281247913837433
1789453818461979400,6.8789794921875,0.1973351687192917,-0.2238948792219162,0.22406212985515594
1789453818471918300,6.88891845703125,0.18680183589458466,-0.18539676070213318,0.23146331310272217
1789453818481858300,6.8988583984375,0.1590423882007599,-0.18326090276241302,0.2333213984966278
1789453818491797500,6.908797607421875,0.11348900943994522,-0.15712223947048187,0.1947907954454422
1789453818501737500,6.918737548828125,0.06544824689626694,-0.10020889341831207,0.14731594920158386
1789453818511676400,6.928676513671875,0.011856126599013805,-0.10866016894578934,0.09683626145124435
1789453818521616400,6.938616455078125,-0.04500369355082512,-0.10749183595180511,0.03392387926578522
1789453818531555300,6.948555419921875,-0.07972385734319687,-0.11299312859773636,-0.018154235556721687
1789453818541495300,6.958495361328125,-0.12593582272529602,-0.14526158571243286,-0.04905755817890167
1789453818551434200,6.968434326171875,-0.19383604824543,-0.15344654023647308,-0.05777514725923538
1789453818561374500,6.97837451171875,-0.22124743461608887,-0.1683139055967331,-0.0888688862323761
1789453818571313400,6.9883134765625,-0.3127906620502472,-0.22001385688781738,-0.15010002255439758
1789453818581252400,6.99825244140625,-0.4087214469909668,-0.25238245725631714,-0.19794157147407532
1789453818591192300,7.0081923828125,-0.48824450373649597,-0.23126330971717834,-0.23110485076904297
1789453818601131500,7.018131591796875,-0.5659326314926147,-0.17069290578365326,-0.26179245114326477
1789453818611071200,7.0280712890625,-0.6350659132003784,-0.11621955037117004,-0.30397987365722656
1789453818621010200,7.03801025390625,-0.6747344732284546,-0.10196232050657272,-0.32295167446136475
1789453818630950400,7.047950439453125,-0.7060189247131348,-0.02177293971180916,-0.3273237943649292
1789453818640889300,7.057889404296875,-0.7091729044914246,0.0693013072013855,-0.3417772948741913
1789453818650829300,7.067829345703125,-0.7055424451828003,0.09919023513793945,-0.3487952649593353
1789453818660768300,7.077768310546875,-0.7191863656044006,0.12282845377922058,-0.31535208225250244
1789453818670708500,7.08770849609375,-0.7280954718589783,0.13359294831752777,-0.25848400592803955
1789453818680647400,7.0976474609375,-0.7150651216506958,0.07565774023532867,-0.20017942786216736
1789453818690587400,7.10758740234375,-0.6718841195106506,-0.02731577679514885,-0.12629002332687378
1789453818700526300,7.1175263671875,-0.5876387357711792,-0.1346006840467453,-0.06400268524885178
1789453818710466300,7.12746630859375,-0.5326908230781555,-0.2218461036682129,-0.04959258809685707
1789453818720405200,7.1374052734375,-0.5172119736671448,-0.2520335614681244,-0.05740630254149437
1789453818730345200,7.14734521484375,-0.5139565467834473,-0.23646660149097443,-0.06413211673498154
1789453818740284400,7.157284423828125,-0.5101804137229919,-0.19831815361976624,-0.03874153643846512
1789453818750224400,7.167224365234375,-0.5168551206588745,-0.17915776371955872,-0.013758422806859016
1789453818760163300,7.177163330078125,-0.5600484013557434,-0.1565595120191574,-0.00980575941503048
1789453818770103600,7.187103515625,-0.6057242751121521,-0.1379525363445282,-0.001671932521276176
1789453818780042500,7.19704248046875,-0.6437222361564636,-0.13692429661750793,0.018752649426460266
1789453818789982200,7.206982177734375,-0.6545096635818481,-0.14905765652656555,0.029632193967700005
1789453818799921200,7.216921142578125,-0.6696696877479553,-0.16565288603305817,-0.02046213112771511
1789453818809861400,7.226861328125,-0.6683165431022644,-0.11498783528804779,-0.0723000317811966
1789453818819800300,7.23680029296875,-0.6574404835700989,-0.11341097950935364,-0.07408780604600906
1789453818829740300,7.246740234375,-0.6412809491157532,-0.053590789437294006,-0.06552175432443619
1789453818839679200,7.25667919921875,-0.6291630268096924,0.015164305455982685,-0.10201584547758102
1789453818849619500,7.266619384765625,-0.6073107123374939,0.043232157826423645,-0.18500474095344543
1789453818859558400,7.276558349609375,-0.597219705581665,0.020170781761407852,-0.28872156143188477
1789453818869498400,7.286498291015625,-0.6078417301177979,0.02594398334622383,-0.37026727199554443
1789453818879437600,7.2964375,-0.6059492826461792,0.11457265168428421,-0.4112195074558258
1789453818889376500,7.30637646484375,-0.6107166409492493,0.16958662867546082,-0.45203855633735657
1789453818899316200,7.316316162109375,-0.6475114226341248,0.15842266380786896,-0.5123469233512878
1789453818909255200,7.326255126953125,-0.7012894153594971,0.14394065737724304,-0.5471887588500977
1789453818919195400,7.3361953125,-0.7277641296386719,0.14581899344921112,-0.5279213190078735
1789453818929134300,7.34613427734375,-0.7249571681022644,0.10910838097333908,-0.5234818458557129
1789453818939074300,7.35607421875,-0.6957252621650696,0.08969339728355408,-0.524732768535614
1789453818949013200,7.36601318359375,-0.6741914749145508,0.09649298340082169,-0.5428675413131714
1789453818958953500,7.375953369140625,-0.6628754138946533,0.1295633167028427,-0.5620769262313843
1789453818968892400,7.385892333984375,-0.6721459031105042,0.15547508001327515,-0.5718099474906921
1789453818978832100,7.39583203125,-0.6896849274635315,0.1679258942604065,-0.581376850605011
1789453818988771300,7.405771240234375,-0.6844145655632019,0.17337818443775177,-0.5955517888069153
1789453818998711300,7.415711181640625,-0.6688515543937683,0.1572045385837555,-0.5884374380111694
1789453819008650200,7.425650146484375,-0.7016904950141907,0.07900826632976532,-0.5861351490020752
1789453819018590500,7.435590576171875,-0.7339797019958496,0.0602758564054966,-0.5897125601768494
1789453819028529400,7.445529296875,-0.7314339876174927,0.12148462235927582,-0.5668615698814392
1789453819038469400,7.455469482421875,-0.7115409970283508,0.11334706097841263,-0.5744608640670776
1789453819048408300,7.465408203125,-0.7180202007293701,0.07393600791692734,-0.5825923085212708
1789453819058348500,7.4753486328125,-0.7086005806922913,0.069852314889431,-0.5748353004455566
1789453819068287500,7.48528759765625,-0.6910018920898438,0.038535673171281815,-0.5675688982009888
1789453819078227200,7.495227294921875,-0.6840627193450928,0.06319122016429901,-0.5634026527404785
1789453819088166100,7.505166259765625,-0.6846683621406555,0.045943256467580795,-0.5997260212898254
1789453819098106400,7.5151064453125,-0.7281774878501892,0.05425471439957619,-0.6112924218177795
1789453819108045300,7.52504541015625,-0.7366021275520325,0.07161027193069458,-0.5769160389900208
1789453819117985300,7.5349853515625,-0.8321211934089661,-0.06740966439247131,-0.6257035732269287
1789453819127924500,7.544924560546875,-0.8354429602622986,0.034032534807920456,-0.5560469627380371
1789453819137864400,7.554864501953125,-0.8764060735702515,-0.05860525742173195,-0.5784808993339539
1789453819147803400,7.564803466796875,-0.9784296751022339,-0.07958777248859406,-0.5491800308227539
1789453819157743400,7.574743408203125,-1.0146363973617554,-0.11564084887504578,-0.539529025554657
1789453819167682300,7.584682373046875,-1.0011557340621948,-0.3104207217693329,-0.6302839517593384
1789453819177622300,7.594622314453125,-0.9300706386566162,-0.1753704845905304,-0.5363036394119263
1789453819187561200,7.604561279296875,-0.8936505913734436,-0.23470278084278107,-0.5237393975257874
1789453819197501400,7.61450146484375,-0.9205719828605652,-0.21517276763916016,-0.5089386105537415
1789453819207440400,7.6244404296875,-0.9104498028755188,-0.2371763288974762,-0.52316814661026
1789453819217380400,7.63438037109375,-0.9312477707862854,-0.23303379118442535,-0.519068717956543
1789453819227319300,7.6443193359375,-0.8927240967750549,-0.23426948487758636,-0.5537164807319641
1789453819237259300,7.65425927734375,-0.871131181716919,-0.14909067749977112,-0.5288696885108948
1789453819247198500,7.664198486328125,-0.8328540921211243,-0.17089185118675232,-0.5344541072845459
1789453819257138200,7.67413818359375,-0.8034994006156921,-0.18595415353775024,-0.527277946472168
1789453819267077400,7.684077392578125,-0.7893319129943848,-0.2150886058807373,-0.5267261266708374
1789453819277017900,7.694017822265625,-0.8383564352989197,-0.1801505982875824,-0.5008753538131714
1789453819286956800,7.703956787109375,-0.8811670541763306,-0.21089519560337067,-0.4936225116252899
1789453819296897000,7.71389697265625,-0.9114018678665161,-0.19923347234725952,-0.45657604932785034
1789453819306836000,7.7238359375,-0.9022637605667114,-0.16455858945846558,-0.42191609740257263
1789453819316775700,7.733775634765625,-0.8213180899620056,-0.20655317604541779,-0.42857691645622253
1789453819326715000,7.74371484375,-0.7747641801834106,-0.1738024204969406,-0.4068892002105713
1789453819336654800,7.75365478515625,-0.7031546831130981,-0.17577475309371948,-0.4316139817237854
1789453819346593800,7.76359375,-0.6920183897018433,-0.10964713245630264,-0.43556317687034607
1789453819356532700,7.77353271484375,-0.6797447204589844,-0.08410635590553284,-0.44442591071128845
1789453819366473000,7.783472900390625,-0.720573902130127,0.02046665921807289,-0.404150128364563
1789453819376412000,7.793411865234375,-0.6872239112854004,-0.02665052004158497,-0.4437904953956604
1789453819386351900,7.803351806640625,-0.7251182794570923,0.07929748296737671,-0.3946021795272827
1789453819396290800,7.813290771484375,-0.6506288647651672,-0.08348983526229858,-0.4442296326160431
1789453819406231000,7.82323095703125,-0.6681543588638306,-0.07941865921020508,-0.43902742862701416
1789453819416170000,7.833169921875,-0.6952546834945679,0.060992248356342316,-0.401380717754364
1789453819426109700,7.843109619140625,-0.6013835668563843,-0.024505609646439552,-0.42174217104911804
1789453819436049000,7.853048828125,-0.5514687299728394,0.04691983759403229,-0.33774155378341675
1789453819445988900,7.86298876953125,-0.5149693489074707,0.08828005939722061,-0.2621069848537445
1789453819455927800,7.872927734375,-0.5079673528671265,0.12318025529384613,-0.27264776825904846
1789453819465868000,7.882867919921875,-0.5615474581718445,0.26724687218666077,-0.2831065356731415
1789453819475807000,7.892806884765625,-0.5617621541023254,0.3031124770641327,-0.25729650259017944
1789453819485747000,7.902746826171875,-0.5206516981124878,0.3921568691730499,-0.23801735043525696
1789453819495686000,7.912685791015625,-0.5497204065322876,0.46468111872673035,-0.15227556228637695
1789453819505625900,7.9226259765625,-0.5278832912445068,0.349788099527359,-0.03825577720999718
1789453819515564800,7.932564697265625,-0.3948320150375366,0.1089927926659584,-0.002028263406828046
1789453819525504800,7.9425048828125,-0.3357532322406769,0.15374667942523956,-0.0025744778104126453
1789453819535443700,7.952443603515625,-0.3098343014717102,0.2621786296367645,0.03825177997350693
1789453819545384000,7.962384033203125,-0.23179328441619873,0.31198185682296753,0.11011797934770584
1789453819555323000,7.972322998046875,-0.14864060282707214,0.30288824439048767,0.1187647357583046
1789453819565262800,7.982262939453125,-0.10618316382169724,0.3171451985836029,0.14362294971942902
1789453819575202000,7.9922021484375,-0.1059621199965477,0.3382265269756317,0.19128313660621643
1789453819585142000,8.00214208984375,-0.07876192033290863,0.3931560814380646,0.2211771309375763
1789453819595081000,8.0120810546875,-0.035356923937797546,0.33927100896835327,0.2328156679868698
1789453819605021000,8.02202099609375,-0.028838040307164192,0.28529271483421326,0.28097227215766907
1789453819614959900,8.0319599609375,-0.03321068361401558,0.24032898247241974,0.3058384954929352
1789453819624899800,8.04189990234375,-0.03539314493536949,0.20082791149616241,0.3631603717803955
1789453819634838800,8.0518388671875,-0.051534831523895264,0.19117474555969238,0.43113115429878235
1789453819644779000,8.061779052734375,-0.015206649899482727,0.16065385937690735,0.44873732328414917
1789453819654718000,8.071718017578124,0.04248407855629921,0.16304084658622742,0.4561355710029602
1789453819664658000,8.081657958984374,0.12553182244300842,0.1930229812860489,0.489508718252182
1789453819674596900,8.091596923828124,0.20808954536914825,0.1929691880941391,0.4991168677806854
1789453819684536800,8.101536865234374,0.2731476426124573,0.18123529851436615,0.5317118167877197
1789453819694475800,8.111475830078126,0.3510906398296356,0.15386280417442322,0.5315003991127014
1789453819704415700,8.121415771484376,0.42373716831207275,0.13225071132183075,0.5261266231536865
1789453819714355000,8.13135498046875,0.489773154258728,0.06763762980699539,0.5501395463943481
1789453819724295000,8.141294921875,0.561945378780365,0.004201935604214668,0.5585601925849915
1789453819734233900,8.15123388671875,0.6197242140769958,-0.0488615483045578,0.5746952295303345
1789453819744174000,8.161174072265625,0.7017964720726013,-0.05096517875790596,0.6271073222160339
1789453819754113000,8.171113037109375,0.8135320544242859,-0.03244023025035858,0.6476981043815613
1789453819764053000,8.181052978515625,0.9233877062797546,0.0021371867042034864,0.6425943970680237
1789453819773992000,8.190991943359375,0.9961239695549011,0.05589016526937485,0.6451643705368042
1789453819783932000,8.200931884765625,1.0622971057891846,0.14126046001911163,0.6632744073867798
1789453819793870800,8.210870849609375,1.1424851417541504,0.1681187003850937,0.6379022002220154
1789453819803810800,8.220810791015625,1.1827175617218018,0.1875440627336502,0.6010743975639343
1789453819813749800,8.230749755859375,1.1668773889541626,0.27323073148727417,0.5867292881011963
1789453819823690000,8.24068994140625,1.1592937707901,0.24243420362472534,0.5950316786766052
1789453819833629000,8.25062890625,1.1697125434875488,0.17326100170612335,0.5998948812484741
1789453819843569000,8.26056884765625,1.1597832441329956,0.09984190762042999,0.5919597148895264
1789453819853508000,8.270508056640624,1.1624860763549805,0.09039301425218582,0.6361660361289978
1789453819863447800,8.28044775390625,1.1965665817260742,0.14057070016860962,0.6812331676483154
1789453819873386800,8.29038671875,1.2846369743347168,0.21634694933891296,0.7191935777664185
1789453819883326700,8.30032666015625,1.3801547288894653,0.2657001316547394,0.7291719317436218
1789453819893266000,8.310265869140625,1.4563817977905273,0.3081037700176239,0.73911452293396
1789453819903206000,8.320205810546875,1.487550139427185,0.3158072233200073,0.7397412061691284
1789453819913144800,8.330144775390625,1.4709587097167969,0.34214162826538086,0.700850784778595
1789453819923085000,8.3400849609375,1.426293969154358,0.3168692886829376,0.6278679370880127
1789453819933024000,8.35002392578125,1.3672780990600586,0.2678801715373993,0.6132567524909973
1789453819942963700,8.359963623046875,1.3117485046386719,0.24033591151237488,0.6148285269737244
1789453819952903000,8.36990283203125,1.2774405479431152,0.26941150426864624,0.6292229294776917
1789453819962843000,8.3798427734375,1.2819820642471313,0.25572577118873596,0.6219048500061035
1789453819972781800,8.38978173828125,1.3199619054794312,0.2160646617412567,0.578090488910675
1789453819982721800,8.3997216796875,1.3394054174423218,0.1410633772611618,0.4732069671154022
1789453819992661000,8.409660888671874,1.3428105115890503,0.1147119328379631,0.4176209270954132
1789453820002601000,8.41960107421875,1.370030164718628,0.12603329122066498,0.43353572487831116
1789453820012540000,8.429539794921874,1.4068044424057007,0.1328696310520172,0.43536823987960815
1789453820022480000,8.43947998046875,1.4614218473434448,0.03734497353434563,0.3764050602912903
1789453820032419000,8.449419189453126,1.43800687789917,0.0020008329302072525,0.3935060203075409
1789453820042358800,8.45935888671875,1.3510067462921143,-0.04712436720728874,0.4398074746131897
1789453820052297700,8.469297607421876,1.2685171365737915,-0.057444650679826736,0.42133206129074097
1789453820062238000,8.479238037109376,1.2245012521743774,-0.038606781512498856,0.40123531222343445
1789453820072177000,8.489177001953125,1.238452434539795,-0.010581804439425468,0.4690481722354889
1789453820082116900,8.499116943359375,1.1240688562393188,-0.01483354065567255,0.5822421312332153
1789453820092055800,8.509055908203125,1.2096210718154907,-0.15221057832241058,0.5298004746437073
1789453820101996000,8.51899609375,1.2300134897232056,-0.20347829163074493,0.5051518678665161
1789453820111935000,8.52893505859375,1.1646645069122314,-0.21924392879009247,0.5103780627250671
1789453820121874700,8.538874755859375,1.0195907354354858,-0.15145343542099,0.5506298542022705
1789453820131814000,8.54881396484375,0.8946895003318787,-0.15960218012332916,0.5156732201576233
1789453820141753900,8.55875390625,0.8539000153541565,-0.17648795247077942,0.4810638427734375
1789453820151692800,8.56869287109375,0.8389220833778381,-0.20230330526828766,0.4970792829990387
1789453820161632800,8.5786328125,0.7811938524246216,-0.21264168620109558,0.559996485710144
1789453820171572000,8.588572021484374,0.7528362274169922,-0.24592162668704987,0.5751141309738159
1789453820181512000,8.598511962890624,0.7424035668373108,-0.2997172176837921,0.5158036947250366
1789453820191451000,8.608450927734374,0.7257766127586365,-0.2550645172595978,0.5401572585105896
1789453820201391000,8.61839111328125,0.7175887227058411,-0.27737221121788025,0.6097325682640076
1789453820211330000,8.628330078125,0.6956222057342529,-0.25367462635040283,0.6122210621833801
1789453820221269800,8.638269775390626,0.6324741244316101,-0.29946446418762207,0.5761299133300781
1789453820231208700,8.648208740234375,0.5544626712799072,-0.2922214865684509,0.5603674650192261
1789453820241149000,8.65814892578125,0.5293917059898376,-0.2523965537548065,0.5493677854537964
1789453820251088000,8.668087890625,0.516744077205658,-0.23740670084953308,0.5303544402122498
1789453820261027800,8.67802783203125,0.5121466517448425,-0.21613310277462006,0.5121093392372131
1789453820270966800,8.687966796875,0.48685914278030396,-0.17512334883213043,0.49051883816719055
1789453820280906200,8.69790625,0.458056777715683,-0.13767237961292267,0.4543840289115906
1789453820290845200,8.70784521484375,0.42845308780670166,-0.11173931509256363,0.3839154541492462
1789453820300785400,8.717785400390625,0.40161293745040894,-0.07142464816570282,0.33219045400619507
1789453820310724400,8.727724365234375,0.3872430622577667,-0.01842268370091915,0.26602768898010254
1789453820320664000,8.7376640625,0.3827870488166809,-0.01137010008096695,0.18934142589569092
1789453820330603300,8.747603271484374,0.33321258425712585,-0.06144045665860176,0.15931536257266998
1789453820340542200,8.757542236328124,0.20573557913303375,-0.017068998888134956,0.12760163843631744
1789453820350482200,8.767482177734376,0.1473233997821808,0.04590703919529915,0.03398779407143593
1789453820360421000,8.777421142578126,0.07777442038059235,-0.08124931901693344,-0.050870638340711594
1789453820370361300,8.787361328125,-0.016625581309199333,-0.1631779968738556,-0.08509225398302078
1789453820380300300,8.79730029296875,-0.11255983263254166,-0.10631871968507767,-0.0910489484667778
1789453820390240300,8.807240234375,-0.18603459000587463,-0.04268008470535278,-0.11483204364776611
1789453820400179200,8.81717919921875,-0.27079182863235474,0.0549258328974247,-0.14303572475910187
1789453820410119200,8.827119140625,-0.36484161019325256,0.13769501447677612,-0.18331283330917358
1789453820420058400,8.837058349609375,-0.43512776494026184,0.13955630362033844,-0.22785499691963196
1789453820429998000,8.846998046875,-0.5054818391799927,0.14295129477977753,-0.2536351978778839
1789453820439937300,8.856937255859375,-0.5534522533416748,0.10484545677900314,-0.25427913665771484
1789453820449877200,8.866877197265625,-0.5803723335266113,0.05832083150744438,-0.24488964676856995
1789453820459816200,8.876816162109375,-0.6008168458938599,0.02335192821919918,-0.27329331636428833
1789453820469756400,8.88675634765625,-0.6101504564285278,0.0020671456586569548,-0.32643404603004456
1789453820479695400,8.8966953125,-0.6030405759811401,0.013519271276891232,-0.36744698882102966
1789453820489635300,8.90663525390625,-0.5924340486526489,0.10675334185361862,-0.393085777759552
1789453820499574300,8.91657421875,-0.5981584787368774,0.19704142212867737,-0.4110759496688843
1789453820509514200,8.92651416015625,-0.6218297481536865,0.1843259036540985,-0.45075279474258423
1789453820519453200,8.936453125,-0.6580415368080139,0.15555045008659363,-0.47936952114105225
1789453820529393200,8.94639306640625,-0.68852299451828,0.15315093100070953,-0.4510028660297394
1789453820539332000,8.95633203125,-0.6799734830856323,0.1804555207490921,-0.3761099874973297
1789453820549272300,8.966272216796876,-0.622471809387207,0.2455250769853592,-0.3057977259159088
1789453820559211300,8.976211181640625,-0.5600310564041138,0.2815496623516083,-0.26912015676498413
1789453820569151200,8.986151123046875,-0.5456569194793701,0.23084573447704315,-0.302903413772583
1789453820579090400,8.99609033203125,-0.5691683888435364,0.2597753703594208,-0.37534964084625244
1789453820589030100,9.006030029296875,-0.6112021207809448,0.3242875337600708,-0.4322755038738251
1789453820598969300,9.01596923828125,-0.6574737429618835,0.34742721915245056,-0.504269540309906
1789453820608909300,9.025909423828125,-0.6956664323806763,0.39815908670425415,-0.575625479221344
1789453820618848300,9.03584814453125,-0.6629981994628906,0.5157808065414429,-0.5903274416923523
1789453820628788200,9.045788330078125,-0.5698916912078857,0.5700701475143433,-0.5549042224884033
1789453820638727200,9.05572705078125,-0.4835006296634674,0.4703483283519745,-0.5790391564369202
1789453820648667400,9.06566748046875,-0.45824134349823,0.33878177404403687,-0.6178935766220093
1789453820658606300,9.0756064453125,-0.48757657408714294,0.21879546344280243,-0.6675511598587036
1789453820668546300,9.08554638671875,-0.5450928807258606,0.22005167603492737,-0.6890559196472168
1789453820678485200,9.0954853515625,-0.6023380756378174,0.3005276024341583,-0.6893792152404785
1789453820688425200,9.10542529296875,-0.6410854458808899,0.36897218227386475,-0.7148838043212891
1789453820698364200,9.1153642578125,-0.625836193561554,0.43405717611312866,-0.744412362575531
1789453820708304100,9.12530419921875,-0.5812652707099915,0.44501793384552,-0.7470433115959167
1789453820718243300,9.135243408203126,-0.5732172131538391,0.31997933983802795,-0.7862258553504944
1789453820728183300,9.145183349609376,-0.6027833223342896,0.17018131911754608,-0.8415154814720154
1789453820738122200,9.155122314453125,-0.6338443160057068,0.18059933185577393,-0.8588896989822388
1789453820748062500,9.1650625,-0.6287193298339844,0.22290897369384766,-0.8711695075035095
1789453820758001400,9.17500146484375,-0.6191859841346741,0.30853867530822754,-0.8741381168365479
1789453820767941000,9.184941162109375,-0.6213162541389465,0.33894023299217224,-0.8806785941123962
1789453820777880000,9.194880126953125,-0.6242904663085938,0.30079737305641174,-0.8784817457199097
1789453820787820300,9.2048203125,-0.6266087889671326,0.2218642234802246,-0.8662594556808472
1789453820797759200,9.21475927734375,-0.6361439824104309,0.13053537905216217,-0.8588939309120178
1789453820807699200,9.22469921875,-0.6497223377227783,0.06459683924913406,-0.8278254866600037
1789453820817638100,9.23463818359375,-0.5755101442337036,-0.026145849376916885,-0.7099356055259705
1789453820827578400,9.244578369140624,-0.5227169990539551,0.018161959946155548,-0.6415376663208008
1789453820837517300,9.254517333984374,-0.5058962106704712,0.09657207876443863,-0.67342209815979
1789453820847457300,9.264457275390624,-0.5442792773246765,0.12782986462116241,-0.7412993907928467
1789453820857396500,9.274396484375,-0.6534233689308167,0.1440756767988205,-0.7750648260116577
1789453820867336200,9.284336181640626,-0.7074804306030273,0.16638365387916565,-0.7799813151359558
1789453820877275100,9.294275146484376,-0.7384415864944458,0.14715829491615295,-0.7411729097366333
1789453820887215400,9.30421533203125,-0.7729105949401855,0.07347021996974945,-0.8099503517150879
1789453820897154300,9.314154296875,-0.7016167044639587,0.18867990374565125,-0.8261474370956421
1789453820907094300,9.32409423828125,-0.661850094795227,-0.03196538984775543,-0.8402376770973206
1789453820917033200,9.334033203125,-0.6242989897727966,0.012060923501849174,-0.7001575827598572
1789453820926973400,9.343973388671875,-0.70877605676651,-0.16666993498802185,-0.7020617127418518
1789453820936912400,9.353912353515625,-0.7882978320121765,-0.10551124811172485,-0.663564145565033
1789453820946852000,9.36385205078125,-0.9138559699058533,-0.18909722566604614,-0.6156586408615112
1789453820956791000,9.373791015625,-0.9153844118118286,-0.1651173233985901,-0.5870067477226257
1789453820966731300,9.383731201171875,-0.8835542798042297,-0.29111334681510925,-0.6416295170783997
1789453820976670200,9.393670166015625,-0.8258041739463806,-0.32447314262390137,-0.6651449799537659
1789453820986610200,9.403610107421875,-0.831003725528717,-0.4024747312068939,-0.6713701486587524
1789453820996549400,9.41354931640625,-0.8456205129623413,-0.34525778889656067,-0.6024925112724304
1789453821006489300,9.4234892578125,-0.8723090887069702,-0.34672093391418457,-0.5845305919647217
1789453821016428300,9.43342822265625,-0.8880637884140015,-0.32305875420570374,-0.5975710153579712
1789453821026368300,9.4433681640625,-0.8138116598129272,-0.3332147002220154,-0.6265928149223328
1789453821036307500,9.453307373046876,-0.7388759255409241,-0.32991719245910645,-0.6420263648033142
1789453821046247200,9.4632470703125,-0.6525292992591858,-0.32785242795944214,-0.6580556631088257
1789453821056186000,9.47318603515625,-0.5944801568984985,-0.3352467119693756,-0.6617332100868225
1789453821066126300,9.483126220703125,-0.5646468997001648,-0.2925437092781067,-0.5785906314849854
1789453821076065300,9.493065185546875,-0.599827229976654,-0.17281438410282135,-0.5208269357681274
1789453821086005200,9.503005126953125,-0.606112539768219,-0.18747775256633759,-0.5515987277030945
1789453821095944200,9.512944091796875,-0.6831362247467041,-0.15060389041900635,-0.5183310508728027
1789453821105884400,9.522884521484375,-0.8168500661849976,-0.12821096181869507,-0.4648664891719818
1789453821115823400,9.5328232421875,-0.9137446880340576,-0.14929601550102234,-0.43299591541290283
1789453821125763000,9.54276318359375,-0.9622072577476501,-0.23778246343135834,-0.3826621472835541
1789453821135703300,9.552703369140625,-0.9591547846794128,-0.24585823714733124,-0.32551711797714233
1789453821145642200,9.562642333984375,-0.9154655933380127,-0.14902889728546143,-0.27373379468917847
1789453821155581200,9.572581298828124,-0.7444472908973694,-0.19685128331184387,-0.34232857823371887
1789453821165521200,9.582521240234374,-0.6285331845283508,-0.16492903232574463,-0.31936147809028625
1789453821175460400,9.59246044921875,-0.5270467400550842,-0.2189619094133377,-0.2920915186405182
1789453821185400300,9.602400390625,-0.49631255865097046,-0.13583026826381683,-0.2738057076931
1789453821195339300,9.61233935546875,-0.5278552770614624,0.058881692588329315,-0.20757582783699036
1789453821205279200,9.622279296875,-0.5447027087211609,0.07894355058670044,-0.15530702471733093
1789453821215219200,9.63221923828125,-0.5505155920982361,0.13458630442619324,-0.1488051861524582
1789453821225158100,9.642158203125,-0.6024632453918457,0.3075149357318878,-0.17140637338161469
1789453821235098400,9.652098388671876,-0.5714222192764282,0.25297287106513977,-0.16031137108802795
1789453821245037300,9.662037353515625,-0.52175372838974,0.12951219081878662,-0.01739630103111267
1789453821254976300,9.671976318359375,-0.4207240641117096,-0.025712287053465843,0.06953273713588715
1789453821264916200,9.681916259765625,-0.3290458023548126,-0.09823575615882874,0.0472271665930748
1789453821274856400,9.6918564453125,-0.28958919644355774,-0.004450408276170492,0.06619206815958023
1789453821284796000,9.7017958984375,-0.26871374249458313,0.0743141770362854,0.10165685415267944
1789453821294736000,9.71173583984375,-0.24018463492393494,0.12767167389392853,0.17620006203651428
1789453821304674800,9.7216748046875,-0.24812379479408264,0.1994055211544037,0.26929378509521484
1789453821314615000,9.731614990234375,-0.2664165198802948,0.22933918237686157,0.3462764620780945
1789453821324554000,9.741553955078125,-0.27252474427223206,0.22077392041683197,0.41105544567108154
1789453821334494000,9.751493896484375,-0.2825038731098175,0.16020937263965607,0.42383304238319397
1789453821344433200,9.76143310546875,-0.34050193428993225,0.0654999166727066,0.455028235912323
1789453821354372900,9.771372802734374,-0.37548333406448364,-0.0007422229973599315,0.5133682489395142
1789453821364311800,9.781311767578124,-0.3318072259426117,-0.051960401237010956,0.5460318922996521
1789453821374252000,9.791251953125,-0.2369411736726761,-0.04603007435798645,0.549767792224884
1789453821384191000,9.80119091796875,-0.11382723599672318,-0.04687962308526039,0.5296188592910767
1789453821394131000,9.811130859375,0.02845587581396103,-0.09040659666061401,0.5004678964614868
1789453821404070000,9.82106982421875,0.09619657695293427,-0.07378820329904556,0.5125719308853149
1789453821414010000,9.831010009765626,0.13519297540187836,-0.03295928239822388,0.5434707403182983
1789453821423949000,9.840948974609375,0.17047879099845886,-0.007388674188405275,0.5949763059616089
1789453821433889000,9.850888916015625,0.2380210906267166,-0.0438619963824749,0.6269821524620056
1789453821443828000,9.860827880859375,0.30170950293540955,-0.1613079309463501,0.6293371915817261
1789453821453768000,9.870767822265625,0.3267456293106079,-0.27525049448013306,0.6474919319152832
1789453821463707000,9.880706787109375,0.358605295419693,-0.3043431043624878,0.6678182482719421
1789453821473646800,9.890646728515625,0.4342409372329712,-0.27422916889190674,0.7191687822341919
1789453821483586000,9.9005859375,0.5819278359413147,-0.20480774343013763,0.7675267457962036
1789453821493526000,9.910526123046875,0.7564789056777954,-0.11627521365880966,0.7873547673225403
1789453821503465000,9.92046484375,0.9310842752456665,-0.004036819562315941,0.7873110771179199
1789453821513405200,9.9304052734375,1.0199731588363647,0.1245131641626358,0.7702232003211975
1789453821523344100,9.94034423828125,1.0153591632843018,0.2569420337677002,0.7912733554840088
1789453821533283800,9.950283935546874,0.9868875741958618,0.32444146275520325,0.821074366569519
1789453821543222800,9.960222900390624,0.9730735421180725,0.23439225554466248,0.8431844711303711
1789453821553163000,9.9701630859375,1.0039398670196533,0.15524791181087494,0.896974503993988
1789453821563102000,9.98010205078125,1.0399454832077026,0.06554518640041351,0.9096575379371643
1789453821573042000,9.9900419921875,1.0875476598739624,0.05541718751192093,0.9572356939315796
1789453821582980900,9.99998095703125,1.1508145332336426,0.10156603902578354,1.007498860359192
1789453821592921000,10.009921142578126,1.233511209487915,0.09939130395650864,0.9922122955322266
1789453821602860000,10.019860107421875,1.3064134120941162,0.07425345480442047,0.9546945095062256
1789453821612800000,10.029800048828125,1.3455381393432617,-0.05522943288087845,0.8953084349632263
1789453821622739200,10.0397392578125,1.3454872369766235,-0.08470476418733597,0.8880201578140259
1789453821632679000,10.049678955078125,1.4050129652023315,-0.08643555641174316,0.8976048827171326
1789453821642617900,10.059617919921875,1.4720689058303833,-0.14795804023742676,0.8595157861709595
1789453821652558000,10.06955810546875,1.5380038022994995,-0.1425560861825943,0.820242166519165
1789453821662497000,10.0794970703125,1.5134278535842896,-0.15215091407299042,0.8041992783546448
1789453821672437000,10.08943701171875,1.4205162525177002,-0.12491822987794876,0.8074901700019836
1789453821682376000,10.0993759765625,1.3983635902404785,-0.15003237128257751,0.7310920357704163
1789453821692316200,10.109316162109375,1.3473999500274658,-0.21270321309566498,0.668419361114502
1789453821702255000,10.119255126953124,1.333182692527771,-0.2427055835723877,0.6555426716804504
1789453821712194800,10.12919482421875,1.379277229309082,-0.28897613286972046,0.6440806984901428
1789453821722133800,10.1391337890625,1.3962111473083496,-0.3885062038898468,0.5757264494895935
1789453821732074000,10.149073974609376,1.2907638549804688,-0.26778751611709595,0.666474461555481
1789453821742013000,10.159012939453126,1.1849615573883057,-0.2816638946533203,0.6990680694580078
1789453821751953000,10.168952880859376,1.1998670101165771,-0.34537896513938904,0.6910293102264404
1789453821761892000,10.17889208984375,1.2021175622940063,-0.3720121681690216,0.6882625818252563
1789453821771832000,10.18883203125,1.1280378103256226,-0.2400733232498169,0.7910834550857544
1789453821781771000,10.19877099609375,1.1293808221817017,-0.3644389510154724,0.7177740931510925
1789453821791711000,10.2087109375,1.0869410037994385,-0.30884864926338196,0.7574195265769958
1789453821801650000,10.21864990234375,1.001508116722107,-0.2774425148963928,0.8321675062179565
1789453821811590000,10.22858984375,0.9578167796134949,-0.27806356549263,0.8872512578964233
1789453821821528800,10.23852880859375,0.9474541544914246,-0.2823299467563629,0.8870049715042114
1789453821831469000,10.248468994140625,0.9156874418258667,-0.28942516446113586,0.8465771079063416
1789453821841408000,10.258407958984375,0.9180153012275696,-0.24639911949634552,0.8093937635421753
1789453821851348000,10.268347900390625,0.895789623260498,-0.27750858664512634,0.7493980526924133
1789453821861287000,10.278286865234374,0.8227298259735107,-0.2892264723777771,0.7115644216537476
1789453821871227100,10.28822705078125,0.7517866492271423,-0.3579046130180359,0.7014909982681274
1789453821881166000,10.298166015625,0.6896899938583374,-0.3235626220703125,0.709738552570343
1789453821891105800,10.308105712890624,0.706226110458374,-0.26452645659446716,0.7064951062202454
1789453821901045000,10.318044921875,0.7957242727279663,-0.29327741265296936,0.6980584859848022
1789453821910985000,10.32798486328125,0.8210099339485168,-0.3203500509262085,0.6847200393676758
1789453821920924000,10.337923828125,0.7878429293632507,-0.2333134114742279,0.692107617855072
1789453821930863900,10.34786376953125,0.7011544108390808,-0.1782461702823639,0.6985902786254883
1789453821940803000,10.357802978515625,0.6503772139549255,-0.17734788358211517,0.6850185394287109
1789453821950743000,10.367742919921875,0.5943267345428467,-0.12024864554405212,0.6246015429496765
1789453821960682000,10.377681884765625,0.5118603706359863,-0.11621582508087158,0.521830677986145
1789453821970622000,10.3876220703125,0.4112304151058197,-0.07969589531421661,0.423276424407959
1789453821980561000,10.397560791015625,0.28224048018455505,0.0404941625893116,0.357374370098114
1789453821990500900,10.4075009765625,0.2568213939666748,0.10825057327747345,0.2846447825431824
1789453822000439800,10.417439697265625,0.20935535430908203,0.14241041243076324,0.18506573140621185
1789453822010380000,10.427380126953125,0.12295655161142349,0.1370159089565277,0.08696712553501129
1789453822020319000,10.437319091796875,0.041493382304906845,0.15654566884040833,0.007416104432195425
1789453822030259000,10.447259033203125,0.005920473486185074,0.11061466485261917,-0.06256324797868729
1789453822040198100,10.4571982421875,-0.0980895459651947,0.05552104860544205,-0.1254095882177353
1789453822050138000,10.46713818359375,-0.205659419298172,0.061770956963300705,-0.17091421782970428
1789453822060077000,10.4770771484375,-0.31348973512649536,0.07161879539489746,-0.19993655383586884
1789453822070016800,10.487016845703126,-0.40535256266593933,0.07687294483184814,-0.21148721873760223
1789453822079956000,10.4969560546875,-0.5055660009384155,0.12756142020225525,-0.22176700830459595
1789453822089896000,10.50689599609375,-0.6037386059761047,0.13687635958194733,-0.2751937508583069
1789453822099835000,10.5168349609375,-0.7105953097343445,0.12736381590366364,-0.379673570394516
1789453822109775000,10.526775146484376,-0.7939738035202026,0.15940962731838226,-0.46395063400268555
1789453822119714000,10.536714111328125,-0.8524312376976013,0.22680865228176117,-0.4954931139945984
1789453822129654000,10.546654052734375,-0.9239611029624939,0.27117156982421875,-0.5034559369087219
1789453822139593000,10.556593017578125,-1.0141879320144653,0.2815171778202057,-0.5456079244613647
1789453822149533000,10.566532958984375,-1.129711627960205,0.24164511263370514,-0.6277363300323486
1789453822159471900,10.576471923828125,-1.241223692893982,0.19633889198303223,-0.6501463055610657
1789453822169411800,10.586411865234375,-1.3070940971374512,0.2316521406173706,-0.5500575304031372
1789453822179350800,10.596350830078125,-1.3224413394927979,0.2460356056690216,-0.36879879236221313
1789453822189291000,10.606291015625,-1.2933028936386108,0.3064930737018585,-0.248191699385643
1789453822199230000,10.61622998046875,-1.1991289854049683,0.36294811964035034,-0.18874621391296387
1789453822209170000,10.626169921875,-1.0917268991470337,0.33697056770324707,-0.1458948850631714
1789453822219109000,10.636109130859374,-1.0238813161849976,0.31878891587257385,-0.1368768960237503
1789453822229049000,10.646049072265624,-0.9740530252456665,0.31565436720848083,-0.13523398339748383
1789453822238988000,10.655988037109376,-0.9062129855155945,0.35100090503692627,-0.13644465804100037
1789453822248928000,10.665927978515626,-0.804935097694397,0.46795815229415894,-0.14447888731956482
1789453822258867000,10.675866943359376,-0.6914666295051575,0.49008607864379883,-0.19351567327976227
1789453822268807000,10.685806884765626,-0.5858674645423889,0.4441646635532379,-0.25452736020088196
1789453822278745300,10.695745361328125,-0.4575486481189728,0.35365527868270874,-0.2866269648075104
1789453822288685600,10.705685546875,-0.43820372223854065,0.13195005059242249,-0.3446628451347351
1789453822298624500,10.71562451171875,-0.5285940766334534,-0.14197151362895966,-0.4233770966529846
1789453822308564500,10.725564453125,-0.6647090315818787,-0.23118901252746582,-0.4593161940574646
1789453822318504400,10.73550439453125,-0.744337260723114,-0.04037299007177353,-0.44163385033607483
1789453822328443600,10.745443603515625,-0.7821936011314392,0.22910988330841064,-0.4578527808189392
1789453822338382600,10.755382568359375,-0.7685827016830444,0.3048062324523926,-0.5319331288337708
1789453822348322600,10.765322509765625,-0.6904037594795227,0.21138441562652588,-0.6245227456092834
1789453822358261500,10.775261474609374,-0.5905567407608032,-0.04332803189754486,-0.7062215805053711
1789453822368201500,10.785201416015624,-0.5572260022163391,-0.21690887212753296,-0.7603282332420349
1789453822378141400,10.795141357421874,-0.5323736071586609,-0.2507576644420624,-0.7823514938354492
1789453822388080600,10.80508056640625,-0.5310393571853638,-0.19303922355175018,-0.8163678050041199
1789453822398020600,10.8150205078125,-0.5278300046920776,-0.11323121935129166,-0.8471944332122803
1789453822407959600,10.82495947265625,-0.5122763514518738,-0.0741456001996994,-0.8707652688026428
1789453822417899500,10.8348994140625,-0.5401598811149597,-0.023809991776943207,-0.850435733795166
1789453822427838500,10.84483837890625,-0.5806695222854614,0.02720019593834877,-0.8028264045715332
1789453822437778400,10.8547783203125,-0.6155092716217041,-0.038901060819625854,-0.7999416589736938
1789453822447717400,10.86471728515625,-0.612223207950592,-0.09825599938631058,-0.8347587585449219
1789453822457657600,10.87465771484375,-0.5804492831230164,-0.08710560947656631,-0.794163703918457
1789453822467596500,10.884596435546875,-0.5929978489875793,0.0620332770049572,-0.6549155116081238
1789453822477536500,10.89453662109375,-0.627923309803009,0.08434230834245682,-0.5663659572601318
1789453822487475500,10.904475341796875,-0.6740681529045105,0.01997690461575985,-0.5516647696495056
1789453822497415400,10.91441552734375,-0.6771164536476135,-0.006556968670338392,-0.5202434659004211
1789453822507354600,10.924354736328125,-0.6062952280044556,-0.11285464465618134,-0.5657315850257874
1789453822517294300,10.93429443359375,-0.5264589786529541,-0.1840028613805771,-0.6396982073783875
1789453822527233500,10.944233642578125,-0.529819130897522,-0.1397099643945694,-0.5963565707206726
1789453822537173500,10.954173583984375,-0.5854663848876953,-0.06371346861124039,-0.48177623748779297
1789453822547112400,10.964112548828124,-0.7614776492118835,-0.0487251952290535,-0.44968700408935547
1789453822557052700,10.974052734375,-0.8834410905838013,-0.1126711517572403,-0.43212825059890747
1789453822566991600,10.98399169921875,-0.9478477835655212,-0.13901594281196594,-0.4261728823184967
1789453822576931600,10.993931640625,-0.9067392349243164,-0.038609445095062256,-0.3772261142730713
1789453822586870500,11.00387060546875,-0.8645851016044617,-0.12735103070735931,-0.442661851644516
1789453822596810500,11.013810546875,-0.8333462476730347,-0.26371073722839355,-0.5471352338790894
1789453822606749400,11.02374951171875,-0.8872443437576294,-0.27418601512908936,-0.5667119026184082
1789453822616689400,11.033689453125,-0.8131877183914185,-0.12856809794902802,-0.504862368106842
1789453822626628400,11.04362841796875,-0.8177198767662048,-0.22174544632434845,-0.5860648155212402
1789453822636568600,11.053568603515625,-0.856334924697876,-0.103166863322258,-0.5849769115447998
1789453822646507500,11.063507568359375,-0.7302246689796448,-0.046791207045316696,-0.6235623955726624
1789453822656447500,11.073447509765625,-0.7521334290504456,-0.07683645933866501,-0.7179663777351379
1789453822666386700,11.08338671875,-0.6797292232513428,0.018130533397197723,-0.7214543223381042
1789453822676326400,11.093326416015625,-0.6782112717628479,-0.06718569248914719,-0.7331882119178772
1789453822686265300,11.103265380859375,-0.6686036586761475,-0.07932544499635696,-0.7728797197341919
1789453822696205600,11.11320556640625,-0.6984329223632812,0.01251232996582985,-0.778191089630127
1789453822706144500,11.12314453125,-0.660049319267273,0.06809356808662415,-0.780579686164856
1789453822716084500,11.13308447265625,-0.6159704923629761,0.025301095098257065,-0.8083854913711548
1789453822726023400,11.1430234375,-0.6454940438270569,0.09048862010240555,-0.807929277420044
1789453822735963600,11.152963623046874,-0.6400073766708374,-0.01671799272298813,-0.8808690309524536
1789453822745902600,11.162902587890626,-0.7550085783004761,0.01805330254137516,-0.866726815700531
1789453822755842600,11.172842529296876,-0.809407114982605,-0.04309447482228279,-0.8264398574829102
1789453822765781500,11.182781494140626,-0.8417993783950806,-0.023211313411593437,-0.6903576850891113
1789453822775721500,11.192721435546876,-0.8057553768157959,0.011758655309677124,-0.5796897411346436
1789453822785660400,11.202660400390625,-0.6786234974861145,-0.07673019915819168,-0.5566864013671875
1789453822795600400,11.212600341796875,-0.6419280767440796,-0.050881821662187576,-0.43758106231689453
1789453822805539600,11.22253955078125,-0.6675394177436829,0.08093319833278656,-0.26339301466941833
1789453822815479600,11.2324794921875,-0.6323220729827881,0.09499815106391907,-0.19001761078834534
1789453822825418500,11.24241845703125,-0.6324432492256165,0.18130773305892944,-0.12981684505939484
1789453822835358700,11.252358642578125,-0.6282058954238892,0.3066938817501068,-0.09284445643424988
1789453822845297700,11.262297607421875,-0.6955452561378479,0.4965897798538208,0.07532138377428055
1789453822855237400,11.2722373046875,-0.6267579197883606,0.1503458321094513,0.22276996076107025
1789453822865176300,11.28217626953125,-0.5405130386352539,0.053713031113147736,0.3582444190979004
1789453822875116500,11.292116455078125,-0.3853761851787567,-0.019170232117176056,0.40773022174835205
1789453822885055500,11.302055419921874,-0.28000208735466003,0.05859487131237984,0.38898104429244995
1789453822894995500,11.311995361328124,-0.23233310878276825,0.19206131994724274,0.39040717482566833
1789453822904934400,11.321934326171874,-0.176632821559906,0.184310182929039,0.4267617166042328
1789453822914874600,11.33187451171875,-0.13442039489746094,0.11622301489114761,0.4529334008693695
1789453822924813600,11.3418134765625,-0.11720412224531174,0.1251014620065689,0.46659886837005615
1789453822934753500,11.35175341796875,-0.09765864908695221,0.13263021409511566,0.4672097861766815
1789453822944692700,11.361692626953126,-0.10987935960292816,0.13844016194343567,0.47258564829826355
1789453822954632400,11.371632568359376,-0.13260890543460846,0.08528347313404083,0.5213643908500671
1789453822964571400,11.3815712890625,-0.14450764656066895,0.053877346217632294,0.5541979670524597
1789453822974511600,11.39151171875,-0.18541193008422852,-0.015806660056114197,0.5533894300460815
1789453822984450600,11.401450439453125,-0.18171733617782593,-0.06439470499753952,0.5589661002159119
1789453822994390500,11.411390625,-0.10142382979393005,-0.06198454275727272,0.55088871717453
1789453823004330500,11.42133056640625,0.07491285353899002,-0.10118281096220016,0.5059710144996643
1789453823014269700,11.431269775390625,0.2415873259305954,-0.10662204772233963,0.48794305324554443
1789453823024209400,11.44120947265625,0.3943539559841156,-0.09703706949949265,0.4718831181526184
1789453823034148400,11.4511484375,0.49968013167381287,-0.07634776830673218,0.455855131149292
1789453823044088600,11.461088623046875,0.58033287525177,-0.0006492786924354732,0.4701502025127411
1789453823054027500,11.471027587890624,0.691127598285675,0.07327927649021149,0.4946182668209076
1789453823063967500,11.480967529296874,0.851691722869873,0.1408631056547165,0.5297315120697021
1789453823073906400,11.490906494140624,1.0097681283950806,0.2157197743654251,0.5411292910575867
1789453823083846700,11.5008466796875,1.1269086599349976,0.28891223669052124,0.5508676767349243
1789453823093785600,11.51078564453125,1.232551097869873,0.34395018219947815,0.5774622559547424
1789453823103725300,11.520725341796876,1.3072956800460815,0.3223271667957306,0.6042430400848389
1789453823113664500,11.53066455078125,1.3420991897583008,0.3186855614185333,0.637043833732605
1789453823123604500,11.5406044921875,1.3586616516113281,0.3736864924430847,0.64646315574646
1789453823133543400,11.55054345703125,1.3658140897750854,0.3492855727672577,0.6138397455215454
1789453823143483400,11.5604833984375,1.3602540493011475,0.30142268538475037,0.6191926598548889
1789453823153422600,11.570422607421875,1.4035564661026,0.2597178518772125,0.6139553189277649
1789453823163362600,11.580362548828125,1.46236252784729,0.21625614166259766,0.5651816129684448
1789453823173301500,11.590301513671875,1.5010313987731934,0.23768579959869385,0.5689361691474915
1789453823183241700,11.60024169921875,1.5751113891601562,0.24143312871456146,0.5561735033988953
1789453823193180700,11.6101806640625,1.5636448860168457,0.2659347355365753,0.5350847244262695
1789453823203120400,11.620120361328125,1.5448001623153687,0.3185497522354126,0.5754955410957336
1789453823213059300,11.630059326171875,1.5464438199996948,0.2405918389558792,0.562317430973053
1789453823222999600,11.63999951171875,1.5416946411132812,0.19734609127044678,0.5205049514770508
1789453823232938500,11.6499384765625,1.5721014738082886,0.19172096252441406,0.557904839515686
1789453823242878500,11.65987841796875,1.508467435836792,0.07561220228672028,0.5769277811050415
1789453823252817700,11.669817626953124,1.4586024284362793,0.04458025097846985,0.6082561612129211
1789453823262757600,11.679757568359374,1.405718445777893,-0.012927516363561153,0.6586042642593384
1789453823272696600,11.689696533203126,1.3685553073883057,-0.08030921965837479,0.6392459869384766
1789453823282636300,11.69963623046875,1.3127282857894897,-0.11210949718952179,0.6637585163116455
1789453823292575200,11.7095751953125,1.3372389078140259,-0.10272078216075897,0.7056857347488403
1789453823302515200,11.71951513671875,1.4191532135009766,-0.19437932968139648,0.6519032120704651
1789453823312454400,11.729454345703125,1.4777106046676636,-0.24410001933574677,0.580254852771759
1789453823322394400,11.739394287109375,1.5264872312545776,-0.26147207617759705,0.5294369459152222
1789453823332333300,11.749333251953125,1.458776593208313,-0.24825002253055573,0.5629211664199829
1789453823342273300,11.759273193359375,1.4549546241760254,-0.2920891046524048,0.5104361176490784
1789453823352212500,11.76921240234375,1.3403301239013672,-0.21431362628936768,0.5080480575561523
1789453823362152400,11.77915234375,1.2716131210327148,-0.266181617975235,0.3513053059577942
1789453823372091400,11.78909130859375,1.1698238849639893,-0.2050761878490448,0.4191701114177704
1789453823382031400,11.79903125,1.1042139530181885,-0.16883854568004608,0.4296102225780487
1789453823391970300,11.80897021484375,1.0826159715652466,-0.16756077110767365,0.3311249315738678
1789453823401910300,11.81891015625,1.046617031097412,-0.20721204578876495,0.2778870165348053
1789453823411849200,11.82884912109375,0.992254912853241,-0.19842520356178284,0.3311920464038849
1789453823421789400,11.83878955078125,0.9023540616035461,-0.1815551519393921,0.41585126519203186
1789453823431728400,11.848728271484376,0.8249812722206116,-0.15277622640132904,0.4912765324115753
1789453823441668400,11.85866845703125,0.8223969340324402,-0.19090071320533752,0.6005534529685974
1789453823451607300,11.868607177734376,0.8621008992195129,-0.327898770570755,0.6338453888893127
1789453823461547300,11.87854736328125,0.8448809385299683,-0.36095553636550903,0.6479782462120056
1789453823471486200,11.888486328125,0.7773194313049316,-0.3967319130897522,0.6970909237861633
1789453823481426200,11.89842626953125,0.6846584677696228,-0.3243780732154846,0.7489381432533264
1789453823491365400,11.908365478515625,0.5920217633247375,-0.36860892176628113,0.7390804886817932
1789453823501305300,11.918305419921875,0.5506376028060913,-0.4173916280269623,0.6642371416091919
1789453823511244300,11.928244384765625,0.5389721393585205,-0.3652022182941437,0.6242468357086182
1789453823521184500,11.9381845703125,0.5212323069572449,-0.22849655151367188,0.6389580965042114
1789453823531123500,11.94812353515625,0.5389713644981384,-0.2015315145254135,0.6120740175247192
1789453823541063400,11.9580634765625,0.5081681609153748,-0.18468889594078064,0.5314249992370605
1789453823551002400,11.96800244140625,0.41799405217170715,-0.07179056853055954,0.4586024582386017
1789453823560942300,11.9779423828125,0.28743603825569153,0.06943606585264206,0.37552329897880554
1789453823570881300,11.98788134765625,0.20445087552070618,0.13212554156780243,0.29350778460502625
1789453823580821200,11.9978212890625,0.13785746693611145,0.15864238142967224,0.16915759444236755
1789453823590760200,12.00776025390625,0.030248982831835747,0.09641468524932861,0.012016182765364647
1789453823600700400,12.017700439453124,-0.1243312731385231,0.0453304648399353,-0.09844747930765152
1789453823610639400,12.027639404296876,-0.21724389493465424,0.06692790240049362,-0.13944604992866516
1789453823620579300,12.037579345703126,-0.30989474058151245,-0.014369884505867958,-0.18350563943386078
1789453823630518500,12.0475185546875,-0.39734843373298645,-0.12831030786037445,-0.28271371126174927
1789453823640458200,12.057458251953125,-0.4851672351360321,-0.18786071240901947,-0.37097033858299255
1789453823650398200,12.067398193359375,-0.5954055786132812,-0.26008376479148865,-0.40925782918930054
1789453823660337400,12.07733740234375,-0.6937713027000427,-0.22377291321754456,-0.44488611817359924
1789453823670277400,12.08727734375,-0.7803866267204285,-0.06238534674048424,-0.4817381501197815
1789453823680216300,12.09721630859375,-0.8671953082084656,-0.015982428565621376,-0.5282755494117737
1789453823690156500,12.107156494140625,-0.9436354637145996,0.09138237684965134,-0.5587359666824341
1789453823700095500,12.117095458984375,-0.9520635604858398,0.17733296751976013,-0.5723332762718201
1789453823710035200,12.12703515625,-0.9682984948158264,0.2604725956916809,-0.5854097008705139
1789453823719974400,12.136974365234375,-1.0230685472488403,0.26240578293800354,-0.5768369436264038
1789453823729914400,12.146914306640625,-1.1106535196304321,0.2524399757385254,-0.5747011303901672
1789453823739853300,12.156853271484374,-1.2034214735031128,0.33717218041419983,-0.4800430238246918
1789453823749793300,12.166793212890624,-1.2684409618377686,0.3912559151649475,-0.2648886442184448
1789453823759732200,12.176732177734374,-1.2842137813568115,0.32576584815979004,-0.033548638224601746
1789453823769672400,12.18667236328125,-1.2128525972366333,0.2853768765926361,0.12014957517385483
1789453823779611400,12.196611328125,-1.0890171527862549,0.2760281264781952,0.19737298786640167
1789453823789551400,12.20655126953125,-1.002095341682434,0.24825215339660645,0.17241545021533966
1789453823799490600,12.216490478515626,-0.9215498566627502,0.2867116630077362,0.10964687168598175
1789453823809430300,12.22643017578125,-0.8330676555633545,0.31849807500839233,0.09072830528020859
1789453823819369200,12.236369140625,-0.7823024988174438,0.2646774649620056,0.01272644754499197
1789453823829309400,12.246309326171875,-0.7899476289749146,0.2616443932056427,-0.06532787531614304
1789453823839248400,12.256248291015625,-0.7347123622894287,0.387637734413147,-0.08230845630168915
1789453823849188400,12.266188232421875,-0.6702627539634705,0.3506530821323395,-0.13349413871765137
1789453823859127300,12.276127197265625,-0.6445541977882385,0.13362491130828857,-0.2520575523376465
1789453823869067500,12.286067626953125,-0.6701706051826477,-0.05143709108233452,-0.3692566156387329
1789453823879006500,12.29600634765625,-0.6408098340034485,-0.06560750305652618,-0.39776813983917236
1789453823888946200,12.3059462890625,-0.5837315917015076,0.06425461918115616,-0.3999689817428589
1789453823898885400,12.315885498046875,-0.5069289803504944,0.23262712359428406,-0.42883551120758057
1789453823908825300,12.325825439453125,-0.3926865756511688,0.30913788080215454,-0.4673197865486145
1789453823918764300,12.335764404296874,-0.23934440314769745,0.22248660027980804,-0.49861353635787964
1789453823928704300,12.345704345703124,-0.1619177907705307,0.03750742971897125,-0.5386850237846375
1789453823938643500,12.3556435546875,-0.19075530767440796,-0.187560573220253,-0.6132490038871765
1789453823948583400,12.36558349609375,-0.3439296782016754,-0.24915869534015656,-0.6489841341972351
