time,seconds_elapsed,z,y,x
1789033777505571300,0.1455712890625,0,0,0
1789033777515497000,0.1554970703125,-0.1028299331665039,0.08957600593566895,0.04268336296081543
1789033777525422600,0.165422607421875,-0.09135913848876953,0.1932816505432129,0.06133747100830078
1789033777535348000,0.175347900390625,0.10262775421142578,0.2245926856994629,0.029972195625305176
1789033777545273300,0.1852734375,0.4330406188964844,0.15779590606689453,0.015494227409362793
1789033777555199000,0.195198974609375,0.7789840698242188,0.057440757751464844,-0.011753737926483154
1789033777565124400,0.205124267578125,0.8835325241088867,0.0019638538360595703,-0.0017909407615661621
1789033777575050000,0.215050048828125,0.6787033081054688,-0.026186704635620117,0.013844847679138184
1789033777584975400,0.224975341796875,0.3791007995605469,0.035434722900390625,-0.05639559030532837
1789033777594900700,0.234900634765625,0.11108684539794922,0.10082745552062988,-0.08742231130599976
1789033777604826400,0.244826416015625,-0.15245723724365234,0.135817289352417,-0.10875672101974487
1789033777614751700,0.254751708984375,-0.4060249328613281,0.11065340042114258,-0.135067880153656
1789033777624677400,0.264677490234375,-0.6233730316162109,0.014398813247680664,-0.20834463834762573
1789033777634602800,0.274602783203125,-0.7006416320800781,-0.0898745059967041,-0.28469204902648926
1789033777644528400,0.2845283203125,-0.5649070739746094,-0.17160296440124512,-0.35816001892089844
1789033777654453800,0.294453857421875,-0.3604469299316406,-0.2236936092376709,-0.34471216797828674
1789033777664379100,0.304379150390625,-0.2739286422729492,-0.3048281669616699,-0.25833916664123535
1789033777674304800,0.3143046875,-0.22978973388671875,-0.40131139755249023,-0.22255980968475342
1789033777684230400,0.32423046875,-0.1861581802368164,-0.4198915958404541,-0.2217710018157959
1789033777694155800,0.33415576171875,-0.1011037826538086,-0.42168664932250977,-0.28976044058799744
1789033777704081200,0.3440810546875,-0.0735464096069336,-0.425895094871521,-0.32405614852905273
1789033777714006800,0.3540068359375,0.013762474060058594,-0.39493608474731445,-0.31726905703544617
1789033777723932200,0.36393212890625,-0.008509635925292969,-0.31662654876708984,-0.32711061835289
1789033777733857800,0.37385791015625,-0.05109882354736328,-0.2929788827896118,-0.2640414237976074
1789033777743783200,0.383783203125,0.0017538070678710938,-0.2647089958190918,-0.2773813307285309
1789033777753708500,0.39370849609375,0.17389965057373047,-0.2678159475326538,-0.25334835052490234
1789033777763634200,0.40363427734375,0.10819339752197266,-0.3597574234008789,-0.1549379825592041
1789033777773559600,0.4135595703125,0.026848793029785156,-0.3493882417678833,-0.09307348728179932
1789033777783485200,0.423485107421875,0.022068023681640625,-0.2902858257293701,-0.029714882373809814
1789033777793410600,0.43341064453125,0.16031646728515625,-0.17366790771484375,0.010400176048278809
1789033777803336200,0.443336181640625,0.490570068359375,-0.08350062370300293,-0.04759180545806885
1789033777813261600,0.453261474609375,0.8156843185424805,-0.09083366394042969,-0.052556395530700684
1789033777823187000,0.46318701171875,1.2113676071166992,-0.25151681900024414,-0.07275032997131348
1789033777833112600,0.473112548828125,1.5422849655151367,-0.4281182289123535,-0.10771077871322632
1789033777843038000,0.483037841796875,1.629624366760254,-0.39584875106811523,-0.23500925302505493
1789033777852963600,0.492963623046875,1.0936479568481445,-0.3999936580657959,-0.2590145468711853
1789033777862889000,0.502888916015625,0.3217601776123047,-0.5236728191375732,0.02248746156692505
1789033777872814300,0.512814453125,-0.4279632568359375,-0.5088222026824951,0.22275012731552124
1789033777882740000,0.522739990234375,-1.0104951858520508,-0.3016536235809326,0.22341662645339966
1789033777892665600,0.53266552734375,-1.5077476501464844,-0.10365176200866699,0.2295295000076294
1789033777902591000,0.542591064453125,-1.860001564025879,-0.012315034866333008,0.3013494610786438
1789033777912516400,0.552516357421875,-1.8426332473754883,0.07159113883972168,0.2692806124687195
1789033777922442000,0.56244189453125,-1.4670543670654297,0.04329681396484375,0.3209657669067383
1789033777932367400,0.572367431640625,-1.0148754119873047,-0.08126235008239746,0.2768973112106323
1789033777942293000,0.58229296875,-0.6374607086181641,-0.26862621307373047,0.2505496144294739
1789033777952218400,0.59221826171875,-0.24924087524414062,-0.6516051292419434,0.20795094966888428
1789033777962143700,0.602143798828125,0.3275442123413086,-1.0264049768447876,0.18287765979766846
1789033777972069400,0.6120693359375,0.27935218811035156,-0.7708659172058105,0.709183394908905
1789033777981994800,0.621994873046875,-0.3654146194458008,-0.6848628520965576,0.9958491921424866
1789033777991920400,0.63192041015625,-0.7926158905029297,-0.5785555839538574,0.712710976600647
1789033778001845800,0.641845703125,-0.9947795867919922,-0.47219181060791016,0.4133776128292084
1789033778011771100,0.651771240234375,-1.6063499450683594,-0.8297290802001953,0.7494466304779053
1789033778021696800,0.66169677734375,-1.59747314453125,-0.74668288230896,0.47012948989868164
1789033778031622100,0.6716220703125,-1.464508056640625,-0.9375948905944824,-0.20103424787521362
1789033778041547800,0.6815478515625,-1.8137626647949219,-1.2047927379608154,-0.12338186800479889
1789033778051473200,0.69147314453125,-2.2266130447387695,-1.0308690071105957,0.11537855863571167
1789033778061398800,0.701398681640625,-2.421609878540039,-0.46154260635375977,0.15149226784706116
1789033778071324200,0.71132421875,-2.6087827682495117,0.14693093299865723,0.003984764218330383
1789033778081249500,0.72124951171875,-2.5486741065979004,0.16784453392028809,-0.1749771535396576
1789033778091175200,0.731175048828125,-2.1296310424804688,-0.251676082611084,-0.3843938708305359
1789033778101100500,0.7411005859375,-1.5238666534423828,-0.6773045063018799,-0.5361577272415161
1789033778111026200,0.751026123046875,-0.9183883666992188,-0.7675168514251709,-0.6537854671478271
1789033778120951600,0.76095166015625,-0.2790679931640625,-0.5084693431854248,-0.5294359922409058
1789033778130877000,0.770876953125,-0.38873863220214844,-0.05624055862426758,-0.11700513958930969
1789033778140802600,0.780802490234375,-0.6425151824951172,0.2893838882446289,0.02506176009774208
1789033778150728000,0.79072802734375,-0.2151803970336914,0.18288493156433105,-0.24787135422229767
1789033778160653600,0.800653564453125,0.666539192199707,-0.34824657440185547,-0.5612456202507019
1789033778170579000,0.810578857421875,1.4914751052856445,-0.7638800144195557,-0.766242265701294
1789033778180504300,0.82050439453125,1.7547693252563477,-0.9553115367889404,-0.9098790287971497
1789033778190430000,0.830429931640625,1.5547094345092773,-0.7337379455566406,-0.8305661678314209
1789033778200355600,0.84035546875,0.9202108383178711,-0.33495187759399414,-0.6754809617996216
1789033778210281000,0.850281005859375,0.28583621978759766,-0.14375782012939453,-0.6355398297309875
1789033778220206300,0.860206298828125,-0.19950485229492188,-0.14441299438476562,-0.6191122531890869
1789033778230132000,0.870132080078125,-0.36406803131103516,0.03611040115356445,-0.49551182985305786
1789033778240057300,0.880057373046875,-0.3103475570678711,0.22968125343322754,-0.13612842559814453
1789033778249983000,0.88998291015625,-0.5513095855712891,0.43703770637512207,0.32947179675102234
1789033778259908400,0.899908447265625,-0.5653533935546875,0.5600640773773193,0.44817447662353516
1789033778269833700,0.909833740234375,-0.22488975524902344,0.4684288501739502,0.41733813285827637
1789033778279759400,0.91975927734375,0.023804664611816406,0.3095359802246094,0.2682812809944153
1789033778289684700,0.929684814453125,-0.0068302154541015625,0.23545145988464355,-0.05988585948944092
1789033778299610400,0.9396103515625,0.013078689575195312,0.14563727378845215,-0.3792310357093811
1789033778309535700,0.94953564453125,0.014021873474121094,0.24044322967529297,-0.3942299783229828
1789033778319461000,0.959461181640625,0.06938648223876953,0.24410510063171387,-0.37365537881851196
1789033778329386800,0.96938671875,0.1713542938232422,0.20809197425842285,-0.34351277351379395
1789033778339312000,0.97931201171875,0.31423473358154297,0.285797119140625,-0.2171810269355774
1789033778349237800,0.98923779296875,0.8877277374267578,0.1964714527130127,-0.07438927888870239
1789033778359163100,0.9991630859375,1.021209716796875,-0.013717412948608398,-0.018826603889465332
1789033778369088500,1.009088623046875,0.7552909851074219,0.03547835350036621,0.12033343315124512
1789033778379014100,1.01901416015625,0.6194658279418945,-0.27991724014282227,-0.46902918815612793
1789033778388939500,1.028939453125,0.19992351531982422,-0.10875630378723145,-2.2114577293395996
1789033778398865200,1.038865234375,-0.18078231811523438,-0.14800739288330078,-2.133042335510254
1789033778408790500,1.04879052734375,-0.22630882263183594,-0.7542855739593506,-0.7534048557281494
1789033778418716000,1.0587158203125,-0.17673873901367188,-0.6013531684875488,0.3400355577468872
1789033778428641500,1.0686416015625,-0.2725973129272461,-0.6418354511260986,0.9927058219909668
1789033778438567000,1.07856689453125,0.18741703033447266,-0.3810288906097412,0.895210862159729
1789033778448492500,1.088492431640625,-0.10564231872558594,-0.5578179359436035,0.7261865139007568
1789033778458418000,1.09841796875,-0.4311370849609375,-1.0815014839172363,0.3613862991333008
1789033778468343300,1.10834326171875,-0.9047775268554688,-1.5591273307800293,-0.22644948959350586
1789033778478269000,1.11826904296875,-1.8184270858764648,-1.9351081848144531,-0.6961034536361694
1789033778488194300,1.1281943359375,-2.585235118865967,-2.1347081661224365,-0.7744505405426025
1789033778498120000,1.138119873046875,-2.692899703979492,-2.148024082183838,-0.6871248483657837
1789033778508045300,1.14804541015625,-3.1357784271240234,-1.6611104011535645,-0.39867401123046875
1789033778517970700,1.157970703125,-3.8307104110717773,-1.3025245666503906,0.09268712997436523
1789033778527896300,1.167896240234375,-4.415050029754639,-1.0866565704345703,0.06712007522583008
1789033778537821700,1.17782177734375,-4.529541015625,-1.2706456184387207,0.201704740524292
1789033778547747300,1.187747314453125,-4.222455024719238,-1.1944365501403809,0.2954556941986084
1789033778557672700,1.197672607421875,-4.131164073944092,-1.07696533203125,0.4875452518463135
1789033778567598000,1.20759814453125,-3.8460581302642822,-1.1750671863555908,0.36141204833984375
1789033778577523700,1.217523681640625,-3.224165439605713,-1.700613021850586,-0.15118122100830078
1789033778587449000,1.227448974609375,-2.78031063079834,-2.3314530849456787,-0.6521515846252441
1789033778597374700,1.237374755859375,-2.316923141479492,-2.8168768882751465,-1.1266992092132568
1789033778607300000,1.247300048828125,-1.9786815643310547,-3.146343231201172,-1.495779037475586
1789033778617225500,1.2572255859375,-2.526085376739502,-2.8488285541534424,-1.1006650924682617
1789033778627151000,1.267151123046875,-3.8982672691345215,-2.215259075164795,0.013284683227539062
1789033778637076500,1.277076416015625,-4.970462322235107,-1.065190315246582,1.4807400703430176
1789033778647002000,1.287002197265625,-5.123138904571533,-0.9375572204589844,2.1291470527648926
1789033778656927500,1.296927490234375,-3.8146936893463135,-1.0212864875793457,2.4358019828796387
1789033778666852900,1.306852783203125,-1.894878625869751,-1.4682738780975342,2.0710768699645996
1789033778676778500,1.316778564453125,-0.2347731590270996,-1.7820632457733154,1.7003488540649414
1789033778686703900,1.326703857421875,0.4814791679382324,-1.9793877601623535,0.9893651008605957
1789033778696629500,1.33662939453125,1.1028718948364258,-3.575807571411133,-1.726191520690918
1789033778706555000,1.346554931640625,1.1040911674499512,-3.9251909255981445,-2.3763418197631836
1789033778716480300,1.356480224609375,-1.6477854251861572,-6.296285629272461,-3.604661703109741
1789033778726406000,1.366406005859375,-0.17168092727661133,-4.398743152618408,-1.8453483581542969
1789033778736331300,1.376331298828125,0.572514533996582,-2.020676851272583,-0.5154752731323242
1789033778746257000,1.3862568359375,1.297560214996338,-0.5795018672943115,0.958827018737793
1789033778756182300,1.396182373046875,1.3362483978271484,-0.19340741634368896,1.3735504150390625
1789033778766108000,1.40610791015625,1.5391945838928223,-0.7233107089996338,0.8376064300537109
1789033778776033300,1.416033203125,1.7264668941497803,-1.3056178092956543,0.035243988037109375
1789033778785958700,1.425958740234375,1.8180172443389893,-1.949899435043335,-0.6462211608886719
1789033778795884000,1.435884033203125,1.6907429695129395,-2.708707332611084,-0.6793489456176758
1789033778805809700,1.4458095703125,1.944078803062439,-3.141287088394165,-0.1399984359741211
1789033778815735300,1.4557353515625,2.897364616394043,-2.683457136154175,0.931391716003418
1789033778825660700,1.46566064453125,4.162315368652344,-2.3812334537506104,1.9778175354003906
1789033778835586000,1.4755859375,4.819610595703125,-2.5615131855010986,2.3654403686523438
1789033778845511400,1.485511474609375,5.357168197631836,-2.3465685844421387,2.5864295959472656
1789033778855437000,1.49543701171875,4.892294406890869,-1.348199725151062,3.746654510498047
1789033778865362400,1.505362548828125,3.936765670776367,-0.7684173583984375,4.566309928894043
1789033778875288000,1.5152880859375,2.980114459991455,-0.48393845558166504,4.934945106506348
1789033778885213400,1.52521337890625,1.7851872444152832,-0.573793888092041,4.712886810302734
1789033778895138800,1.535138916015625,1.0824105739593506,-1.0932061672210693,4.5828704833984375
1789033778905064400,1.545064453125,1.1330351829528809,-1.3876917362213135,4.513968467712402
1789033778914989800,1.55498974609375,1.539430022239685,-1.4628183841705322,4.112828254699707
1789033778924915500,1.56491552734375,2.264356851577759,-1.0986549854278564,4.233816146850586
1789033778934840800,1.5748408203125,2.6292402744293213,-1.3164253234863281,4.194428443908691
1789033778944766200,1.58476611328125,2.3988285064697266,-1.1097488403320312,4.305853843688965
1789033778954691800,1.59469189453125,2.8341047763824463,1.3176465034484863,5.773122787475586
1789033778964617200,1.6046171875,3.217721700668335,2.7522857189178467,6.85511589050293
1789033778974542800,1.61454296875,3.559183120727539,2.52081036567688,6.7937211990356445
1789033778984468200,1.62446826171875,3.5607223510742188,1.4852352142333984,6.278322219848633
1789033778994393600,1.6343935546875,4.069378852844238,1.3405709266662598,5.55116081237793
1789033779004319200,1.6443193359375,4.620553493499756,2.079529047012329,5.260784149169922
1789033779014244600,1.65424462890625,4.004467964172363,2.202091693878174,5.399478912353516
1789033779024170000,1.664169921875,3.4135890007019043,2.468277931213379,5.1908111572265625
1789033779034095600,1.674095703125,2.7288737297058105,2.3349499702453613,5.1253509521484375
1789033779044021000,1.68402099609375,1.8957990407943726,2.493332862854004,4.639416694641113
1789033779053947400,1.693947509765625,-0.16088640689849854,1.5411224365234375,4.130309104919434
1789033779063872000,1.7038720703125,-0.22373759746551514,2.542449474334717,3.57977294921875
1789033779073797400,1.71379736328125,0.0588536262512207,3.361072063446045,3.426126480102539
1789033779083723000,1.723722900390625,0.3643488585948944,3.5170063972473145,2.8991098403930664
1789033779093648400,1.7336484375,0.4458892345428467,3.8400442600250244,2.590947151184082
1789033779103574000,1.743573974609375,0.019884347915649414,3.603546619415283,2.3994827270507812
1789033779113499400,1.75349951171875,-0.3573632836341858,3.178523063659668,2.076216697692871
1789033779123424800,1.7634248046875,-0.5157217979431152,3.044520378112793,1.9047107696533203
1789033779133350400,1.773350341796875,-1.0152372121810913,2.863069534301758,1.6709203720092773
1789033779143275800,1.78327587890625,-1.378708839416504,2.514737367630005,1.5007190704345703
1789033779153201400,1.793201416015625,-1.6406575441360474,2.484564781188965,1.524186134338379
1789033779163126800,1.803126708984375,-1.9643468856811523,2.683382034301758,1.6444730758666992
1789033779173052200,1.81305224609375,-2.6385302543640137,2.594285011291504,2.0106773376464844
1789033779182977800,1.822977783203125,-2.8472471237182617,2.6570687294006348,2.2379093170166016
1789033779192903200,1.832903076171875,-2.694228172302246,2.335254192352295,2.2414026260375977
1789033779202828500,1.84282861328125,-2.2694036960601807,1.8443536758422852,2.135408401489258
1789033779212754200,1.852754150390625,-1.4994103908538818,1.4802250862121582,1.8407363891601562
1789033779222679600,1.862679443359375,-1.184887170791626,1.1758761405944824,1.5453739166259766
1789033779274647600,1.9146474609375,0.4685631990432739,-1.7694053649902344,-0.7792472839355469
1789033779284573000,1.924572998046875,1.0546326637268066,-1.7724199295043945,-1.0062541961669922
1789033779294498600,1.93449853515625,1.470632791519165,-1.9230341911315918,-1.2961516380310059
1789033779304424000,1.944423828125,1.5872300863265991,-1.836625576019287,-1.5208840370178223
1789033779314349300,1.954349365234375,1.4339308738708496,-1.4516305923461914,-1.5637784004211426
1789033779324275000,1.96427490234375,0.7711965441703796,-1.5176916122436523,-1.6971311569213867
1789033779334200300,1.974200439453125,1.2866535186767578,-1.0754852294921875,-1.386958122253418
1789033779344126000,1.9841259765625,1.1884855031967163,-0.9143080711364746,-1.4312543869018555
1789033779354051300,1.99405126953125,0.7824277877807617,-0.7742319107055664,-1.3415164947509766
1789033779363976700,2.003976806640625,0.542177677154541,-0.8273634910583496,-1.3828978538513184
1789033779373902300,2.01390234375,-1.0490504503250122,-0.9654455184936523,-1.9706664085388184
1789033779383827700,2.02382763671875,-3.233088493347168,-0.7993512153625488,-2.548133373260498
1789033779393753000,2.033753173828125,-4.001619815826416,-0.3876152038574219,-2.6034646034240723
1789033779403678700,2.0436787109375,-3.3627824783325195,-2.160645008087158,-3.308011531829834
1789033779413604000,2.05360400390625,-2.801201343536377,0.3489809036254883,-1.0271406173706055
1789033779423529700,2.06352978515625,-3.084019422531128,0.8135156631469727,-0.5018439292907715
1789033779433455000,2.073455078125,-2.3092236518859863,-0.7841615676879883,-0.3550429344177246
1789033779443380500,2.08338037109375,-1.3403011560440063,-0.0027170181274414062,1.178074836730957
1789033779453306000,2.09330615234375,-1.506826400756836,0.5885457992553711,2.622561454772949
1789033779463231500,2.1032314453125,-1.0650876760482788,1.1522002220153809,3.304197311401367
1789033779473156900,2.113156982421875,-1.6435182094573975,0.08683013916015625,2.752467155456543
1789033779483082500,2.12308251953125,2.879394292831421,-1.5635724067687988,5.213420867919922
1789033779493008000,2.1330078125,-0.8036940097808838,2.2280943393707275,5.942636489868164
1789033779502933200,2.142933349609375,-2.1021604537963867,0.6880664825439453,5.771729469299316
1789033779512859000,2.15285888671875,2.542525053024292,-0.5690460205078125,5.560112953186035
1789033779522784300,2.1627841796875,5.206461429595947,-0.9040307998657227,5.0718841552734375
1789033779532709600,2.172709716796875,1.8473402261734009,-1.6151094436645508,3.53995418548584
1789033779542635300,2.18263525390625,-1.5465850830078125,-2.9444494247436523,2.388551712036133
1789033779552560600,2.192560546875,-0.030601024627685547,-2.0235562324523926,3.2996692657470703
1789033779562486300,2.202486328125,-3.6372170448303223,-1.1967554092407227,1.5891265869140625
1789033779572411600,2.21241162109375,0.4913457930088043,-2.429327964782715,2.219310760498047
1789033779582337000,2.2223369140625,1.7308810949325562,-2.299201011657715,3.8113393783569336
1789033779592262700,2.2322626953125,-4.9436750411987305,-1.0646162033081055,2.6542434692382812
1789033779602188000,2.24218798828125,-5.4560394287109375,-1.262502670288086,3.2772216796875
1789033779612113400,2.252113525390625,-2.6417739391326904,-1.0453519821166992,3.1176023483276367
1789033779622039000,2.2620390625,-4.056386947631836,3.124290704727173,-2.193317413330078
1789033779631964400,2.27196435546875,-2.720541477203369,-7.393089294433594,6.736985206604004
1789033779641889800,2.281889892578125,5.216850757598877,0.0943765640258789,1.0741586685180664
1789033779651815400,2.2918154296875,-2.4068286418914795,1.4922397136688232,0.5604085922241211
1789033779661740800,2.30174072265625,-5.0155863761901855,0.524294376373291,-6.131185054779053
1789033779671666400,2.31166650390625,7.647202968597412,2.01945424079895,-5.747829437255859
1789033779681591800,2.321591796875,-7.240228176116943,4.485273361206055,-8.000179290771484
1789033779691517200,2.33151708984375,0.6211058497428894,4.911965847015381,-6.670846939086914
1789033779701442800,2.34144287109375,2.0438804626464844,5.954251766204834,-3.9729294776916504
1789033779711368200,2.3513681640625,3.0491397380828857,7.098562240600586,-3.6847119331359863
1789033779721293600,2.36129345703125,-5.787846565246582,8.434436798095703,-6.741559028625488
1789033779731219200,2.37121923828125,-3.425565242767334,7.909285545349121,-7.891719341278076
1789033779741144600,2.38114453125,-3.7968974113464355,8.29416561126709,-6.0400543212890625
1789033779751070000,2.391070068359375,-1.0227603912353516,8.137845039367676,-3.358700752258301
1789033779760995600,2.40099560546875,-1.6483707427978516,10.303969383239746,-0.8922829627990723
1789033779770921000,2.4109208984375,0.27887606620788574,9.918233871459961,-0.16388320922851562
1789033779780846600,2.4208466796875,1.8406985998153687,8.689581871032715,-2.646028518676758
1789033779790772000,2.43077197265625,0.8408184051513672,7.280625343322754,-2.080571174621582
1789033779800697300,2.440697265625,-1.300966501235962,8.748872756958008,-1.327737808227539
1789033779810623000,2.450623046875,0.9475674033164978,9.170644760131836,0.6263294219970703
1789033779820548400,2.46054833984375,2.1554737091064453,8.567258834838867,0.9908218383789062
1789033779830473700,2.4704736328125,1.660328984260559,6.72067928314209,0.5129728317260742
1789033779840399400,2.4803994140625,-0.6807399988174438,5.1124773025512695,-5.293234825134277
1789033779850324700,2.49032470703125,-0.3921091556549072,6.036033630371094,-8.909156799316406
1789033779860250000,2.50025,-5.867557525634766,-2.9708433151245117,-8.344400405883789
1789033779870175700,2.51017578125,4.772854804992676,4.615816593170166,0.1914205551147461
1789033779880101000,2.52010107421875,4.8630218505859375,-6.701990604400635,-4.966784477233887
1789033779890026800,2.53002685546875,-0.27319860458374023,-7.485862731933594,-3.785280227661133
1789033779899952000,2.5399521484375,-4.204252243041992,-9.291754722595215,1.2620878219604492
1789033779909877500,2.54987744140625,-6.557621955871582,-4.807314872741699,3.9338531494140625
1789033779919803100,2.55980322265625,-10.56081771850586,-4.19679069519043,4.791659355163574
1789033779929728500,2.569728515625,8.93671703338623,-13.630915641784668,-15.352418899536133
1789033779939654000,2.57965380859375,10.978096961975098,-15.507447242736816,0.91229248046875
1789033779949579500,2.58957958984375,5.846473693847656,-8.544279098510742,7.503022193908691
1789033779959505000,2.5995048828125,10.506200790405273,-13.77292251586914,7.756527900695801
1789033779969430300,2.60943017578125,5.50486946105957,-11.66201400756836,7.33530330657959
1789033779979356000,2.61935595703125,-0.8636341094970703,-9.561241149902344,8.208297729492188
1789033779989281300,2.62928125,-3.3836259841918945,-9.485109329223633,6.1503400802612305
1789033779999207000,2.63920703125,-1.5548968315124512,-8.42967700958252,5.47382926940918
1789033780009132300,2.64913232421875,-0.14036083221435547,-9.834195137023926,2.3782577514648438
1789033780019057700,2.6590576171875,0.4589395523071289,-8.481240272521973,1.563934326171875
1789033780028983300,2.6689833984375,0.045305490493774414,-7.160748481750488,2.9202756881713867
1789033780038908700,2.67890869140625,-1.1456894874572754,-7.275140762329102,1.924504280090332
1789033780048834000,2.688833984375,-2.9270358085632324,-7.555852890014648,0.12495613098144531
1789033780058759700,2.698759765625,-0.93963623046875,-8.669388771057129,0.8780975341796875
1789033780068685000,2.70868505859375,-1.0533983707427979,-6.288420677185059,-0.33927249908447266
1789033780078610400,2.7186103515625,-2.4433224201202393,-3.033897638320923,1.462203025817871
1789033780088536000,2.7285361328125,-0.5155222415924072,-4.268199920654297,2.50960636138916
1789033780098461400,2.73846142578125,0.16015911102294922,-2.730280876159668,4.607522010803223
1789033780108387000,2.748386962890625,0.6493693590164185,0.9686324596405029,4.043890953063965
1789033780118312400,2.7583125,11.168567657470703,-3.1223387718200684,1.6477775573730469
1789033780128237800,2.76823779296875,-18.55967140197754,6.700310707092285,2.7539854049682617
1789033780138163200,2.7781630859375,-8.653786659240723,3.464163303375244,3.107211112976074
1789033780148088600,2.788088623046875,36.24272918701172,-2.434587001800537,-1.0147428512573242
1789033780158014200,2.79801416015625,-30.250871658325195,12.442038536071777,-0.7600879669189453
1789033780167939600,2.807939697265625,0.1710221767425537,5.331111907958984,-4.559959888458252
1789033780177865000,2.817864990234375,7.433348655700684,2.999093532562256,-4.542118549346924
1789033780187790300,2.827790283203125,-5.750441074371338,9.461702346801758,-0.9893980026245117
1789033780197715700,2.8377158203125,-9.224169731140137,11.58184814453125,-11.94765567779541
1789033780207641000,2.84764111328125,-9.003803253173828,13.297723770141602,-7.5383100509643555
1789033780217566500,2.85756640625,-0.7098227739334106,13.922395706176758,-0.45001697540283203
1789033780227492000,2.8674921875,-4.4324541091918945,15.480481147766113,-2.692099094390869
1789033780237417500,2.87741748046875,-2.5620951652526855,12.276634216308594,-6.468227863311768
1789033780247343000,2.887343017578125,-4.550025939941406,10.926156997680664,-7.116361618041992
1789033780257268500,2.8972685546875,-6.031442165374756,13.932740211486816,-4.540471076965332
1789033780267193900,2.90719384765625,-1.8442615270614624,14.98535442352295,-1.750546932220459
1789033780277119500,2.917119384765625,0.9344398975372314,9.549459457397461,2.256394386291504
1789033780287044900,2.927044921875,-6.51162576675415,16.95409393310547,-0.5997066497802734
1789033780296970200,2.93697021484375,-0.0546988844871521,6.594740867614746,1.5991201400756836
1789033780306896000,2.946895751953125,1.1553887128829956,6.799307823181152,0.5272769927978516
1789033780316821200,2.9568212890625,2.0101866722106934,-4.133114337921143,-4.297094345092773
1789033780326746600,2.96674658203125,0.4721844792366028,-14.902183532714844,-12.0179443359375
1789033780336672300,2.97667236328125,-0.17600136995315552,-10.905324935913086,0.7105855941772461
1789033780346597600,2.98659765625,1.2248268127441406,-14.276501655578613,11.123897552490234
1789033780356523300,2.996523193359375,2.1568171977996826,-14.886421203613281,8.826654434204102
1789033780366448600,3.00644873046875,0.276260644197464,-14.169326782226562,6.986298561096191
1789033780376374000,3.0163740234375,1.4461677074432373,-14.136907577514648,6.487520217895508
1789033780386299600,3.026299560546875,1.7886028289794922,-11.389056205749512,6.110261917114258
1789033780396225000,3.03622509765625,0.9356697201728821,-7.942315101623535,4.181919097900391
1789033780406150400,3.046150390625,0.35322707891464233,-5.935510158538818,2.9469547271728516
1789033780416076000,3.056075927734375,0.0988084077835083,-4.942067623138428,2.2520017623901367
1789033780426001400,3.06600146484375,1.2559980154037476,-4.081982135772705,1.9728031158447266
1789033780435926800,3.0759267578125,0.5654622316360474,-3.206509590148926,0.9788856506347656
1789033780445852400,3.085852294921875,0.3255847692489624,-2.7189979553222656,-0.14118576049804688
1789033780455777800,3.09577783203125,0.2731531858444214,-1.514328956604004,-0.6922550201416016
1789033780465703400,3.105703369140625,-0.40004265308380127,-2.4753360748291016,-4.116016387939453
1789033780475628800,3.11562890625,0.434434175491333,-0.3465917110443115,-2.00620698928833
1789033780485554200,3.12555419921875,0.00843048095703125,0.4646115303039551,-0.16638565063476562
1789033780495479800,3.135479736328125,0.23161077499389648,0.3447532653808594,-0.48591136932373047
1789033780505405200,3.1454052734375,-0.2808467149734497,0.4546973705291748,-0.011864662170410156
1789033780515330600,3.15533056640625,-0.9128432273864746,-0.0628201961517334,-0.5649700164794922
1789033780525256200,3.165256103515625,-1.1246039867401123,-0.31276512145996094,-0.6769065856933594
1789033780535181600,3.175181640625,-0.2864001989364624,0.5702450275421143,1.8517236709594727
1789033780545107000,3.18510693359375,0.2210984230041504,1.2151646614074707,2.712775230407715
1789033780555032600,3.195032470703125,0.3333249092102051,0.8565547466278076,2.596379280090332
1789033780564958000,3.2049580078125,-0.14377069473266602,1.7681303024291992,3.7425737380981445
1789033780574883300,3.21488330078125,-0.08701658248901367,2.796466588973999,4.034626007080078
1789033780584809000,3.22480908203125,-0.6721940040588379,0.6276407241821289,0.6714859008789062
1789033780594734300,3.234734375,-1.2716856002807617,1.7593681812286377,1.3600225448608398
1789033780604660000,3.244659912109375,-1.4874852895736694,1.0616998672485352,0.22647666931152344
1789033780614585300,3.25458544921875,-1.171561360359192,1.6840126514434814,0.8956146240234375
1789033780624510700,3.2645107421875,-1.1450755596160889,1.010772705078125,0.2300853729248047
1789033780634436400,3.274436279296875,-3.4055733680725098,1.3748459815979004,1.036661148071289
1789033780644361700,3.28436181640625,-2.864572525024414,2.070528268814087,5.512899398803711
1789033780654287000,3.294287109375,-3.6766748428344727,2.742824077606201,7.9034833908081055
1789033780664212700,3.304212646484375,-1.44215726852417,0.6923565864562988,2.622194290161133
1789033780674138000,3.31413818359375,2.325681447982788,-1.8293375968933105,-1.234555721282959
1789033780684063500,3.3240634765625,-6.01852560043335,1.017688274383545,6.505549430847168
1789033780693989000,3.333989013671875,-15.011946678161621,1.9364573955535889,3.6112060546875
1789033780703914500,3.34391455078125,-4.248764514923096,-1.9414901733398438,0.5216789245605469
1789033780713840000,3.353840087890625,-1.3680297136306763,-3.5282764434814453,-3.337088108062744
1789033780723765500,3.363765625,-1.6418755054473877,-2.8169801235198975,-1.9735054969787598
1789033780733691000,3.37369091796875,-1.8781685829162598,-2.149322748184204,-0.91949462890625
1789033780743616500,3.383616455078125,-3.674056053161621,-2.127349615097046,-1.0684757232666016
1789033780753542000,3.3935419921875,-4.023756504058838,-2.335212230682373,-1.4780139923095703
1789033780763467300,3.40346728515625,-3.3872241973876953,-2.9515552520751953,-2.947084903717041
1789033780773393000,3.413392822265625,-2.2249584197998047,-3.718550443649292,-5.844871520996094
1789033780783318300,3.423318359375,0.9501078724861145,-3.6915431022644043,-8.024092674255371
1789033780793243600,3.43324365234375,3.453083038330078,-2.949491500854492,-8.199763298034668
1789033780803169300,3.443169189453125,5.802328109741211,-2.112828254699707,-8.17233657836914
1789033780813094700,3.4530947265625,7.963879585266113,-1.5828158855438232,-9.41085147857666
1789033780823020300,3.463020263671875,9.555461883544922,-1.1550967693328857,-11.327795028686523
1789033780832945700,3.472945556640625,11.274980545043945,-0.9297295808792114,-12.36063003540039
1789033780842871000,3.48287109375,12.028849601745605,0.004600882530212402,-10.36227035522461
1789033780852796700,3.492796630859375,11.295150756835938,-0.2735692262649536,-7.3241071701049805
1789033780862722000,3.50272216796875,12.330528259277344,-2.009336471557617,-5.035390377044678
1789033780872647400,3.5126474609375,11.909415245056152,-3.4107108116149902,-2.6363954544067383
1789033780882573000,3.522572998046875,10.646021842956543,-4.614439010620117,-0.10906696319580078
1789033780892498400,3.53249853515625,6.897992134094238,-4.201798915863037,3.159849166870117
1789033780902423800,3.542423828125,-21.493850708007812,-0.2666616439819336,14.226819038391113
1789033780912349400,3.552349365234375,-44.509342193603516,6.5204386711120605,16.849597930908203
1789033780922274800,3.56227490234375,-20.580934524536133,-0.21471095085144043,9.184617042541504
1789033780932200400,3.572200439453125,-2.1665964126586914,-4.461418151855469,6.185667991638184
1789033780942125800,3.582125732421875,-3.3092093467712402,-4.025849342346191,5.415304183959961
1789033780952051200,3.59205126953125,0.1107860803604126,-4.900895118713379,3.7358407974243164
1789033780961976800,3.601976806640625,0.9117791652679443,-3.4286515712738037,0.3610572814941406
1789033780971902200,3.611902099609375,0.859634280204773,-1.7693347930908203,-1.243448257446289
1789033780981827600,3.62182763671875,0.9845473170280457,1.2100551128387451,-1.2912864685058594
1789033780991753200,3.631753173828125,0.515080451965332,3.1534688472747803,-2.6432061195373535
1789033781001678600,3.6416787109375,0.392452597618103,4.512637615203857,-3.690134048461914
1789033781011604000,3.65160400390625,-0.5007394552230835,6.080191135406494,-2.9032320976257324
1789033781021529600,3.661529541015625,-2.445079803466797,6.695331573486328,-2.959869384765625
1789033781031455000,3.671455078125,-3.1830978393554688,7.244052410125732,-3.074044704437256
1789033781041380600,3.681380615234375,-2.516235589981079,6.614952087402344,-2.892794132232666
1789033781051306000,3.691305908203125,0.9538622498512268,9.027572631835938,-2.7919483184814453
1789033781061231400,3.7012314453125,-5.4601335525512695,2.896261215209961,-5.8427605628967285
1789033781071157000,3.711156982421875,-4.437249183654785,7.571126937866211,-2.473696708679199
1789033781081082400,3.721082275390625,-2.8935329914093018,3.258484363555908,-0.17701244354248047
1789033781091007700,3.7310078125,-2.0085692405700684,1.288297176361084,-1.3109230995178223
1789033781100933400,3.740933349609375,-2.573948621749878,0.7030730247497559,1.4044160842895508
1789033781110858800,3.750858642578125,2.0045716762542725,-2.959872245788574,2.3332767486572266
1789033781120784100,3.7607841796875,5.5162553787231445,-7.4872636795043945,5.793763160705566
1789033781130709800,3.770709716796875,1.1103627681732178,-6.921328544616699,3.742844581604004
1789033781140635100,3.78063525390625,-1.3454864025115967,-9.370338439941406,1.103703498840332
1789033781150560800,3.790560791015625,-9.576537132263184,-1.6825487613677979,-8.490140914916992
1789033781160486100,3.800486083984375,2.097167491912842,-26.025890350341797,-0.09035587310791016
1789033781170411500,3.81041162109375,11.319385528564453,-0.373138427734375,7.735739707946777
1789033781180337200,3.820337158203125,5.857917308807373,-11.572395324707031,7.856083869934082
1789033781190262500,3.830262451171875,3.4749045372009277,-10.181251525878906,7.47048282623291
1789033781200188000,3.84018798828125,1.9377121925354004,-12.679509162902832,4.519854545593262
1789033781210113500,3.850113525390625,-0.9279704093933105,-9.633866310119629,2.9912538528442383
1789033781220039000,3.860038818359375,-1.2832250595092773,-9.866949081420898,3.9654417037963867
1789033781229964300,3.86996435546875,-1.2942686080932617,-7.816551208496094,5.679574966430664
1789033781239890000,3.879889892578125,-2.6095404624938965,-7.596063613891602,4.376864433288574
1789033781249815300,3.889815185546875,-4.13310432434082,-8.261544227600098,3.256786346435547
1789033781259740700,3.89974072265625,-0.20913362503051758,-10.427483558654785,1.7732057571411133
1789033781269666300,3.909666259765625,1.7762147188186646,-9.814523696899414,0.9179191589355469
1789033781279591700,3.919591796875,0.2278296947479248,-8.480998039245605,2.4599857330322266
1789033781289517300,3.929517333984375,0.872857928276062,-4.880376815795898,3.7586326599121094
1789033781299442700,3.939442626953125,-0.10552215576171875,-7.521097660064697,0.23352909088134766
1789033781309368000,3.9493681640625,1.0814578533172607,-5.4965057373046875,-1.9811787605285645
1789033781319293700,3.959293701171875,3.0276193618774414,-2.994523048400879,4.6419219970703125
1789033781329219000,3.969218994140625,11.41862678527832,-3.0037121772766113,4.642961502075195
1789033781339144400,3.97914453125,-20.349098205566406,5.218205451965332,6.942391395568848
1789033781349070000,3.989070068359375,-10.080727577209473,6.4252777099609375,1.8692970275878906
1789033781358995500,3.998995361328125,-9.411749839782715,4.05345344543457,2.0197391510009766
1789033781368920800,4.0089208984375,0.24539121985435486,4.868815898895264,3.8551998138427734
1789033781378846500,4.018846435546875,24.55455207824707,-0.6146655082702637,-4.191030979156494
1789033781388771800,4.028771728515625,-20.405746459960938,10.309843063354492,-7.851531982421875
1789033781398697500,4.038697509765625,-0.1550784558057785,8.200322151184082,-3.5100574493408203
1789033781408622800,4.048622802734375,0.40590351819992065,6.016548156738281,-3.242187023162842
1789033781418548200,4.05854833984375,-3.8591184616088867,11.537714004516602,-4.924686431884766
1789033781428473900,4.068473876953125,-4.73921012878418,10.35188102722168,-7.105250358581543
1789033781438399200,4.078399169921875,-6.378233909606934,8.433290481567383,-6.435504913330078
1789033781448324600,4.08832470703125,-2.9488162994384766,7.663506984710693,-6.476451396942139
1789033781458250200,4.098250244140625,-2.262808084487915,7.003589153289795,-8.237598419189453
1789033781468175600,4.108175537109375,-3.0723912715911865,6.792598724365234,-9.912508010864258
1789033781478101000,4.11810107421875,-3.791661262512207,7.5571441650390625,-10.118965148925781
1789033781488026600,4.128026611328125,-2.4524364471435547,7.250444412231445,-10.733287811279297
1789033781497952000,4.137951904296875,-2.6042580604553223,8.536947250366211,-10.968738555908203
1789033781507877600,4.147877685546875,-1.0885945558547974,9.227476119995117,-7.070408344268799
1789033781517803000,4.157802978515625,-3.6097311973571777,8.550230026245117,-6.961596965789795
1789033781527728400,4.167728271484375,-6.115339279174805,5.358077049255371,-2.0400028228759766
1789033781537654000,4.177654052734375,-7.277297019958496,6.749504089355469,0.27720069885253906
1789033781547579400,4.187579345703125,-1.5443744659423828,0.9972649812698364,11.568543434143066
1789033781557504800,4.1975048828125,1.2021445035934448,0.49631428718566895,15.077459335327148
1789033781567430400,4.207430419921875,4.8538360595703125,-10.660816192626953,10.867780685424805
1789033781577355800,4.217355712890625,2.819648504257202,-13.986387252807617,2.593997001647949
1789033781587281200,4.22728125,2.595886707305908,-16.08202362060547,1.8610124588012695
1789033781597206800,4.237206787109375,1.4767227172851562,-17.10196304321289,3.5090999603271484
1789033781607132200,4.247132080078125,1.3257217407226562,-16.709558486938477,6.920494079589844
1789033781617057800,4.257057861328125,1.7863004207611084,-12.945313453674316,8.962333679199219
1789033781626983200,4.266983154296875,0.1398012638092041,-11.110279083251953,5.642754554748535
1789033781636908500,4.276908447265625,0.36598753929138184,-9.003429412841797,3.622528076171875
1789033781646834200,4.286834228515625,0.618849515914917,-7.537975311279297,0.8560342788696289
1789033781656759600,4.296759521484375,1.2502655982971191,-7.328885555267334,-1.3866519927978516
1789033781666685000,4.306684814453125,0.4708747863769531,-5.427646636962891,-1.471883773803711
1789033781676610600,4.316610595703125,-0.6632876396179199,-4.314669609069824,-1.4052481651306152
1789033781686536000,4.326535888671875,-1.1736912727355957,-3.2413277626037598,-1.0941781997680664
1789033781696461300,4.33646142578125,-0.32532644271850586,-2.391021251678467,-1.9024996757507324
1789033781728860000,4.36885986328125,1.0585505962371826,-8.609675407409668,-11.818758010864258
1789033781738785300,4.378785400390625,7.9776177406311035,-14.098865509033203,-21.529129028320312
1789033781748711000,4.3887109375,14.812755584716797,-15.897701263427734,-20.499746322631836
1789033781758636300,4.39863623046875,10.66235637664795,-12.627290725708008,-2.2157487869262695
1789033781768561700,4.408561767578125,3.3108229637145996,-4.035628795623779,10.516877174377441
1789033781778487300,4.4184873046875,5.147789478302002,-1.3899931907653809,8.344903945922852
1789033781788412700,4.42841259765625,1.946519136428833,0.06502008438110352,7.180577278137207
1789033781798338300,4.43833837890625,-16.381698608398438,24.525405883789062,50.19033432006836
1789033781808263700,4.448263671875,-9.147550582885742,11.969919204711914,24.207111358642578
1789033781818189000,4.45818896484375,-1.3812975883483887,7.344466686248779,6.637341022491455
1789033781828114200,4.4681142578125,2.6050710678100586,12.379471778869629,9.547882080078125
1789033781838039800,4.478039794921875,-0.5913131237030029,15.052509307861328,7.713002681732178
1789033781847965200,4.487965087890625,-2.3772830963134766,15.813623428344727,4.553750514984131
1789033781857890600,4.497890625,-2.3104681968688965,15.488042831420898,4.191788196563721
1789033781867816000,4.50781591796875,-0.31211066246032715,13.501312255859375,1.2438969612121582
1789033781877741600,4.517741455078125,0.9233412742614746,12.58940315246582,1.3580985069274902
1789033781887667000,4.5276669921875,1.0460230112075806,8.44164752960205,-1.727114200592041
1789033781897592600,4.537592529296875,-6.536936283111572,10.863094329833984,6.338820457458496
1789033781907518000,4.54751806640625,-5.3835625648498535,8.150890350341797,6.72257137298584
1789033781917443300,4.557443359375,2.5117263793945312,-0.7880606651306152,4.1313066482543945
1789033781927369000,4.567368896484375,4.556947708129883,-5.528456687927246,0.33630943298339844
1789033781937294300,4.57729443359375,-0.39839887619018555,-7.154751777648926,1.4729914665222168
1789033781947219700,4.5872197265625,1.1161248683929443,-10.371310234069824,-2.627805233001709
1789033781957145300,4.597145263671875,2.620783805847168,-12.750617027282715,-5.632184982299805
1789033781967070700,4.60707080078125,0.5709269046783447,-12.727898597717285,-4.819646835327148
1789033781976996000,4.61699609375,-2.900080680847168,-9.510356903076172,-3.742626190185547
1789033781986921700,4.626921630859375,2.548539638519287,13.183095932006836,10.032621383666992
1789033781996847000,4.63684716796875,4.693723678588867,-29.505186080932617,-2.75809383392334
1789033782006772500,4.6467724609375,-0.732170581817627,-14.867324829101562,-15.924736022949219
1789033782016698000,4.656697998046875,-0.4221625328063965,-10.174829483032227,-3.0214273929595947
1789033782026623500,4.66662353515625,0.4111752510070801,-6.760555744171143,0.06696224212646484
1789033782036548900,4.676548828125,-0.27652788162231445,-6.405545234680176,0.5727434158325195
1789033782046474500,4.686474609375,0.28837060928344727,-5.602086544036865,2.2849349975585938
1789033782056400000,4.69639990234375,0.7617068290710449,-4.392115592956543,1.955573558807373
1789033782066325200,4.7063251953125,0.28095078468322754,-2.7675905227661133,2.3933773040771484
1789033782076251000,4.7162509765625,-0.3081974983215332,-1.2034897804260254,-1.6582417488098145
1789033782086176300,4.72617626953125,-0.6024274826049805,2.0358729362487793,-2.8045296669006348
1789033782096101600,4.7361015625,-1.2826313972473145,2.532472848892212,-1.8542757034301758
1789033782106027300,4.74602734375,-0.855156421661377,1.688621997833252,-1.112562656402588
1789033782115952600,4.75595263671875,0.6446690559387207,4.125199317932129,0.7386579513549805
1789033782125878000,4.7658779296875,4.1582136154174805,1.8571293354034424,1.182701587677002
1789033782135803600,4.7758037109375,-1.1764445304870605,2.5292797088623047,0.19031620025634766
1789033782145729000,4.78572900390625,0.5946738719940186,2.398721694946289,0.404874324798584
1789033782155654700,4.795654541015625,1.3458240032196045,2.2644734382629395,1.155001163482666
1789033782165580000,4.805580078125,1.2462971210479736,1.7296028137207031,0.8674216270446777
1789033782175505400,4.81550537109375,1.494469165802002,1.5716485977172852,0.5755105018615723
1789033782185430800,4.8254306640625,1.318122148513794,1.1826047897338867,-0.2244853973388672
1789033782195356400,4.8353564453125,1.461491584777832,0.8779950141906738,-0.6157903671264648
1789033782205281800,4.84528173828125,2.315943717956543,3.9791860580444336,0.037448883056640625
1789033782215207400,4.85520751953125,2.3714590072631836,1.9347758293151855,-1.4728374481201172
1789033782225132800,4.8651328125,2.032985210418701,1.9103541374206543,-0.5813407897949219
1789033782235058200,4.87505810546875,0.7730886936187744,2.4663000106811523,-0.6882095336914062
1789033782244983800,4.88498388671875,0.5099797248840332,2.317288398742676,-0.15115928649902344
1789033782254909200,4.8949091796875,1.8673367500305176,4.591492652893066,-0.7792396545410156
1789033782264834600,4.90483447265625,0.8707864284515381,12.142829895019531,-0.5217556953430176
1789033782274760200,4.91476025390625,-1.115307092666626,17.251476287841797,-2.0806589126586914
1789033782284685600,4.924685546875,-0.7248623371124268,19.632984161376953,-2.3268303871154785
1789033782294611000,4.93461083984375,-3.6786048412323,19.636796951293945,-0.9787936210632324
1789033782304536600,4.94453662109375,-12.180964469909668,5.596915245056152,-3.5920276641845703
1789033782314462000,4.9544619140625,-0.5425558090209961,17.72426414489746,-1.6673407554626465
1789033782324387300,4.96438720703125,7.184525966644287,17.766260147094727,-2.085075855255127
1789033782334313000,4.97431298828125,18.59430694580078,-27.450729370117188,-2.508800983428955
1789033782344238300,4.98423828125,-0.6509683132171631,-12.372451782226562,-4.725584030151367
1789033782354163700,4.994163818359375,-5.158167839050293,34.78363037109375,-3.00042724609375
1789033782364089300,5.00408935546875,-7.329910755157471,16.03678321838379,-6.213555335998535
1789033782374014700,5.0140146484375,5.743799686431885,-11.983417510986328,-4.338186740875244
1789033782383940000,5.023940185546875,5.079991340637207,-43.12006378173828,5.148717403411865
1789033782393865700,5.03386572265625,-10.912151336669922,-47.29522705078125,17.19611358642578
1789033782403791000,5.043791015625,0.8600807189941406,-8.627168655395508,11.166481971740723
1789033782413716500,5.053716552734375,4.144883155822754,-11.14465045928955,6.86972713470459
1789033782423642000,5.06364208984375,3.201472282409668,-11.041051864624023,2.5413260459899902
1789033782433567500,5.0735673828125,-0.20036649703979492,-12.444938659667969,0.9777159690856934
1789033782443492900,5.083492919921875,-1.3374872207641602,-8.841304779052734,-0.782081127166748
1789033782453431800,5.093431884765625,-0.19001007080078125,-6.81698751449585,-0.35320329666137695
1789033782463357200,5.103357177734375,1.8100504875183105,-5.25157356262207,0.5364527702331543
1789033782473269200,5.113269287109375,3.731505870819092,-3.927818775177002,-0.26149606704711914
1789033782483195000,5.12319482421875,5.915283203125,-1.4189033508300781,-0.08976221084594727
1789033782493120300,5.133120361328125,0.8994135856628418,-0.5710797309875488,-0.11491060256958008
1789033782503045600,5.143045654296875,0.2849998474121094,0.4335002899169922,-0.4461522102355957
1789033782512971300,5.15297119140625,-3.2616753578186035,1.1576251983642578,0.34250307083129883
1789033782522896600,5.162896728515625,-2.4838242530822754,3.341693162918091,0.2907118797302246
1789033782532822000,5.172822021484375,-0.6902000904083252,3.229285717010498,0.7942557334899902
1789033782542747600,5.18274755859375,0.8836338520050049,2.0545754432678223,1.0692486763000488
1789033782552673000,5.192673095703125,1.4508812427520752,1.302940845489502,0.884861946105957
1789033782562598400,5.202598388671875,1.041229009628296,0.7934665679931641,0.6281876564025879
1789033782572524000,5.21252392578125,0.7251434326171875,0.05928516387939453,0.5387105941772461
1789033782582449400,5.222449462890625,0.94732666015625,-0.416928768157959,0.6020503044128418
1789033782592374800,5.232374755859375,1.003796100616455,-0.492551326751709,0.6718058586120605
1789033782602300400,5.242300537109375,0.9134993553161621,-0.6218733787536621,0.7205257415771484
1789033782612225800,5.252225830078125,1.0601468086242676,-0.48818206787109375,0.6898078918457031
1789033782622151400,5.2621513671875,1.581754446029663,-0.19374847412109375,0.28454017639160156
1789033782632076800,5.272076904296875,2.1118154525756836,0.044713497161865234,-0.626950740814209
1789033782642002200,5.282002197265625,1.7711820602416992,-0.054593563079833984,-0.8899059295654297
1789033782651927600,5.291927490234375,1.0715203285217285,-0.2893238067626953,-0.23962736129760742
1789033782661853200,5.301853271484375,0.43544769287109375,-0.7224526405334473,0.9678759574890137
1789033782671778600,5.311778564453125,1.184096336364746,-0.815117359161377,1.478896141052246
1789033782681704000,5.321703857421875,1.9837384223937988,-1.1734919548034668,0.9548115730285645
1789033782691629600,5.331629638671875,2.0535271167755127,-1.2459282875061035,-0.18789052963256836
1789033782701555000,5.341554931640625,1.282951831817627,-0.8673663139343262,-0.8633499145507812
1789033782711480600,5.35148046875,1.2325873374938965,-0.35372257232666016,-0.7876701354980469
1789033782721406000,5.361406005859375,1.4449658393859863,-0.13389825820922852,-0.5684905052185059
1789033782731331300,5.371331298828125,1.6307263374328613,-0.04026460647583008,-0.07018375396728516
1789033782741257000,5.381257080078125,1.825484275817871,-0.11388778686523438,0.20024347305297852
1789033782751182300,5.391182373046875,1.936798095703125,-0.34621381759643555,0.3361830711364746
1789033782761107700,5.401107666015625,1.5438671112060547,-0.554563045501709,0.4131045341491699
1789033782771033300,5.411033447265625,1.3070697784423828,-0.8700852394104004,0.4653797149658203
1789033782780958700,5.420958740234375,1.325429916381836,-0.9124755859375,0.731229305267334
1789033782790884000,5.430884033203125,1.74033784866333,-1.2467231750488281,0.3621516227722168
1789033782800809700,5.440809814453125,1.9575929641723633,-1.2627568244934082,-0.21692848205566406
1789033782810735000,5.450735107421875,1.4708445072174072,-1.0322957038879395,-0.5221982002258301
1789033782820660500,5.460660400390625,1.3935589790344238,-0.6971321105957031,-0.4352102279663086
1789033782830586000,5.470586181640625,1.8427186012268066,-0.5632376670837402,-0.23880434036254883
1789033782840511500,5.480511474609375,1.9926111698150635,-0.4907865524291992,0.21997690200805664
1789033782850436900,5.490436767578125,2.1746129989624023,-0.5250458717346191,0.6508121490478516
1789033782860362500,5.500362548828125,1.829313039779663,-0.7370138168334961,0.5431528091430664
1789033782870288000,5.510287841796875,1.4581575393676758,-0.7010397911071777,0.6394457817077637
1789033782880213200,5.520213134765625,1.4796128273010254,-0.6027116775512695,0.6065483093261719
1789033782890139000,5.530138916015625,1.5262951850891113,-0.29844141006469727,0.7451591491699219
1789033782900064300,5.540064208984375,1.4690093994140625,0.005465507507324219,0.9397029876708984
1789033782909989600,5.54998974609375,1.4877228736877441,-0.014274120330810547,0.8343181610107422
1789033782919915300,5.559915283203125,1.5676112174987793,-0.06699180603027344,0.6063199043273926
1789033782929840600,5.569840576171875,1.3104157447814941,-0.1797952651977539,0.709132194519043
1789033782939766300,5.579766357421875,1.37199068069458,-0.46774768829345703,0.9900836944580078
1789033782949691600,5.589691650390625,1.6793193817138672,-0.9088425636291504,1.1697354316711426
1789033782959617000,5.599616943359375,1.7459726333618164,-1.2717771530151367,1.0483098030090332
1789033782969542400,5.60954248046875,1.8239026069641113,-1.3212308883666992,0.8240952491760254
1789033782979468000,5.619468017578125,0.7858109474182129,-1.0934782028198242,1.2446036338806152
1789033782989393400,5.629393310546875,0.2464594841003418,-1.1371583938598633,2.2521681785583496
1789033782999319000,5.639319091796875,1.186323642730713,-1.263667106628418,3.0698485374450684
1789033783009244400,5.649244384765625,1.3651227951049805,-1.4651379585266113,3.307084560394287
1789033783019169800,5.659169677734375,2.0890307426452637,-1.6151642799377441,1.9161357879638672
1789033783029095400,5.669095458984375,1.8191170692443848,-1.2106633186340332,0.6866893768310547
1789033783039020800,5.679020751953125,1.278092384338379,-0.39101171493530273,0.5422968864440918
1789033783048946200,5.6889462890625,1.3934612274169922,-0.2958388328552246,0.49592018127441406
1789033783058871600,5.69887158203125,2.0081138610839844,-0.3432450294494629,0.41674041748046875
1789033783068797200,5.708797119140625,2.7423415184020996,-0.1842970848083496,0.10048151016235352
1789033783078722600,5.71872265625,2.8796494007110596,0.2713918685913086,-0.16425561904907227
1789033783088648200,5.728648193359375,2.788839101791382,0.43680286407470703,-0.28604602813720703
1789033783098573600,5.738573486328125,2.694563388824463,0.3039851188659668,0.18938922882080078
1789033783108499000,5.7484990234375,2.632091522216797,-0.23296499252319336,0.6094098091125488
1789033783118424600,5.758424560546875,3.0154407024383545,-0.681981086730957,0.8965492248535156
1789033783128350000,5.768349853515625,3.0580739974975586,-0.9632530212402344,0.7645764350891113
1789033783138275300,5.778275390625,2.686985492706299,-1.0101394653320312,0.44765329360961914
1789033783148201000,5.788200927734375,2.532749652862549,-0.8878192901611328,0.4898209571838379
1789033783158126300,5.798126220703125,2.479353427886963,-0.6704459190368652,0.7372236251831055
1789033783168051700,5.8080517578125,2.171243190765381,-0.722348690032959,0.6327166557312012
1789033783177977300,5.817977294921875,2.195435047149658,-0.9015355110168457,0.6339740753173828
1789033783187902700,5.82790283203125,1.8668303489685059,-2.089252471923828,0.8358588218688965
1789033783197828000,5.837828125,1.567441463470459,-3.0973496437072754,1.6593236923217773
1789033783207753700,5.847753662109375,1.352651596069336,-3.461958408355713,2.787173271179199
1789033783217679000,5.85767919921875,1.9039721488952637,-2.8663134574890137,3.3167567253112793
1789033783227604500,5.8676044921875,2.6835172176361084,-1.9753689765930176,2.575155735015869
1789033783237530000,5.877530029296875,1.8417580127716064,-0.9055566787719727,1.3446149826049805
1789033783247455500,5.88745556640625,0.5507326126098633,0.14669370651245117,1.125798225402832
1789033783257381000,5.897381103515625,0.6375360488891602,0.6958646774291992,1.5029335021972656
1789033783267306500,5.907306396484375,1.8094120025634766,0.4099111557006836,1.6036367416381836
1789033783277231900,5.91723193359375,2.5244197845458984,-0.0780801773071289,1.4609546661376953
1789033783287157500,5.927157470703125,2.5652661323547363,-0.5304274559020996,0.6255626678466797
1789033783297083000,5.937082763671875,1.4257919788360596,-0.8708486557006836,-0.20906305313110352
1789033783307008300,5.94700830078125,0.7994732856750488,-1.0221052169799805,-0.3655886650085449
1789033783316934000,5.956933837890625,0.9020695686340332,-0.7411632537841797,0.030513286590576172
1789033783326859300,5.966859375,2.054943561553955,-0.3552098274230957,0.05767250061035156
1789033783336784600,5.97678466796875,2.978727340698242,-0.36130475997924805,-0.32874059677124023
1789033783346710300,5.986710205078125,1.8169043064117432,-0.6876931190490723,0.19205617904663086
1789033783356635600,5.9966357421875,0.14566898345947266,-0.9828286170959473,2.484884262084961
1789033783366561000,6.00656103515625,-1.4353671073913574,-2.4933581352233887,6.150579929351807
1789033783376486700,6.016486572265625,0.2409052848815918,-4.362025737762451,7.742498397827148
1789033783386412000,6.026412109375,1.6579585075378418,-5.138491630554199,5.013180732727051
1789033783396337400,6.03633740234375,1.3833601474761963,-5.355140209197998,0.8590307235717773
1789033783406263000,6.046262939453125,0.6273155212402344,-4.602039337158203,-1.3553886413574219
1789033783416188400,6.0561884765625,-0.5460543632507324,-3.329176425933838,-1.1321492195129395
1789033783426113800,6.06611376953125,0.38659143447875977,-2.1179847717285156,0.5417318344116211
1789033783436039400,6.076039306640625,1.99446702003479,-1.6575894355773926,1.8933262825012207
1789033783445964800,6.08596484375,3.038442373275757,-1.3563203811645508,2.157830238342285
1789033783455890400,6.095890380859375,3.2165794372558594,-1.1541671752929688,1.3840785026550293
1789033783465815800,6.10581591796875,3.510253429412842,-0.7440090179443359,0.23879671096801758
1789033783475741200,6.1157412109375,3.0185294151306152,-0.3475675582885742,-1.355724811553955
1789033783485666800,6.125666748046875,2.9739930629730225,0.16237306594848633,-2.884012222290039
1789033783495592200,6.13559228515625,3.2116353511810303,0.7374606132507324,-3.923976182937622
1789033783505517600,6.145517578125,3.6652801036834717,1.7765538692474365,-3.983335494995117
1789033783515443200,6.155443115234375,3.4756393432617188,2.715466022491455,-3.757174491882324
1789033783525368600,6.16536865234375,2.5351006984710693,2.693021774291992,-3.163163423538208
1789033783535294000,6.1752939453125,2.1400086879730225,2.0982067584991455,-2.066037178039551
1789033783545219600,6.185219482421875,2.8349037170410156,1.4654350280761719,-0.7986583709716797
1789033783555145000,6.19514501953125,3.5602481365203857,1.6242871284484863,0.5285000801086426
1789033783565070300,6.2050703125,3.2418694496154785,1.3381636142730713,0.6011857986450195
1789033783574996000,6.214995849609375,3.7789974212646484,-0.18854665756225586,0.013704299926757812
1789033783584921300,6.22492138671875,2.556692361831665,-0.8849959373474121,1.0815553665161133
1789033783594847000,6.234846923828125,-0.18023204803466797,-0.3758859634399414,3.793272018432617
1789033783604772400,6.2447724609375,-1.2142200469970703,-1.6736392974853516,5.6833977699279785
1789033783614697700,6.25469775390625,0.972684383392334,-3.5659914016723633,4.895870685577393
1789033783624623400,6.264623291015625,2.6808688640594482,-3.3647589683532715,2.2087912559509277
1789033783634548700,6.274548828125,1.0384516716003418,-1.0708675384521484,0.7903504371643066
1789033783644474000,6.28447412109375,-1.826432704925537,0.1977076530456543,0.9134407043457031
1789033783654399700,6.294399658203125,-1.530289649963379,0.3671455383300781,1.8193001747131348
1789033783664325000,6.3043251953125,2.416501998901367,-1.1172451972961426,1.5919747352600098
1789033783674250800,6.314250732421875,4.4776811599731445,-2.639789581298828,0.9578113555908203
1789033783684176100,6.324176025390625,3.443765640258789,-3.1552138328552246,0.29461097717285156
1789033783694101500,6.3341015625,1.1387839317321777,-2.906005859375,0.30625295639038086
1789033783704027100,6.344027099609375,-0.9364304542541504,-2.658435344696045,0.1785416603088379
1789033783713952500,6.353952392578125,-0.977637767791748,-3.2834653854370117,0.10007715225219727
1789033783723878000,6.3638779296875,1.734179973602295,-4.0293097496032715,-0.20021963119506836
1789033783733803500,6.373803466796875,4.430327415466309,-3.3608059883117676,-1.6317248344421387
1789033783743729000,6.38372900390625,4.032317638397217,-1.1708416938781738,-2.6968610286712646
1789033783753654300,6.393654296875,1.235933780670166,0.3262920379638672,-2.2624354362487793
1789033783763580000,6.403579833984375,-0.741518497467041,0.6464133262634277,0.12674379348754883
1789033783773505300,6.41350537109375,0.8838310241699219,-0.12987232208251953,2.825291633605957
1789033783783431000,6.423430908203125,5.0192975997924805,-2.151744842529297,3.012359619140625
1789033783793356300,6.433356201171875,5.160907745361328,-3.217407703399658,0.47000885009765625
1789033783803281700,6.44328173828125,2.005556583404541,-2.729299545288086,-2.3541154861450195
1789033783813207300,6.453207275390625,-0.11833906173706055,-1.1705656051635742,-3.3440065383911133
1789033783823132700,6.463132568359375,2.4706084728240967,-0.27111101150512695,-4.642953872680664
1789033783833058000,6.47305810546875,4.146143913269043,0.560523509979248,-5.689871788024902
1789033783842983700,6.482983642578125,2.407656669616699,1.6014394760131836,-5.343777179718018
1789033783852909000,6.492908935546875,1.058342456817627,2.040802001953125,-3.6087276935577393
1789033783862834400,6.50283447265625,0.516420841217041,1.647803783416748,-0.1308126449584961
1789033783872760000,6.512760009765625,0.04050636291503906,0.4346909523010254,3.3639421463012695
1789033783882685400,6.522685546875,0.3303966522216797,-0.873112678527832,6.108460426330566
1789033783892611000,6.532611083984375,1.1552183628082275,-1.4805684089660645,6.309628963470459
1789033783902536400,6.542536376953125,-0.004654407501220703,-1.9414539337158203,4.649243354797363
1789033783912461800,6.5524619140625,-1.2770366668701172,-1.9364995956420898,3.29904842376709
1789033783922387500,6.562387451171875,-2.055758476257324,-1.3768715858459473,4.013616561889648
1789033783932312800,6.572312744140625,-1.7206106185913086,-0.8342204093933105,3.5130085945129395
1789033783942238200,6.58223828125,-1.7812409400939941,-0.3233070373535156,3.3485236167907715
1789033783952163800,6.592163818359375,-1.4013299942016602,-0.05599164962768555,2.5051612854003906
1789033783962089200,6.602089111328125,-0.601198673248291,-0.16262102127075195,0.7993988990783691
1789033783972014600,6.6120146484375,0.20162153244018555,-0.6402511596679688,-0.34837961196899414
1789033783981940200,6.621940185546875,0.6360936164855957,-1.2094974517822266,-0.5188808441162109
1789033783991865600,6.631865478515625,0.5619218349456787,-1.6182713508605957,0.3052787780761719
1789033784001791200,6.641791259765625,-0.02124786376953125,-2.0887675285339355,1.5675530433654785
1789033784011716600,6.651716552734375,-0.6315641403198242,-2.4207348823547363,2.684065818786621
1789033784021642000,6.66164208984375,-0.5990471839904785,-2.638331413269043,2.526275157928467
1789033784031567600,6.671567626953125,-1.5303359031677246,-3.4694128036499023,2.041111469268799
1789033784041493000,6.681492919921875,-1.3923487663269043,-3.600977897644043,1.086860179901123
1789033784051418400,6.69141845703125,-0.21220827102661133,-3.2261366844177246,0.23482131958007812
1789033784061344000,6.701343994140625,0.4409613609313965,-2.401089668273926,0.5555362701416016
1789033784071269400,6.711269287109375,0.8254604339599609,-1.5286979675292969,1.4246392250061035
1789033784081194800,6.72119482421875,1.0444352626800537,-1.0837159156799316,2.5302767753601074
1789033784091120400,6.731120361328125,0.6520123481750488,-1.1261744499206543,3.489467144012451
1789033784101045800,6.741045654296875,0.03416013717651367,-1.4353089332580566,3.2425169944763184
1789033784110971400,6.750971435546875,-0.017524242401123047,-1.6579203605651855,2.3040599822998047
1789033784120896800,6.760896728515625,0.5403380393981934,-1.9149723052978516,1.4648380279541016
1789033784130822100,6.770822265625,0.8576614856719971,-1.852123737335205,1.0381598472595215
1789033784140747800,6.780747802734375,0.6666131019592285,-1.7032084465026855,1.0149526596069336
1789033784150673200,6.790673095703125,0.0843963623046875,-1.5051393508911133,1.0424885749816895
1789033784160598800,6.800598876953125,-0.44433069229125977,-1.5660054683685303,1.3410558700561523
1789033784170524200,6.810524169921875,-0.749598503112793,-1.7281482219696045,1.5746850967407227
1789033784180449500,6.820449462890625,-0.5635547637939453,-2.201859474182129,1.4736814498901367
1789033784190375200,6.830375244140625,0.28806304931640625,-2.3167314529418945,1.082350730895996
1789033784200300500,6.840300537109375,1.0546693801879883,-2.5313146114349365,0.15749835968017578
1789033784210226000,6.850225830078125,2.300257921218872,-2.6255710124969482,-0.9415421485900879
1789033784220151600,6.860151611328125,3.1040077209472656,-2.1455862522125244,-1.6932415962219238
1789033784230077000,6.870076904296875,3.160111904144287,-1.4902076721191406,-2.3943986892700195
1789033784240002300,6.880002197265625,2.8435440063476562,-0.48772525787353516,-2.727977752685547
1789033784249928000,6.889927978515625,2.3341007232666016,-0.75107741355896,-3.5055084228515625
1789033784259853300,6.899853271484375,2.150057554244995,-0.8672173023223877,-3.661743640899658
1789033784269778700,6.90977880859375,1.5359172821044922,-0.8908765316009521,-3.7559814453125
1789033784279704300,6.919704345703125,2.4020578861236572,-0.7700399160385132,-3.975388526916504
1789033784289629700,6.929629638671875,3.4278087615966797,0.48583245277404785,-3.423783779144287
1789033784299555300,6.939555419921875,3.0556740760803223,-1.2568373680114746,-5.001677989959717
1789033784309480700,6.949480712890625,1.429704189300537,-0.8177616596221924,-3.7608823776245117
1789033784319406300,6.95940625,0.36771154403686523,0.11256873607635498,-2.392427444458008
1789033784329331700,6.969331787109375,1.0289645195007324,0.07404863834381104,-1.9809131622314453
1789033784339257000,6.979257080078125,2.198516845703125,-0.44500458240509033,-2.3046998977661133
1789033784349182700,6.9891826171875,2.4435811042785645,-0.9334709644317627,-3.2474117279052734
1789033784359108000,6.999108154296875,2.103518009185791,-0.9852795600891113,-4.206178188323975
1789033784369033500,7.009033447265625,1.4363329410552979,-0.7736152410507202,-4.685234546661377
1789033784378959000,7.018958984375,1.0998821258544922,-0.00317227840423584,-4.859553337097168
1789033784388884500,7.028884521484375,1.1002745628356934,0.6825497150421143,-4.778012275695801
1789033784398809900,7.038809814453125,1.6036732196807861,0.8966870307922363,-4.519251823425293
1789033784408735500,7.048735595703125,2.872920274734497,0.4875267744064331,-4.6449689865112305
1789033784418660900,7.058660888671875,2.895561695098877,0.17544078826904297,-4.3837480545043945
1789033784428586200,7.068586181640625,1.5839524269104004,0.40842103958129883,-3.242330551147461
1789033784438511900,7.078511962890625,0.6097850799560547,0.8152576684951782,-1.9954991340637207
1789033784448437200,7.088437255859375,0.7052392959594727,0.988746166229248,-1.8168153762817383
1789033784458363000,7.09836279296875,1.013397216796875,0.8121395111083984,-2.483227252960205
1789033784468288300,7.108288330078125,1.4699132442474365,0.43950581550598145,-3.188288688659668
1789033784478213600,7.118213623046875,1.5757465362548828,0.11062955856323242,-3.3808321952819824
1789033784488139300,7.12813916015625,0.9054107666015625,0.1366746425628662,-2.6138925552368164
1789033784498064600,7.138064697265625,0.38294553756713867,0.42569708824157715,-1.0658082962036133
1789033784507990300,7.147990234375,0.3789701461791992,0.19822311401367188,0.013669013977050781
1789033784517915600,7.15791552734375,-0.03891468048095703,-0.5136289596557617,0.5847063064575195
1789033784527841000,7.167841064453125,-0.3944091796875,-1.236619472503662,1.1347708702087402
1789033784537766700,7.1777666015625,-0.31246519088745117,-2.002394676208496,1.5976934432983398
1789033784547692000,7.187692138671875,-0.36194896697998047,-2.533114433288574,1.8594160079956055
1789033784557617400,7.197617431640625,-0.25394582748413086,-2.7777628898620605,1.7920937538146973
1789033784567543000,7.20754296875,-0.15804290771484375,-2.563472270965576,1.5871319770812988
1789033784577468400,7.217468505859375,0.5505881309509277,-2.526482582092285,1.3343524932861328
1789033784587393800,7.227393798828125,0.6313269138336182,-2.5185866355895996,1.0281996726989746
1789033784597319400,7.2373193359375,-0.31041550636291504,-2.2902560234069824,1.243166446685791
1789033784607244800,7.247244873046875,-1.4393017292022705,-1.5861263275146484,2.500108242034912
1789033784617170400,7.25717041015625,-1.195751667022705,-1.3246259689331055,3.3078951835632324
1789033784627095800,7.267095703125,0.44228553771972656,-1.5435662269592285,2.587435722351074
1789033784637021400,7.277021484375,1.1730215549468994,-1.9068546295166016,1.0043110847473145
1789033784646946800,7.28694677734375,0.24139142036437988,-1.4916744232177734,-0.3449678421020508
1789033784656872200,7.2968720703125,-1.6144640445709229,-0.22474956512451172,-0.08897590637207031
1789033784666797800,7.3067978515625,-2.5037238597869873,0.7307953834533691,0.6589775085449219
1789033784676723200,7.31672314453125,-1.601228952407837,0.8965792655944824,1.9515714645385742
1789033784686648600,7.326648681640625,-0.955528974533081,0.007959842681884766,3.3146581649780273
1789033784696574200,7.33657421875,-1.6691670417785645,-0.8467402458190918,3.9368128776550293
1789033784706499600,7.34649951171875,-1.4521794319152832,-1.1012792587280273,4.17952823638916
1789033784716425000,7.356425048828125,-0.8815982341766357,-1.0819849967956543,3.8178234100341797
1789033784726350600,7.3663505859375,-0.5666205883026123,-1.0429973602294922,2.3629651069641113
1789033784736276000,7.37627587890625,-0.7271392345428467,-0.6348328590393066,1.4097576141357422
1789033784746201300,7.386201416015625,-1.741107702255249,-0.08511543273925781,1.2087316513061523
1789033784756127000,7.396126953125,-2.7149791717529297,0.3146500587463379,1.742232322692871
1789033784766052400,7.40605224609375,-2.9208085536956787,-0.11425447463989258,2.1604809761047363
1789033784775978000,7.41597802734375,-2.6356430053710938,-0.7051572799682617,1.9914922714233398
1789033784785903400,7.4259033203125,-2.7840471267700195,-0.8413553237915039,1.499028205871582
1789033784795829000,7.4358291015625,-4.1980814933776855,-0.3872814178466797,1.9624114036560059
1789033784805754400,7.44575439453125,-2.5827760696411133,-0.25554323196411133,2.3117928504943848
1789033784815679700,7.4556796875,0.5774824619293213,0.0996861457824707,3.02181339263916
1789033784825605400,7.46560546875,3.6285200119018555,0.061324119567871094,2.220865249633789
1789033784835530800,7.47553076171875,4.82914400100708,-1.008148193359375,-0.3960433006286621
1789033784845456100,7.4854560546875,3.5770013332366943,-2.2563915252685547,-2.5079898834228516
1789033784855381800,7.4953818359375,0.6134896278381348,-2.057982921600342,-2.3799099922180176
1789033784865307100,7.50530712890625,-1.8908374309539795,-1.2925701141357422,-1.4503087997436523
1789033784875232500,7.515232421875,-2.861506462097168,-0.5246696472167969,-0.7174372673034668
1789033784885158100,7.525158203125,-3.0902700424194336,-0.04888105392456055,0.09771060943603516
1789033784895083500,7.53508349609375,-2.506117582321167,-0.013887405395507812,0.8732485771179199
1789033784905009000,7.5450087890625,-1.2877910137176514,-0.08884286880493164,1.2195606231689453
1789033784914934500,7.5549345703125,-0.4813520908355713,-0.5872430801391602,1.719794750213623
1789033784924860000,7.56485986328125,0.8456883430480957,-1.2009468078613281,2.754054069519043
1789033784934785500,7.57478564453125,1.8696184158325195,-1.4522995948791504,3.9189162254333496
1789033784944711000,7.5847109375,2.7731456756591797,-1.3778419494628906,3.717360496520996
1789033784954636500,7.594636474609375,2.628225326538086,-1.40342378616333,2.813652992248535
1789033784964562000,7.60456201171875,-0.4208977222442627,-1.7839093208312988,0.5135278701782227
1789033784974487300,7.6144873046875,-1.9847590923309326,-1.1279191970825195,-0.38832664489746094
1789033784984413000,7.624412841796875,-2.8706564903259277,-0.49085330963134766,-0.8657951354980469
1789033784994338300,7.63433837890625,-3.4847373962402344,-0.0492706298828125,-1.0262508392333984
1789033785004263700,7.644263671875,-3.508535861968994,0.04035329818725586,-0.7386293411254883
1789033785014189300,7.654189208984375,-2.5589170455932617,-0.12013483047485352,0.0888204574584961
1789033785024114700,7.66411474609375,-1.18528413772583,-0.3647136688232422,1.2413663864135742
1789033785034040000,7.6740400390625,0.6219935417175293,-0.8848578929901123,2.2800960540771484
1789033785043965700,7.683965576171875,1.9321463108062744,-1.3467912673950195,3.0332984924316406
1789033785053891000,7.69389111328125,1.9712295532226562,-2.2828617095947266,2.26456356048584
1789033785063816700,7.703816650390625,1.2071642875671387,-2.7501091957092285,0.8544454574584961
1789033785073742000,7.7137421875,0.20820856094360352,-2.6732425689697266,-0.34899425506591797
1789033785083667500,7.72366748046875,-0.12500762939453125,-2.2357444763183594,-1.8450613021850586
1789033785093593000,7.733593017578125,1.3395867347717285,-1.6179378032684326,-2.8075151443481445
1789033785103518500,7.7435185546875,3.5570287704467773,-1.2151758670806885,-3.3627185821533203
1789033785113444000,7.753444091796875,4.322843074798584,-0.9841256141662598,-3.3146142959594727
1789033785123369500,7.763369384765625,2.8864946365356445,-0.783562421798706,-3.2777090072631836
1789033785133294800,7.773294921875,1.1126761436462402,-0.6657788753509521,-3.7032718658447266
1789033785143220500,7.783220458984375,1.0859456062316895,-0.09358048439025879,-4.069613456726074
1789033785153145900,7.793145751953125,2.069133996963501,-0.7757928371429443,-5.078838348388672
1789033785163071200,7.8030712890625,2.064885377883911,-0.305070161819458,-4.038370132446289
1789033785172996900,7.812996826171875,2.287384033203125,-0.6748394966125488,-4.121781349182129
1789033785182922200,7.822922119140625,2.40681791305542,-0.6562042236328125,-4.478684425354004
1789033785192847600,7.83284765625,1.8097944259643555,-0.2322220802307129,-4.956389427185059
1789033785202773200,7.842773193359375,2.0806400775909424,-0.37935304641723633,-5.355783939361572
1789033785212698600,7.85269873046875,1.2500624656677246,0.9998269081115723,-4.53637170791626
1789033785222624300,7.862624267578125,1.6958403587341309,0.7427064180374146,-4.325808525085449
1789033785232549600,7.872549560546875,1.9343152046203613,0.7316625118255615,-3.9502391815185547
1789033785242475000,7.88247509765625,1.2609801292419434,0.6932687759399414,-3.6564555168151855
1789033785252400600,7.892400634765625,0.6364731788635254,0.7423510551452637,-3.413982391357422
1789033785262326000,7.902325927734375,1.0680475234985352,0.42450809478759766,-3.2252540588378906
1789033785272251400,7.91225146484375,1.3093726634979248,0.22858095169067383,-2.9193220138549805
1789033785282177000,7.922177001953125,1.060692310333252,0.035376548767089844,-2.742950439453125
1789033785292102400,7.932102294921875,0.13998126983642578,0.14252066612243652,-2.5605363845825195
1789033785302028000,7.942028076171875,-0.35683345794677734,0.23565006256103516,-2.5018129348754883
1789033785311953400,7.951953369140625,-0.27158164978027344,0.30840110778808594,-2.2577972412109375
1789033785321878800,7.961878662109375,-0.1938333511352539,0.2933673858642578,-1.928257942199707
1789033785331804400,7.971804443359375,0.07265472412109375,0.10329437255859375,-1.6151313781738281
1789033785341729800,7.981729736328125,0.6231522560119629,-0.4497663974761963,-1.6285085678100586
1789033785351655200,7.9916552734375,0.5329887866973877,-0.7799661159515381,-1.3548593521118164
1789033785361580800,8.001580810546875,-0.5194933414459229,-0.8644709587097168,-0.6639442443847656
1789033785371506200,8.011506103515625,-1.7567472457885742,-0.8465490341186523,0.15989398956298828
1789033785381431600,8.021431640625,-2.2647180557250977,-0.9333820343017578,0.8206830024719238
1789033785391357200,8.031357177734375,-1.626164436340332,-1.3283333778381348,1.1982288360595703
1789033785401282600,8.041282470703125,-0.912822961807251,-1.7040071487426758,1.3819451332092285
1789033785411208200,8.051208251953126,0.3209259510040283,-1.9085087776184082,1.3702311515808105
1789033785421133600,8.061133544921875,0.7233500480651855,-2.1995644569396973,1.2027268409729004
1789033785431059000,8.071058837890625,0.4667060375213623,-2.264474391937256,1.0232329368591309
1789033785440984600,8.080984619140626,-0.24399113655090332,-2.200383186340332,1.1609926223754883
1789033785450910000,8.090909912109375,-0.850938081741333,-1.64863920211792,1.4975824356079102
1789033785460835300,8.10083544921875,-1.0368931293487549,-1.0682334899902344,1.802854061126709
1789033785470761000,8.110760986328126,-0.6642718315124512,-0.6703643798828125,1.7135319709777832
1789033785480686300,8.120686279296875,-0.6174774169921875,-0.40178442001342773,1.7154302597045898
1789033785490612000,8.130612060546875,-0.7694206237792969,-0.34462928771972656,1.6618995666503906
1789033785500537300,8.140537353515626,-0.5149784088134766,-0.6710391044616699,1.3479413986206055
1789033785510462700,8.150462646484375,-1.1240854263305664,-0.4417262077331543,1.377458095550537
1789033785520388400,8.160388427734375,-1.502681016921997,-0.04908323287963867,2.0060906410217285
1789033785530313700,8.170313720703126,-1.093313455581665,-0.19107294082641602,2.525771141052246
1789033785540239000,8.180239013671875,-1.0947265625,-0.7705802917480469,2.5495433807373047
1789033785550164700,8.190164794921875,-0.9724364280700684,-1.0846610069274902,2.5267601013183594
1789033785560090000,8.200090087890626,-0.8212895393371582,-1.1302518844604492,2.850533962249756
1789033785570015700,8.210015625,-0.8944239616394043,-0.9716496467590332,3.1909360885620117
1789033785579941000,8.219941162109375,-0.9378838539123535,-0.5915284156799316,3.213618278503418
1789033785589866500,8.229866455078126,-0.8527848720550537,-0.2698812484741211,3.1058082580566406
1789033785599792000,8.239792236328125,-0.8737397193908691,-0.02960491180419922,2.6977643966674805
1789033785609717500,8.249717529296875,-1.174584150314331,0.17975521087646484,2.4335670471191406
1789033785619643000,8.259642822265626,-0.8894758224487305,0.22628402709960938,2.137906551361084
1789033785629568500,8.269568603515625,-0.7899661064147949,0.16427087783813477,1.8618364334106445
1789033785639494000,8.279493896484375,-1.1576831340789795,0.04784870147705078,1.7425389289855957
1789033785649419300,8.289419189453126,-1.608029842376709,-0.34894609451293945,1.7251520156860352
1789033785659345000,8.299344970703125,-1.4711973667144775,-0.6696100234985352,1.2709393501281738
1789033785669270300,8.309270263671875,-0.9278020858764648,-0.40206241607666016,0.7833685874938965
1789033785679196000,8.31919580078125,-0.15559053421020508,-0.06572246551513672,0.1801605224609375
1789033785689121000,8.32912109375,0.9404575824737549,0.0692591667175293,-0.2153787612915039
1789033785736126500,8.37612646484375,-0.3560049533843994,-0.2909412384033203,1.0961012840270996
1789033785746051800,8.3860517578125,-0.29662370681762695,-0.5683722496032715,1.5994391441345215
1789033785755977500,8.3959775390625,0.20211315155029297,-0.7625226974487305,1.9043402671813965
1789033785765902800,8.40590283203125,0.6341309547424316,-1.0373940467834473,2.292647361755371
1789033785775828200,8.415828125,0.6968228816986084,-1.3415350914001465,2.9294943809509277
1789033785785753900,8.42575390625,0.7123165130615234,-1.4632782936096191,2.9154534339904785
1789033785795679700,8.4356796875,1.0683860778808594,-1.2626924514770508,2.5303754806518555
1789033785805605400,8.44560546875,1.145106315612793,-1.0751900672912598,1.7889275550842285
1789033785815530800,8.45553076171875,1.1135952472686768,-0.7120208740234375,1.6599717140197754
1789033785825456000,8.4654560546875,-0.058287858963012695,-0.7744441032409668,0.8555951118469238
1789033785835381800,8.4753818359375,-1.3753890991210938,-1.2205629348754883,0.4740128517150879
1789033785845307100,8.48530712890625,-1.9773669242858887,-1.5382719039916992,0.5767421722412109
1789033785855232500,8.495232421875,-1.2783660888671875,-1.8034377098083496,0.6296548843383789
1789033785865158100,8.505158203125,-0.26348209381103516,-1.997215747833252,0.6275568008422852
1789033785875083500,8.51508349609375,0.2415456771850586,-2.008668899536133,0.5361156463623047
1789033785885009000,8.5250087890625,0.5023236274719238,-1.869398593902588,0.44833850860595703
1789033785894934500,8.5349345703125,0.6916744709014893,-1.8951904773712158,0.09505367279052734
1789033785904860000,8.54485986328125,0.9900383949279785,-1.9211440086364746,-0.8945751190185547
1789033785914785500,8.55478564453125,1.469571590423584,-1.5094866752624512,-0.9395885467529297
1789033785924711000,8.5647109375,1.548295259475708,-1.2401363849639893,-0.5063776969909668
1789033785934636300,8.57463623046875,1.5487775802612305,-1.1895136833190918,-0.44144153594970703
1789033785944562000,8.58456201171875,1.439016342163086,-0.9143259525299072,-0.6965103149414062
1789033785954487300,8.5944873046875,1.5441162586212158,-0.532351016998291,-1.5683093070983887
1789033785964412700,8.60441259765625,1.8972561359405518,-0.7470872402191162,-2.3907008171081543
1789033785974338300,8.61433837890625,2.9797329902648926,-1.0313305854797363,-3.4906492233276367
1789033785984263700,8.624263671875,4.153739929199219,-0.6999626159667969,-3.8883328437805176
1789033785994189000,8.63418896484375,3.83467960357666,-0.12200379371643066,-3.8100781440734863
1789033786004114700,8.64411474609375,2.2601282596588135,0.11357951164245605,-3.604440212249756
1789033786014040000,8.6540400390625,1.2062208652496338,-0.2793099880218506,-3.9381585121154785
1789033786023965700,8.663965576171876,1.7872364521026611,-0.39678430557250977,-3.3737082481384277
1789033786033891000,8.67389111328125,2.8388161659240723,-0.8515737056732178,-3.823330879211426
1789033786043816400,8.68381640625,2.966005563735962,-0.3294517993927002,-3.824812889099121
1789033786053742000,8.6937421875,2.9492599964141846,-0.033200979232788086,-4.247563362121582
1789033786063667500,8.70366748046875,2.189237117767334,0.23096859455108643,-4.921846389770508
1789033786073592800,8.7135927734375,1.6179273128509521,0.4242037534713745,-5.014078140258789
1789033786083518500,8.7235185546875,1.063906192779541,0.6430562734603882,-3.9435629844665527
1789033786093443800,8.73344384765625,0.8329753875732422,0.770315408706665,-3.0786843299865723
1789033786103369200,8.743369140625,1.1948156356811523,0.5916653871536255,-2.722202777862549
1789033786113294800,8.753294921875,2.0371055603027344,0.30454397201538086,-3.286118507385254
1789033786123220200,8.76322021484375,2.0589635372161865,0.1294236183166504,-3.739710807800293
1789033786133145900,8.773145751953125,1.570847988128662,-0.1057283878326416,-4.0070977210998535
1789033786143071200,8.7830712890625,0.7992095947265625,-0.047228097915649414,-3.654902935028076
1789033786152996600,8.79299658203125,0.4644598960876465,-0.07623100280761719,-3.231790065765381
1789033786162922200,8.802922119140625,0.5739846229553223,0.11156702041625977,-2.544675827026367
1789033786172847600,8.81284765625,0.5336501598358154,0.21879076957702637,-1.9877076148986816
1789033786182773000,8.82277294921875,0.2007594108581543,0.2417891025543213,-1.2465705871582031
1789033786192698600,8.83269873046875,-0.40532588958740234,0.2870759963989258,-0.23965215682983398
1789033786202624000,8.8426240234375,-0.6517829895019531,-0.2093181610107422,0.3551321029663086
1789033786212549400,8.85254931640625,-0.41440629959106445,-0.9576618671417236,0.7930850982666016
1789033786222475000,8.86247509765625,-0.21120309829711914,-1.7273778915405273,0.9550313949584961
1789033786232400400,8.872400390625,-0.28781843185424805,-2.037571907043457,1.2528624534606934
1789033786242326000,8.882325927734374,-0.38057494163513184,-2.2588086128234863,0.8834385871887207
1789033786252251400,8.89225146484375,-0.2635183334350586,-2.3752012252807617,0.6091508865356445
1789033786262176800,8.9021767578125,-0.06414103507995605,-2.183927536010742,0.6042370796203613
1789033786272102400,8.912102294921874,-0.06381082534790039,-1.8180885314941406,0.6927938461303711
1789033786282027800,8.92202783203125,0.3050196170806885,-1.5725350379943848,1.2780604362487793
1789033786291953200,8.931953125,0.7457411289215088,-1.576512336730957,1.5770630836486816
1789033786301878800,8.941878662109374,1.1192607879638672,-1.5301594734191895,1.5794281959533691
1789033786311804200,8.95180419921875,1.3760061264038086,-1.1779842376708984,1.079047679901123
1789033786321729500,8.9617294921875,0.6494965553283691,-0.6397213935852051,0.9735927581787109
1789033786331655000,8.971655029296874,-0.4250659942626953,-0.05681610107421875,1.2706141471862793
1789033786341580500,8.98158056640625,-1.2736213207244873,0.5684857368469238,1.5202326774597168
1789033786351506000,8.991505859375,-0.5976674556732178,0.7351078987121582,2.15482234954834
1789033786361431300,9.001431396484374,-0.2086014747619629,0.09167242050170898,2.0545434951782227
1789033786371356700,9.011356689453125,-0.21958637237548828,-0.5176572799682617,2.127319812774658
1789033786381282000,9.021281982421876,0.38245224952697754,-0.7263998985290527,2.5075302124023438
1789033786391207400,9.03120751953125,-0.0034770965576171875,-0.9142961502075195,2.511873722076416
1789033786401132800,9.0411328125,-0.9119007587432861,-0.7820029258728027,2.633427619934082
1789033786411058400,9.051058349609375,-1.6737771034240723,-0.3709287643432617,2.5531725883483887
1789033786420983800,9.06098388671875,-1.6860957145690918,-0.1726970672607422,2.2773823738098145
1789033786430909200,9.0709091796875,-1.4587907791137695,0.038401126861572266,2.3407340049743652
1789033786440834800,9.080834716796875,-1.7622573375701904,0.02733755111694336,2.9908323287963867
1789033786450760200,9.09076025390625,-1.476745367050171,-0.5690999031066895,3.5860815048217773
1789033786460685600,9.100685546875,-0.936281681060791,-1.198288917541504,3.4161391258239746
1789033786470611200,9.110611083984375,-0.4048941135406494,-1.3613061904907227,2.8340835571289062
1789033786480536600,9.12053662109375,-0.35758185386657715,-1.118337631225586,1.8932690620422363
1789033786490462200,9.130462158203125,-0.15334677696228027,-0.7915782928466797,1.133152961730957
1789033786500387600,9.1403876953125,-0.5763506889343262,-0.6579170227050781,0.7058615684509277
1789033786510313000,9.15031298828125,-1.4443514347076416,-1.0297889709472656,0.7695722579956055
1789033786520238600,9.160238525390625,-1.5665106773376465,-0.9535541534423828,0.8652582168579102
1789033786530164000,9.1701640625,-1.327657699584961,-0.8385782241821289,1.0189414024353027
1789033786540089300,9.18008935546875,-1.431190013885498,-0.7879133224487305,0.6782870292663574
1789033786550015000,9.190014892578125,-0.6896047592163086,-0.7508721351623535,-0.1733698844909668
1789033786559940400,9.1999404296875,0.4448838233947754,-0.6253747940063477,0.12316322326660156
1789033786569865700,9.20986572265625,0.9906762838363647,-0.08714628219604492,0.8127193450927734
1789033786579791400,9.219791259765625,1.268673062324524,0.0060787200927734375,0.6178593635559082
1789033786589716700,9.229716796875,1.2180898189544678,-0.2141880989074707,-0.25221729278564453
1789033786599642400,9.239642333984374,1.083446979522705,-0.3897891044616699,-0.9377837181091309
1789033786609567700,9.249567626953125,0.7539641857147217,-0.4113588333129883,-1.4057917594909668
1789033786619493000,9.2594931640625,0.29281115531921387,-0.09516429901123047,-1.298534870147705
1789033786629418800,9.269418701171874,-0.25324153900146484,0.37857770919799805,-0.5027050971984863
1789033786639344000,9.27934423828125,-1.1834499835968018,0.17799806594848633,0.007319927215576172
1789033786649269500,9.28926953125,-1.5040302276611328,-0.2527918815612793,0.5131669044494629
1789033786659195100,9.299195068359374,-0.5582363605499268,-0.32710742950439453,0.4746975898742676
1789033786669120500,9.30912060546875,-0.254075288772583,0.07981491088867188,0.8599400520324707
1789033786679046000,9.3190458984375,-0.3328874111175537,0.15282630920410156,1.1554408073425293
1789033786688971500,9.328971435546874,-0.6393542289733887,0.2617359161376953,1.4910807609558105
1789033786698897000,9.33889697265625,-1.4467449188232422,-0.15536737442016602,1.2908744812011719
1789033786708822500,9.348822509765625,-1.801544189453125,-0.669288158416748,1.0290956497192383
1789033786718748000,9.358747802734374,-1.5545411109924316,-1.2287635803222656,0.6547966003417969
1789033786728673300,9.36867333984375,-1.540069818496704,-1.3838114738464355,1.0771713256835938
1789033786738599000,9.378598876953125,-1.4037144184112549,-1.5986504554748535,1.7314376831054688
1789033786748524300,9.388524169921874,-0.8644752502441406,-1.8328189849853516,2.5834035873413086
1789033786758449700,9.39844970703125,-0.38663649559020996,-2.141242504119873,2.8161535263061523
1789033786768375300,9.408375244140625,-0.18100476264953613,-2.505924701690674,2.520841598510742
1789033786778300700,9.41830078125,0.11081480979919434,-2.3718154430389404,2.049960136413574
1789033786788226000,9.42822607421875,0.5709502696990967,-2.218238592147827,1.2617816925048828
1789033786798151700,9.438151611328125,0.983661413192749,-2.1634232997894287,0.49886226654052734
1789033786808077000,9.4480771484375,0.8049397468566895,-2.1625313758850098,-0.19639015197753906
1789033786818002700,9.458002685546875,0.48974609375,-1.8533637523651123,-1.1501083374023438
1789033786827928000,9.467927978515625,0.3856334686279297,-1.3055896759033203,-2.466177463531494
1789033786837853400,9.477853515625,1.2172110080718994,-0.9050862789154053,-4.081558704376221
1789033786847779000,9.487779052734375,1.9533724784851074,-0.03127551078796387,-4.834588050842285
1789033786857704400,9.497704345703125,2.71349835395813,-0.5916411876678467,-6.062817573547363
1789033786867629800,9.5076298828125,2.439851760864258,0.3347470760345459,-5.022477149963379
1789033786877555500,9.517555419921875,1.7517602443695068,0.7185477018356323,-4.211964130401611
1789033786887480800,9.527480712890625,1.0948295593261719,0.3863959312438965,-4.094852924346924
1789033786897406200,9.53740625,1.2505168914794922,-0.2793872356414795,-4.534761428833008
1789033786907331800,9.547331787109375,1.9523921012878418,-0.3725733757019043,-4.778676509857178
1789033786917257200,9.55725732421875,1.5402655601501465,-0.03196310997009277,-4.906838417053223
1789033786927182600,9.5671826171875,0.6727962493896484,0.591611385345459,-4.613569259643555
1789033786937108200,9.577108154296875,0.9393253326416016,0.21936655044555664,-5.055361747741699
1789033786947033600,9.58703369140625,1.486840009689331,-0.04983639717102051,-5.451301097869873
1789033786956959200,9.596959228515624,1.1922693252563477,0.015916109085083008,-5.599061012268066
1789033786966884600,9.606884521484375,0.5994668006896973,0.5028572082519531,-4.961977958679199
1789033786976810000,9.61681005859375,0.026575803756713867,1.1190623044967651,-3.857056140899658
1789033786986735600,9.626735595703124,0.024454593658447266,1.1601101160049438,-3.093977928161621
1789033786996661000,9.636660888671875,0.5018661022186279,0.6430108547210693,-3.016580104827881
1789033787006586400,9.64658642578125,0.7217352390289307,0.010598182678222656,-3.120978355407715
1789033787016512000,9.656511962890624,0.7750341892242432,-0.3307933807373047,-3.0337867736816406
1789033787026437400,9.666437255859375,0.2245028018951416,-0.22249197959899902,-2.626357078552246
1789033787036362800,9.67636279296875,-0.40238475799560547,0.18349361419677734,-2.2892422676086426
1789033787046288400,9.686288330078124,-0.8560256958007812,0.548058271408081,-1.9611740112304688
1789033787056213800,9.6962138671875,-1.2882938385009766,1.0445542335510254,-1.3088383674621582
1789033787066139400,9.706139404296875,-1.32542085647583,1.0698013305664062,-0.5050654411315918
1789033787076064800,9.716064697265624,-0.5746891498565674,0.5177102088928223,-0.011358261108398438
1789033787085990100,9.725990234375,0.560244083404541,-0.1631946563720703,0.18686199188232422
1789033787095915800,9.735915771484375,0.8371751308441162,-0.972562313079834,0.11081409454345703
1789033787105841200,9.745841064453124,0.030673503875732422,-1.458073616027832,0.2607736587524414
1789033787115766500,9.7557666015625,-0.9249987602233887,-1.7535457611083984,0.43572235107421875
1789033787125692200,9.765692138671875,-1.6251296997070312,-1.9305486679077148,0.3047628402709961
1789033787135617500,9.775617431640624,-1.0570731163024902,-1.7584385871887207,-0.1220402717590332
1789033787145543000,9.78554296875,-0.09421968460083008,-1.7867584228515625,-0.4245314598083496
1789033787155468500,9.795468505859375,0.07817959785461426,-1.6488113403320312,-0.30771780014038086
1789033787165394000,9.805393798828124,-1.358856201171875,-1.7075891494750977,1.3173041343688965
1789033787175319600,9.815319580078125,-2.3357601165771484,-2.0027379989624023,3.4932990074157715
1789033787185245000,9.825244873046875,-0.306102991104126,-2.7190070152282715,3.6969847679138184
1789033787195170300,9.83517041015625,0.04704618453979492,-3.0842881202697754,2.7994980812072754
1789033787205096000,9.845095947265625,-1.0274200439453125,-2.511650562286377,2.5325512886047363
1789033787215021300,9.855021240234375,-1.999204158782959,-1.6344361305236816,1.8720746040344238
1789033787224946700,9.86494677734375,-2.4860754013061523,-0.09091424942016602,2.610215663909912
1789033787234872300,9.874872314453125,-0.10709095001220703,0.6394281387329102,1.9852848052978516
1789033787244797700,9.884797607421875,0.21222877502441406,0.7802033424377441,0.46502113342285156
1789033787254723000,9.89472314453125,-0.278217077255249,0.6563706398010254,-0.3927593231201172
1789033787264648700,9.904648681640625,-0.18424558639526367,0.802340030670166,-0.3989086151123047
1789033787274574000,9.914573974609375,-0.17267727851867676,0.5992493629455566,0.3997812271118164
1789033787284499700,9.924499755859374,-0.6516804695129395,0.41123437881469727,0.37416505813598633
1789033787294425000,9.934425048828125,-0.9321451187133789,0.26275062561035156,0.6341648101806641
1789033787304350500,9.9443505859375,-1.2130792140960693,0.22431707382202148,1.3979887962341309
1789033787314276000,9.954276123046874,-1.4244143962860107,0.41310787200927734,2.582092761993408
1789033787324201500,9.964201416015625,-1.3590376377105713,0.8084621429443359,3.3685860633850098
1789033787334126800,9.974126953125,-1.0531890392303467,0.9746870994567871,3.981253147125244
1789033787344052500,9.984052490234374,-0.7501747608184814,0.8473343849182129,3.5713601112365723
1789033787353977900,9.993977783203125,-0.862309455871582,0.6830244064331055,3.303938865661621
1789033787363903200,10.0039033203125,-1.0737571716308594,0.5543398857116699,3.217832088470459
1789033787373828900,10.013828857421874,-1.2180233001708984,0.32671356201171875,3.190596580505371
1789033787383754200,10.023754150390625,-1.4660181999206543,0.037061214447021484,2.708651065826416
1789033787393680000,10.033679931640625,-1.4197330474853516,-0.2808651924133301,1.8153367042541504
1789033787403605200,10.043605224609376,-1.0539300441741943,-0.5615372657775879,0.3853602409362793
1789033787413530600,10.053530517578125,-0.6504745483398438,-0.6151547431945801,-0.0645442008972168
1789033787423456300,10.063456298828125,0.02582073211669922,-0.5129837989807129,-0.02400970458984375
1789033787433381600,10.073381591796876,-0.1651935577392578,-0.19932222366333008,0.031624794006347656
1789033787443307000,10.08330712890625,0.042366981506347656,-0.05215263366699219,-0.08397769927978516
1789033787453232600,10.093232666015625,0.49039673805236816,-0.05962228775024414,0.18520498275756836
1789033787463158000,10.103157958984376,0.16243481636047363,-0.6282539367675781,0.6155285835266113
1789033787473083400,10.11308349609375,-0.7999470233917236,-0.9338340759277344,1.3149981498718262
1789033787483009000,10.123009033203125,-0.9925463199615479,-1.1665234565734863,2.0618109703063965
1789033787492934400,10.132934326171876,-0.44238829612731934,-1.2650136947631836,2.4102392196655273
1789033787502860000,10.142860107421875,0.18709611892700195,-1.359621524810791,2.5297775268554688
1789033787512785400,10.152785400390625,0.10712504386901855,-1.3915314674377441,2.1690850257873535
1789033787522710800,10.162710693359376,-0.17092537879943848,-1.3460841178894043,1.7543425559997559
1789033787532636400,10.172636474609375,-0.40803003311157227,-1.1417436599731445,1.4563283920288086
1789033787542561800,10.182561767578125,-1.395672082901001,-0.5968084335327148,1.2358860969543457
1789033787552487200,10.192487060546876,-2.276388645172119,-0.35439443588256836,1.206766128540039
1789033787562412800,10.202412841796875,-1.6804955005645752,-0.2866239547729492,1.465092658996582
1789033787572338200,10.212338134765625,-0.5276174545288086,-0.24173974990844727,1.6344127655029297
1789033787582263600,10.222263671875,0.2768125534057617,-0.5415763854980469,1.1022672653198242
1789033787592189200,10.232189208984375,1.0131769180297852,-1.075972080230713,0.27312755584716797
1789033787602114600,10.242114501953125,0.9244544506072998,-1.5815095901489258,-0.45101022720336914
1789033787612040000,10.2520400390625,-0.7679603099822998,-2.0463318824768066,-0.5216689109802246
1789033787621965600,10.261965576171875,-2.8264458179473877,-2.0197534561157227,0.2649707794189453
1789033787631891000,10.271890869140625,-2.9060115814208984,-1.664937973022461,0.805638313293457
1789033787641816600,10.281816650390626,-1.9088335037231445,-1.328263759613037,1.290231704711914
1789033787651742000,10.291741943359375,-0.09470653533935547,-1.1345839500427246,1.29718017578125
1789033787661667300,10.301667236328125,1.2961957454681396,-1.2249584197998047,0.6612424850463867
1789033787671593000,10.311593017578126,2.080946922302246,-1.3000197410583496,-0.17399024963378906
1789033787681518300,10.321518310546875,1.6784862279891968,-1.1587378978729248,-0.7892651557922363
1789033787691443700,10.331443603515625,1.178102731704712,-0.7597081661224365,-1.4035654067993164
1789033787701369300,10.341369384765626,0.6177377700805664,-0.4062309265136719,-2.087024688720703
1789033787711294700,10.351294677734375,1.019763469696045,-0.3711860179901123,-2.570112705230713
1789033787721220000,10.36122021484375,1.9222304821014404,-0.4043242931365967,-3.2353920936584473
1789033787731145700,10.371145751953126,2.4132227897644043,-0.3300943374633789,-3.84016752243042
1789033787741071000,10.381071044921875,2.476306915283203,-0.29062366485595703,-4.525298595428467
1789033787750996700,10.390996826171875,1.6300747394561768,-0.3786909580230713,-5.132349014282227
1789033787760922000,10.400922119140626,0.18247556686401367,0.027507305145263672,-5.056739807128906
1789033787770847500,10.410847412109375,0.17968297004699707,0.7898285388946533,-4.863970756530762
1789033787780773000,10.420773193359375,1.6282756328582764,0.869594931602478,-4.061235427856445
1789033787790698500,10.430698486328126,1.7649340629577637,0.7615996599197388,-3.5409817695617676
1789033787800623900,10.440623779296875,1.9056649208068848,-0.08041191101074219,-3.125349998474121
1789033787810549500,10.450549560546875,2.001370429992676,-1.102797269821167,-3.2650976181030273
1789033787820475000,10.460474853515626,1.2989284992218018,-1.5919444561004639,-3.942429542541504
1789033787830400300,10.470400146484375,-0.38481783866882324,-0.7248446941375732,-4.005133152008057
1789033787840326000,10.480325927734375,-1.3537020683288574,0.3540973663330078,-3.920246124267578
1789033787850251300,10.490251220703126,-1.0832209587097168,0.7522848844528198,-4.023597240447998
1789033787860177000,10.500177001953125,0.024100303649902344,0.9194220304489136,-3.886993885040283
1789033787870102300,10.510102294921875,0.9888827800750732,0.9286395311355591,-3.3467016220092773
1789033787880027600,10.520027587890626,1.6936359405517578,0.4743640422821045,-2.7981252670288086
1789033787889953300,10.529953369140625,1.669466495513916,-0.0037779808044433594,-2.5899577140808105
1789033787899878700,10.539878662109375,1.196042537689209,-0.1743183135986328,-2.7019705772399902
1789033787909804000,10.549803955078126,0.14415550231933594,-0.11091947555541992,-2.857685089111328
1789033787919729700,10.559729736328125,-0.7843050956726074,0.11645674705505371,-2.7438864707946777
1789033787929655000,10.569655029296875,-0.9125280380249023,0.40475893020629883,-2.3728861808776855
1789033787939580400,10.579580322265626,-0.7733020782470703,0.713137149810791,-1.985386848449707
1789033787949505800,10.589505859375,-0.3488142490386963,0.6373183727264404,-1.673877239227295
1789033787959431200,10.59943115234375,0.5545661449432373,0.22778868675231934,-1.3871655464172363
1789033787969356800,10.609356689453126,0.5859453678131104,-0.21265935897827148,-1.0481224060058594
1789033787979282200,10.6192822265625,-0.20540308952331543,-0.4990882873535156,-0.3185567855834961
1789033787989207600,10.62920751953125,-1.0452802181243896,-0.6251258850097656,0.6177406311035156
1789033787999133000,10.6391328125,-1.5688490867614746,-0.782376766204834,1.0844383239746094
1789033788009058300,10.649058349609374,-1.0533638000488281,-1.0311307907104492,1.3930931091308594
1789033788018983700,10.658983642578125,-0.20638632774353027,-1.451751708984375,1.4335031509399414
1789033788028909300,10.668909423828126,-0.5539934635162354,-1.8281598091125488,1.115424633026123
1789033788038834700,10.678834716796874,-1.074631929397583,-1.776048183441162,0.8208398818969727
1789033788048760000,10.688760009765625,-1.180746078491211,-1.6696405410766602,0.9118437767028809
1789033788058685700,10.698685791015626,-0.8201115131378174,-1.3000359535217285,1.337496280670166
1789033788068611000,10.708611083984374,-0.8730466365814209,-1.1944694519042969,1.5320558547973633
1789033788078536400,10.718536376953125,-0.03008580207824707,-1.3646326065063477,1.6534557342529297
1789033788088462000,10.728462158203126,-0.6657419204711914,-0.7892484664916992,2.328828811645508
1789033788098387500,10.738387451171874,-1.3063132762908936,-0.8467631340026855,2.235381603240967
1789033788108313000,10.74831298828125,-1.0987896919250488,-0.9460697174072266,2.26375150680542
1789033788118238500,10.758238525390626,-1.7949295043945312,-0.7666501998901367,3.0894885063171387
1789033788128163800,10.768163818359374,-0.9151597023010254,-0.49040794372558594,3.0375490188598633
1789033788138089500,10.77808935546875,-0.1264345645904541,-0.13808202743530273,2.626020908355713
1789033788148014800,10.788014892578126,-0.5982754230499268,-0.03985452651977539,2.68534517288208
1789033788157940200,10.797940185546874,-1.1391594409942627,-0.0715017318725586,2.664353847503662
1789033788167865900,10.807865966796875,-1.4595861434936523,-0.25092411041259766,2.47397518157959
1789033788177791200,10.817791259765626,-1.6957447528839111,-0.43024635314941406,2.6844687461853027
1789033788187716600,10.827716552734374,-1.5046567916870117,-0.514399528503418,2.9901862144470215
1789033788197642200,10.837642333984375,-0.7970411777496338,-0.18854188919067383,2.754274845123291
1789033788207567600,10.847567626953126,-0.2407076358795166,0.28585338592529297,2.1541595458984375
1789033788217493200,10.8574931640625,-0.3564136028289795,0.6574821472167969,1.3166437149047852
1789033788227418600,10.867418701171875,-0.9533853530883789,0.9025697708129883,1.237900733947754
1789033788237344000,10.877343994140626,-1.2808747291564941,0.8811140060424805,1.5772919654846191
1789033788247269600,10.88726953125,-0.9617533683776855,0.28331947326660156,1.605130672454834
1789033788257195000,10.897195068359375,-0.29892683029174805,-0.17139816284179688,1.464707374572754
1789033788267120400,10.907120361328126,-0.8180711269378662,-0.6775975227355957,1.3794355392456055
1789033788277046000,10.9170458984375,-1.1818087100982666,-0.8780450820922852,1.4895172119140625
1789033788286971400,10.926971435546875,-0.7806806564331055,-0.8558707237243652,1.473172664642334
1789033788296896800,10.936896728515626,-0.09798622131347656,-0.6212091445922852,0.9303336143493652
1789033788306822400,10.946822509765624,0.24003100395202637,-0.5087637901306152,0.0638728141784668
1789033788316747800,10.956747802734375,1.4052497148513794,-0.25008058547973633,-0.33193063735961914
1789033788326673400,10.96667333984375,1.8486533164978027,0.3028712272644043,-0.031249046325683594
1789033788336598800,10.976598876953124,1.2599014043807983,0.6279911994934082,0.38660573959350586
1789033788346524200,10.986524169921875,0.28496408462524414,0.582669734954834,0.7102870941162109
1789033788356449800,10.99644970703125,-0.47224974632263184,0.341217041015625,1.230839729309082
1789033788366375200,11.006375244140624,-0.5420560836791992,0.06392908096313477,1.5154685974121094
1789033788376300500,11.016300537109375,-0.2744731903076172,-0.18364191055297852,1.7867465019226074
1789033788386226200,11.02622607421875,0.6347744464874268,-0.28087425231933594,1.7465786933898926
1789033788396151600,11.036151611328124,0.9073691368103027,-0.4358224868774414,1.8106307983398438
1789033788406077000,11.046076904296875,0.565209150314331,-0.7184758186340332,1.5794434547424316
1789033788416002600,11.05600244140625,0.5333845615386963,-0.8900060653686523,1.398355484008789
1789033788425928000,11.065927978515624,0.3786656856536865,-0.9253458976745605,0.8968391418457031
1789033788435853600,11.075853515625,-0.08110690116882324,-0.7402071952819824,0.5694451332092285
1789033788445779000,11.085779052734376,-0.6737310886383057,-0.3928236961364746,0.6157550811767578
1789033788455704300,11.095704345703124,-1.994915246963501,-0.3857250213623047,1.4232406616210938
1789033788465630000,11.1056298828125,-2.0790908336639404,-0.8459091186523438,2.0068912506103516
1789033788475555300,11.115555419921876,-0.7600321769714355,-1.252943992614746,1.4173660278320312
1789033788485480700,11.125480712890624,-0.1085517406463623,-1.560987949371338,1.0659770965576172
1789033788495406300,11.13540625,-0.12385082244873047,-1.5262527465820312,1.1006031036376953
1789033788505331700,11.145331787109376,-0.6441199779510498,-1.7993316650390625,0.8529634475708008
1789033788515257000,11.155257080078124,-0.40931034088134766,-2.0851693153381348,0.3412351608276367
1789033788525182700,11.1651826171875,-0.1034541130065918,-2.0551791191101074,0.3584632873535156
1789033788535108000,11.175108154296876,0.20730066299438477,-1.9449715614318848,0.36884307861328125
1789033788545033700,11.18503369140625,0.0434877872467041,-1.9879260063171387,-0.0078105926513671875
1789033788554959000,11.194958984375,0.47653841972351074,-1.924321174621582,-0.5466156005859375
1789033788564884500,11.204884521484376,0.9173910617828369,-1.6063451766967773,-1.347252368927002
1789033788574810000,11.21481005859375,1.3441987037658691,-1.1771647930145264,-1.9451627731323242
1789033788584735500,11.224735595703125,2.1274547576904297,-0.5291211605072021,-2.505237579345703
1789033788594660900,11.234660888671876,2.0725135803222656,0.14839601516723633,-3.027646541595459
1789033788604586500,11.24458642578125,1.4261603355407715,0.5889356136322021,-3.5533909797668457
1789033788614511900,11.254511962890625,1.264397144317627,0.5040204524993896,-3.8947367668151855
1789033788624437200,11.264437255859375,1.2188119888305664,-0.17879033088684082,-4.438333034515381
1789033788634363000,11.27436279296875,1.761570692062378,-0.5585079193115234,-4.736293315887451
1789033788644288300,11.284288330078125,0.9588465690612793,-0.18517756462097168,-4.5945024490356445
1789033788654214000,11.2942138671875,0.02327585220336914,-0.0852656364440918,-4.056198596954346
1789033788664139300,11.30413916015625,0.06599879264831543,-0.4279477596282959,-3.9273738861083984
1789033788674064600,11.314064697265625,1.5155723094940186,-0.7530043125152588,-4.111515522003174
1789033788683990300,11.323990234375,2.0444793701171875,-0.9373042583465576,-4.171303749084473
1789033788693915600,11.33391552734375,1.3435158729553223,-0.4910142421722412,-3.8768253326416016
1789033788703841000,11.343841064453125,0.5266385078430176,0.32660770416259766,-3.7423882484436035
1789033788713766700,11.3537666015625,0.526214599609375,0.712540864944458,-3.838583469390869
1789033788723692000,11.363692138671874,0.3834507465362549,0.7384524345397949,-3.855416774749756
1789033788733617400,11.373617431640625,0.5700230598449707,0.600867509841919,-3.788534164428711
1789033788743543000,11.38354296875,0.4490358829498291,0.12441682815551758,-3.7076964378356934
1789033788753468400,11.393468505859374,0.3901846408843994,-0.044473886489868164,-3.549539089202881
1789033788763393800,11.403393798828125,0.2685253620147705,0.15788745880126953,-3.2049636840820312
1789033788773319400,11.4133193359375,0.04785919189453125,0.2305586338043213,-2.8290200233459473
1789033788783244800,11.423244873046874,0.0017309188842773438,0.36693286895751953,-2.4934630393981934
1789033788793170400,11.43317041015625,0.15961837768554688,0.22319316864013672,-2.6000709533691406
1789033788803095800,11.443095703125,-0.013996124267578125,0.1966392993927002,-2.507561683654785
1789033788813021200,11.453021240234374,-0.07857799530029297,0.18061351776123047,-2.058763027191162
1789033788822946800,11.46294677734375,-0.20969009399414062,0.17380499839782715,-1.4816856384277344
1789033788832872200,11.4728720703125,-0.07214856147766113,-0.04205942153930664,-1.1245169639587402
1789033788842797600,11.482797607421874,-0.08510637283325195,-0.4713144302368164,-0.92572021484375
1789033788852723200,11.49272314453125,-0.47898387908935547,-0.7268714904785156,-0.5798897743225098
1789033788862648600,11.502648681640625,-0.7608110904693604,-0.9078831672668457,0.22072219848632812
1789033788872574000,11.512573974609374,-0.8186018466949463,-0.8006715774536133,1.0824251174926758
1789033788882499600,11.52249951171875,-0.4004204273223877,-0.9337401390075684,1.6406736373901367
1789033788892425000,11.532425048828125,-0.5232372283935547,-1.006406307220459,1.9009027481079102
1789033788902350600,11.5423505859375,-0.5898628234863281,-1.376633644104004,1.7171735763549805
1789033788912276000,11.55227587890625,-0.6068167686462402,-1.580611228942871,1.8634190559387207
1789033788922201300,11.562201416015625,-0.6894879341125488,-1.4449405670166016,1.9356651306152344
1789033788932126700,11.572126708984374,-0.2504723072052002,-1.2733616828918457,1.8258118629455566
1789033788942052000,11.582052001953125,-0.20448637008666992,-0.8942461013793945,1.6606521606445312
1789033788951977700,11.591977783203125,0.3970766067504883,-0.7339048385620117,1.497840404510498
1789033788961903000,11.601903076171874,0.030236482620239258,-0.2669057846069336,1.9736180305480957
1789033788971828500,11.611828369140625,-0.907958984375,0.4405860900878906,2.884659767150879
1789033788981753900,11.62175390625,-1.0737104415893555,0.08323383331298828,2.5397047996520996
1789033788991679200,11.63167919921875,0.016914844512939453,-0.5483756065368652,1.814192771911621
1789033789001604600,11.6416044921875,-0.39803338050842285,-0.9451875686645508,1.6402263641357422
1789033789011530200,11.6515302734375,-0.9127402305603027,-0.9287848472595215,2.384153366088867
1789033789021455600,11.66145556640625,0.0694277286529541,-0.5914468765258789,2.590669631958008
1789033789031381000,11.671381103515625,-0.04309988021850586,-0.363584041595459,2.5517654418945312
1789033789041306600,11.681306640625,-0.6593451499938965,-0.28982019424438477,2.5970864295959473
1789033789051232000,11.69123193359375,-0.8124806880950928,-0.08284473419189453,2.578932762145996
1789033789061157400,11.701157470703125,-0.8248999118804932,0.2812967300415039,2.5496344566345215
1789033789071083000,11.7110830078125,-0.4597136974334717,0.43017578125,2.4658889770507812
1789033789081008400,11.72100830078125,-0.5201013088226318,0.8114385604858398,2.5026583671569824
1789033789090933800,11.730933837890625,-0.6377346515655518,0.7609372138977051,2.1454386711120605
1789033789100859400,11.740859375,-0.6867537498474121,0.5963077545166016,1.5261530876159668
1789033789110784800,11.75078466796875,-0.5413556098937988,0.2916860580444336,0.7807316780090332
1789033789120710100,11.760710205078125,-0.468414306640625,0.3788900375366211,0.4445304870605469
1789033789130635800,11.7706357421875,-0.851414680480957,0.5136327743530273,0.24908447265625
1789033789140561200,11.78056103515625,-1.0050184726715088,0.48506641387939453,0.49308156967163086
1789033789150486800,11.79048681640625,-1.2560820579528809,0.32525634765625,1.2925543785095215
1789033789160412200,11.800412109375,-1.2565367221832275,-0.20653533935546875,2.527409553527832
1789033789170337500,11.810337646484374,-0.8510258197784424,-0.7225899696350098,3.3018178939819336
1789033789180263200,11.82026318359375,0.14564919471740723,-0.9201722145080566,3.1113052368164062
1789033789190188500,11.8301884765625,1.0709609985351562,-0.6655001640319824,2.1084342002868652
1789033789200114000,11.840114013671876,1.2805501222610474,-0.5211901664733887,1.1330981254577637
1789033789210039600,11.85003955078125,1.9700069427490234,-0.4449758529663086,0.35283470153808594
1789033789219965000,11.85996484375,2.117309331893921,-0.15204334259033203,0.11190462112426758
1789033789229890300,11.869890380859376,1.3045246601104736,0.023277759552001953,-0.039311885833740234
1789033789239816000,11.87981591796875,0.16776299476623535,-0.13643455505371094,0.11415576934814453
1789033789249741300,11.8897412109375,-0.46219849586486816,-0.25168657302856445,0.49393749237060547
1789033789259667000,11.8996669921875,-0.535698413848877,-0.1755509376525879,0.7259607315063477
1789033789269592300,11.90959228515625,-0.39838171005249023,0.03343343734741211,1.2969470024108887
1789033789279517700,11.919517578125,-0.046356916427612305,0.0077800750732421875,1.5843043327331543
1789033789289443300,11.929443359375,0.4306502342224121,-0.47048282623291016,2.102499485015869
1789033789299368700,11.93936865234375,0.41595888137817383,-1.0003185272216797,2.2534308433532715
1789033789309294000,11.949294189453125,0.36982226371765137,-0.9464168548583984,2.385550022125244
1789033789319219700,11.9592197265625,0.7968852519989014,-0.9636874198913574,1.7703957557678223
1789033789329145000,11.96914501953125,1.10903799533844,-0.9896821975708008,1.2277069091796875
1789033789339070500,11.979070556640625,-0.3222947120666504,-0.6368722915649414,1.0549650192260742
1789033789348996000,11.98899609375,-1.4449236392974854,-0.3475031852722168,1.3031644821166992
1789033789358921500,11.99892138671875,-1.6634495258331299,-0.5899581909179688,0.5025148391723633
1789033789368847000,12.00884716796875,-0.4325852394104004,-1.149092197418213,-0.6903057098388672
1789033789378772500,12.0187724609375,0.1878829002380371,-1.2260689735412598,-1.1935181617736816
1789033789388697900,12.02869775390625,0.3780853748321533,-0.935819149017334,-0.5840625762939453
1789033789398623500,12.03862353515625,0.23446011543273926,-0.8702068328857422,-0.13019561767578125
1789033789408548900,12.048548828125,0.014270544052124023,-0.8636331558227539,0.4106254577636719
1789033789418474200,12.05847412109375,0.18430590629577637,-1.136977195739746,1.4854755401611328
1789033789428399900,12.06839990234375,0.3241126537322998,-1.6921257972717285,1.247518539428711
1789033789438325200,12.0783251953125,0.6363978385925293,-1.8473668098449707,0.3045806884765625
1789033789448250600,12.088250732421875,0.5758066177368164,-1.7832903861999512,-0.6308908462524414
1789033789458176300,12.09817626953125,0.5641114711761475,-1.3348395824432373,-1.260030746459961
1789033789468101600,12.1081015625,1.1059150695800781,-0.8328273296356201,-1.6483960151672363
1789033789478027300,12.11802734375,1.6646486520767212,-0.653742790222168,-1.9881253242492676
1789033789487952600,12.12795263671875,1.2682676315307617,-0.7891190052032471,-2.270246982574463
1789033789497878000,12.1378779296875,0.44000887870788574,-1.0044529438018799,-2.7559633255004883
1789033789507803600,12.1478037109375,0.3362109661102295,-0.9079792499542236,-3.317805290222168
1789033789517729000,12.15772900390625,0.4194753170013428,-0.42694902420043945,-3.432384967803955
1789033789527654400,12.167654296875,-0.03136634826660156,-0.2935366630554199,-3.7761478424072266
1789033789537580000,12.177580078125,0.3624699115753174,-0.16394877433776855,-3.8944950103759766
1789033789547505400,12.18750537109375,1.5083223581314087,-0.13052082061767578,-4.312321662902832
1789033789557430800,12.1974306640625,1.7702510356903076,-0.2681095600128174,-4.857668876647949
1789033789567356400,12.2073564453125,1.637868881225586,-0.14010286331176758,-5.200288772583008
1789033789577281800,12.21728173828125,1.517685890197754,0.23958969116210938,-5.071473121643066
1789033789587207400,12.22720751953125,0.6513559818267822,0.7738742828369141,-4.553513526916504
1789033789597132800,12.2371328125,0.4261507987976074,0.8876243829727173,-4.392103672027588
1789033789607058200,12.24705810546875,0.40169572830200195,0.8677569627761841,-4.037158012390137
1789033789616983800,12.25698388671875,0.2647726535797119,0.7562899589538574,-4.132887363433838
1789033789626909200,12.2669091796875,0.17741656303405762,0.8814435005187988,-3.703017234802246
1789033789636834600,12.27683447265625,0.3995821475982666,0.6552729606628418,-3.7853121757507324
1789033789646760200,12.28676025390625,0.24947261810302734,0.4892137050628662,-3.6773781776428223
1789033789656685600,12.296685546875,0.048998355865478516,0.3886399269104004,-3.3451247215270996
1789033789666611000,12.30661083984375,-0.4730052947998047,0.5046262741088867,-2.8222527503967285
1789033789676536600,12.31653662109375,-0.785900354385376,0.6322751045227051,-2.142106533050537
1789033789686462000,12.3264619140625,-0.5137486457824707,0.5644712448120117,-1.7257633209228516
1789033789696387600,12.3363876953125,-0.47217369079589844,0.33350706100463867,-1.1775517463684082
1789033789706313000,12.34631298828125,-0.4477074146270752,0.10535597801208496,-0.8410358428955078
1789033789716238300,12.35623828125,-0.26186680793762207,-0.35986900329589844,-0.7265386581420898
1789033789726164000,12.3661640625,-0.1893596649169922,-0.8124070167541504,-0.8574361801147461
1789033789736089300,12.37608935546875,-0.21174168586730957,-1.0183091163635254,-0.7619767189025879
1789033789746014700,12.3860146484375,-0.5611646175384521,-1.062058925628662,-0.25858402252197266
1789033789755940400,12.3959404296875,-0.584122896194458,-0.8778300285339355,0.21805572509765625
1789033789765865700,12.40586572265625,-0.5955691337585449,-1.0098538398742676,0.4155550003051758
1789033789775791000,12.415791015625,-0.16617941856384277,-1.0086135864257812,0.754638671875
1789033789785716700,12.425716796875,-0.21288561820983887,-1.1274261474609375,0.7182779312133789
1789033789795642000,12.43564208984375,-0.6158716678619385,-1.1124305725097656,0.5272483825683594
1789033789805567500,12.4455673828125,-1.108247995376587,-1.032203197479248,0.9028892517089844
1789033789815493000,12.4554931640625,-0.6244077682495117,-1.0118918418884277,1.3564610481262207
1789033789825418500,12.46541845703125,-0.49001574516296387,-0.9625864028930664,1.9862704277038574
1789033789835344100,12.47534423828125,-0.3917708396911621,-0.973442554473877,2.116729736328125
1789033789845269500,12.48526953125,-0.21703827381134033,-1.0553374290466309,2.1813297271728516
1789033789855195000,12.49519482421875,-0.29058051109313965,-0.9832944869995117,2.4652414321899414
1789033789865120500,12.50512060546875,-0.44104301929473877,-0.8762378692626953,1.9940156936645508
1789033789875046000,12.5150458984375,-1.580864667892456,-0.788182258605957,2.1986441612243652
1789033789884971300,12.52497119140625,-1.1297820806503296,-0.9663476943969727,2.2672548294067383
1789033789894897000,12.53489697265625,-0.8182483911514282,-0.8711209297180176,3.245055675506592
1789033789904822300,12.544822265625,0.15749871730804443,-0.6570854187011719,3.7526140213012695
1789033789914747600,12.55474755859375,0.4493429660797119,-0.4867134094238281,3.3635311126708984
1789033789924673300,12.56467333984375,0.21242737770080566,-0.4437575340270996,2.5293073654174805
1789033789934598700,12.5745986328125,-0.3653813600540161,-0.33980512619018555,1.9639606475830078
1789033789944524300,12.584524169921876,-1.3831818103790283,0.14800548553466797,1.8727498054504395
1789033789954449700,12.59444970703125,-1.4854413270950317,0.5617427825927734,1.9426608085632324
1789033789964375000,12.604375,-0.8421221971511841,0.5686140060424805,1.695594310760498
1789033789974300700,12.61430078125,-0.6306740045547485,0.3149418830871582,1.5815367698669434
1789033789984226000,12.62422607421875,-0.6298167705535889,0.2034759521484375,1.5631508827209473
1789033789994151400,12.6341513671875,-0.9063273668289185,0.29018259048461914,1.621302604675293
1789033790004077000,12.6440771484375,-1.2975190877914429,0.5171747207641602,1.6567492485046387
1789033790014002400,12.65400244140625,-1.4039546251296997,0.7361879348754883,1.4450798034667969
1789033790023927800,12.663927734375,-1.0990186929702759,0.6035752296447754,1.066704273223877
1789033790033853400,12.673853515625,-0.9209773540496826,0.2446002960205078,1.145772933959961
1789033790043778800,12.68377880859375,-1.0737597942352295,-0.11015081405639648,2.04374361038208
1789033790053704400,12.693704345703125,-1.4475767612457275,-0.38617897033691406,3.303140640258789
1789033790063629800,12.7036298828125,-1.04079270362854,-0.38515758514404297,3.7738823890686035
1789033790073555200,12.71355517578125,0.42078590393066406,-0.11817359924316406,3.2013540267944336
1789033790083480800,12.723480712890625,1.1695879697799683,-0.0679464340209961,1.6861000061035156
