time,seconds_elapsed,z,y,x
1789033777515497000,0.1554970703125,0.08491020649671555,-0.06536252796649933,-0.22968515753746033
1789033777525422600,0.165422607421875,0.05925388261675835,-0.12217295914888382,-0.27916520833969116
1789033777535348000,0.175347900390625,0.03543015569448471,-0.16615521907806396,-0.3225366175174713
1789033777545273300,0.1852734375,0.03237583488225937,-0.17837251722812653,-0.32620179653167725
1789033777555199000,0.195198974609375,0.043371398001909256,-0.14782927930355072,-0.27977606654167175
1789033777565124400,0.205124267578125,0.04520399495959282,-0.0873536616563797,-0.2052505612373352
1789033777575050000,0.215050048828125,0.02871064469218254,-0.05864302068948746,-0.12583814561367035
1789033777584975400,0.224975341796875,0.007330377586185932,-0.05497783049941063,-0.05436696484684944
1789033777594900700,0.234900634765625,-0.011606430634856224,-0.05253437161445618,0.004886918235570192
1789033777604826400,0.244826416015625,-0.03787361457943916,-0.04520399495959282,0.04276053607463837
1789033777614751700,0.254751708984375,-0.07452550530433655,-0.04581485688686371,0.05436696484684944
1789033777624677400,0.264677490234375,-0.10690133273601532,-0.04764745384454727,0.03848448023200035
1789033777634602800,0.274602783203125,-0.12461641430854797,-0.056199558079242706,0.007941242307424545
1789033777644528400,0.2845283203125,-0.1282816082239151,-0.04153880476951599,-0.020158538594841957
1789033777654453800,0.294453857421875,-0.13561198115348816,0.014049889519810677,-0.05070177838206291
1789033777664379100,0.304379150390625,-0.13927717506885529,0.06902772188186646,-0.07757982611656189
1789033777674304800,0.3143046875,-0.1282816082239151,0.09896009415388107,-0.09285144507884979
1789033777684230400,0.32423046875,-0.10934479534626007,0.09651663154363632,-0.08368847519159317
1789033777694155800,0.33415576171875,-0.0922405794262886,0.07757982611656189,-0.046425722539424896
1789033777704081200,0.3440810546875,-0.08368847519159317,0.04825831577181816,0.017104214057326317
1789033777714006800,0.3540068359375,-0.0824667438864708,0.01588248461484909,0.09529490768909454
1789033777723932200,0.36393212890625,-0.09346231073141098,-0.006719512399286032,0.17531819641590118
1789033777733857800,0.37385791015625,-0.11423171311616898,-0.03787361457943916,0.24984370172023773
1789033777743783200,0.383783203125,-0.12461641430854797,-0.0873536616563797,0.3298669755458832
1789033777753708500,0.39370849609375,-0.1288924664258957,-0.10751219838857651,0.4013381600379944
1789033777763634200,0.40363427734375,-0.13255766034126282,-0.13683371245861053,0.4355465769767761
1789033777773559600,0.4135595703125,-0.14599667489528656,-0.19364413619041443,0.4318813979625702
1789033777783485200,0.423485107421875,-0.16554436087608337,-0.27977606654167175,0.3964512348175049
1789033777793410600,0.43341064453125,-0.18264856934547424,-0.33536475896835327,0.35063639283180237
1789033777803336200,0.443336181640625,-0.19120067358016968,-0.3335321843624115,0.318871408700943
1789033777813261600,0.453261474609375,-0.20402882993221283,-0.3341430425643921,0.3127627670764923
1789033777823187000,0.46318701171875,-0.19730933010578156,-0.3231474757194519,0.3396408259868622
1789033777833112600,0.473112548828125,-0.1490510106086731,-0.277332603931427,0.40805765986442566
1789033777843038000,0.483037841796875,-0.050090912729501724,-0.20769402384757996,0.4880809485912323
1789033777852963600,0.492963623046875,0.023212861269712448,-0.16615521907806396,0.5418370366096497
1789033777862889000,0.502888916015625,0.026878049597144127,-0.14049890637397766,0.5473348498344421
1789033777872814300,0.512814453125,-0.007941242307424545,-0.1185077652335167,0.5161807537078857
1789033777882740000,0.522739990234375,-0.050090912729501724,-0.11728604137897491,0.471587598323822
1789033777892665600,0.53266552734375,-0.10018182545900345,-0.17226386070251465,0.41294458508491516
1789033777902591000,0.542591064453125,-0.15088360011577606,-0.2315177470445633,0.3292561173439026
1789033777912516400,0.552516357421875,-0.1905898153781891,-0.26389357447624207,0.2370155304670334
1789033777922442000,0.56244189453125,-0.2052505612373352,-0.23457208275794983,0.1441640853881836
1789033777932367400,0.572367431640625,-0.1893680840730667,-0.14660754799842834,0.05925388261675835
1789033777942293000,0.58229296875,-0.14294235408306122,0.03909534588456154,-0.009773836471140385
1789033777952218400,0.59221826171875,-0.006719512399286032,0.31581708788871765,0.007941242307424545
1789033777962143700,0.602143798828125,0.10629047453403473,0.66645348072052,0.11117739230394363
1789033777972069400,0.6120693359375,0.03298669680953026,0.8912517428398132,0.18081597983837128
1789033777981994800,0.621994873046875,-0.08674279600381851,0.8869756460189819,0.24495677649974823
1789033777991920400,0.63192041015625,-0.14660754799842834,0.8289434909820557,0.3274235129356384
1789033778001845800,0.641845703125,-0.1178968995809555,0.8045089244842529,0.42821621894836426
1789033778011771100,0.651771240234375,0.043371398001909256,0.637742817401886,0.5534434914588928
1789033778021696800,0.66169677734375,0.28466299176216125,0.5259546041488647,0.740368127822876
1789033778031622100,0.6716220703125,0.42943793535232544,0.5216785073280334,0.8949168920516968
1789033778041547800,0.6815478515625,0.40927940607070923,0.48563748598098755,0.9425643682479858
1789033778051473200,0.69147314453125,0.24373504519462585,0.36712974309921265,0.870482325553894
1789033778061398800,0.701398681640625,-0.006719512399286032,0.20219624042510986,0.675616443157196
1789033778071324200,0.71132421875,-0.24251331388950348,0.1288924664258957,0.37140578031539917
1789033778081249500,0.72124951171875,-0.3591884970664978,0.15515965223312378,0.07513637095689774
1789033778091175200,0.731175048828125,-0.35246896743774414,0.23029601573944092,-0.12705987691879272
1789033778101100500,0.7411005859375,-0.27000224590301514,0.3133736252784729,-0.2406807243824005
1789033778111026200,0.751026123046875,-0.1899789422750473,0.4068359434604645,-0.3066541254520416
1789033778120951600,0.76095166015625,-0.20402882993221283,0.5332849621772766,-0.35185810923576355
1789033778130877000,0.770876953125,-0.33047783374786377,0.4459312856197357,-0.3445277214050293
1789033778140802600,0.780802490234375,-0.472198486328125,0.19364413619041443,-0.2571740746498108
1789033778150728000,0.79072802734375,-0.5216785073280334,-0.08429934084415436,-0.13561198115348816
1789033778160653600,0.800653564453125,-0.471587598323822,-0.24495677649974823,-0.010995565913617611
1789033778170579000,0.810578857421875,-0.34147340059280396,-0.27855435013771057,0.09834922850131989
1789033778180504300,0.82050439453125,-0.1954767256975174,-0.2614501118659973,0.1588248461484909
1789033778190430000,0.830429931640625,-0.10506874322891235,-0.23884813487529755,0.15699224174022675
1789033778200355600,0.84035546875,-0.07574722915887833,-0.2632827162742615,0.1178968995809555
1789033778210281000,0.850281005859375,-0.04886918142437935,-0.32681265473365784,0.056199558079242706
1789033778220206300,0.860206298828125,-0.001221729558892548,-0.4056142270565033,0.009162971749901772
1789033778230132000,0.870132080078125,0.027488915249705315,-0.45937031507492065,0.015271619893610477
1789033778240057300,0.880057373046875,0.009773836471140385,-0.526565432548523,0.05253437161445618
1789033778249983000,0.88998291015625,-0.05436696484684944,-0.675616443157196,0.08002328872680664
1789033778259908400,0.899908447265625,-0.13439024984836578,-0.813671886920929,0.11911863088607788
1789033778269833700,0.909833740234375,-0.19730933010578156,-0.8790343999862671,0.1740964651107788
1789033778279759400,0.91975927734375,-0.2522871494293213,-0.9303470849990845,0.22174391150474548
1789033778289684700,0.929684814453125,-0.2877173125743866,-1.0109812021255493,0.26878049969673157
1789033778299610400,0.9396103515625,-0.2993237376213074,-1.094058871269226,0.318871408700943
1789033778309535700,0.94953564453125,-0.3066541254520416,-1.173471212387085,0.35124725103378296
1789033778319461000,0.959461181640625,-0.2981020212173462,-1.2260055541992188,0.37751442193984985
1789033778329386800,0.96938671875,-0.30482152104377747,-1.2797616720199585,0.3946186602115631
1789033778339312000,0.97931201171875,-0.3591884970664978,-1.2553271055221558,0.4153880476951599
1789033778349237800,0.98923779296875,-0.39278605580329895,-1.1264346837997437,0.4679224193096161
1789033778359163100,0.9991630859375,-0.4153880476951599,-1.0653481483459473,0.5027416944503784
1789033778369088500,1.009088623046875,-0.4575377106666565,-1.043357014656067,0.5302306413650513
1789033778379014100,1.01901416015625,-0.40744680166244507,-1.0103703737258911,0.5571087002754211
1789033778388939500,1.028939453125,-0.19669845700263977,-1.0140355825424194,0.555276095867157
1789033778398865200,1.038865234375,-0.04886918142437935,-1.028085470199585,0.554665207862854
1789033778408790500,1.04879052734375,0,-1.0329723358154297,0.5839866995811462
1789033778418716000,1.0587158203125,0.020158538594841957,-1.1252129077911377,0.6426297426223755
1789033778428641500,1.0686416015625,0.014049889519810677,-1.2748748064041138,0.778241753578186
1789033778438567000,1.07856689453125,-0.02932151034474373,-1.3548980951309204,0.9602794051170349
1789033778448492500,1.088492431640625,-0.04581485688686371,-1.3359612226486206,1.0885610580444336
1789033778458418000,1.09841796875,-0.0054977829568088055,-1.2315033674240112,1.1392627954483032
1789033778468343300,1.10834326171875,0.0818558782339096,-1.1948515176773071,1.163697361946106
1789033778478269000,1.11826904296875,0.20647229254245758,-1.3017528057098389,1.1820234060287476
1789033778488194300,1.1281943359375,0.3634645342826843,-1.5125012397766113,1.2437206506729126
1789033778498120000,1.138119873046875,0.49418962001800537,-1.7599014043807983,1.3671153783798218
1789033778508045300,1.14804541015625,0.5766563415527344,-2.022573232650757,1.4508038759231567
1789033778517970700,1.157970703125,0.627968966960907,-2.178954601287842,1.3939933776855469
1789033778527896300,1.167896240234375,0.6988292932510376,-2.241262912750244,1.1252129077911377
1789033778537821700,1.17782177734375,0.7562506198883057,-2.1416919231414795,0.7226530313491821
1789033778547747300,1.187747314453125,0.8112284541130066,-1.9181153774261475,0.3072649836540222
1789033778557672700,1.197672607421875,0.8600975871086121,-1.7666209936141968,-0.050090912729501724
1789033778567598000,1.20759814453125,0.9511164426803589,-1.757457971572876,-0.25900667905807495
1789033778577523700,1.217523681640625,1.0830632448196411,-1.8894047737121582,-0.2767217457294464
1789033778587449000,1.227448974609375,1.2431098222732544,-2.1978914737701416,-0.14660754799842834
1789033778597374700,1.237374755859375,1.4440842866897583,-2.59312105178833,0.11484257876873016
1789033778607300000,1.247300048828125,1.6682716608047485,-3.0250024795532227,0.4563159942626953
1789033778617225500,1.2572255859375,1.8167119026184082,-3.4691011905670166,0.7086031436920166
1789033778627151000,1.267151123046875,1.9339978694915771,-3.7403249740600586,0.6597339510917664
1789033778637076500,1.277076416015625,1.833205223083496,-3.671908140182495,0.2663370370864868
1789033778647002000,1.287002197265625,1.6896519660949707,-3.428173065185547,-0.33597561717033386
1789033778656927500,1.296927490234375,1.5680898427963257,-3.0463826656341553,-0.9077450633049011
1789033778666852900,1.306852783203125,1.4666863679885864,-2.6951353549957275,-1.3060288429260254
1789033778676778500,1.316778564453125,1.4679080247879028,-2.4568982124328613,-1.479514479637146
1789033778686703900,1.326703857421875,1.766010046005249,-2.381150960922241,-1.4825688600540161
1789033778696629500,1.33662939453125,2.450178623199463,-2.4691154956817627,-1.4410300254821777
1789033778706555000,1.346554931640625,3.0689847469329834,-3.0213372707366943,-1.22234046459198
1789033778716480300,1.356480224609375,3.677406072616577,-4.0952372550964355,-0.7990111112594604
1789033778726406000,1.366406005859375,3.8765478134155273,-4.830718517303467,-0.4514290690422058
1789033778736331300,1.376331298828125,3.6749625205993652,-5.203346252441406,-0.11239911615848541
1789033778746257000,1.3862568359375,3.2198681831359863,-5.172192096710205,0.05742128938436508
1789033778756182300,1.396182373046875,2.7562217712402344,-4.8520989418029785,0.011606430634856224
1789033778766108000,1.40610791015625,2.480721950531006,-4.2259626388549805,-0.25045454502105713
1789033778776033300,1.416033203125,2.4019203186035156,-3.3402085304260254,-0.7910698652267456
1789033778785958700,1.425958740234375,2.5082108974456787,-2.6022839546203613,-1.2828160524368286
1789033778795884000,1.435884033203125,2.6920809745788574,-2.414137601852417,-1.536935806274414
1789033778805809700,1.4458095703125,2.858236312866211,-2.612057685852051,-1.6145156621932983
1789033778815735300,1.4557353515625,2.9181010723114014,-2.8295257091522217,-1.5497639179229736
1789033778825660700,1.46566064453125,2.9608616828918457,-2.97857666015625,-1.3292417526245117
1789033778835586000,1.4755859375,3.062265157699585,-3.0775368213653564,-0.9804379940032959
1789033778845511400,1.485511474609375,3.1282384395599365,-2.959028959274292,-0.5925388336181641
1789033778855437000,1.49543701171875,3.029278516769409,-2.6193881034851074,-0.27550002932548523
1789033778865362400,1.505362548828125,2.8344125747680664,-2.1423027515411377,-0.12095122784376144
1789033778875288000,1.5152880859375,2.665203094482422,-1.7458515167236328,-0.16554436087608337
1789033778885213400,1.52521337890625,2.621220827102661,-1.6352850198745728,-0.34147340059280396
1789033778895138800,1.535138916015625,2.6560399532318115,-1.6914845705032349,-0.5387827157974243
1789033778905064400,1.545064453125,2.7623305320739746,-1.813657522201538,-0.7104357481002808
1789033778914989800,1.55498974609375,2.9443681240081787,-1.8448116779327393,-0.8093958497047424
1789033778924915500,1.56491552734375,3.089754104614258,-1.554650902748108,-0.9089667797088623
1789033778934840800,1.5748408203125,3.400684118270874,-1.0861176252365112,-1.0965023040771484
1789033778944766200,1.58476611328125,3.492924690246582,-0.6004800796508789,-1.211344838142395
1789033778954691800,1.59469189453125,3.1031930446624756,-0.07757982611656189,-1.3029745817184448
1789033778964617200,1.6046171875,2.546084403991699,0.33536475896835327,-1.3390156030654907
1789033778974542800,1.61454296875,2.1276419162750244,0.5198459029197693,-1.2736530303955078
1789033778984468200,1.62446826171875,1.896124243736267,0.4269944727420807,-1.1215476989746094
1789033778994393600,1.6343935546875,1.7079778909683228,0.2974911332130432,-0.8472694754600525
1789033779004319200,1.6443193359375,1.4605777263641357,0.22174391150474548,-0.4422661066055298
1789033779014244600,1.65424462890625,1.2553271055221558,-0.01649334840476513,-0.08674279600381851
1789033779024170000,1.664169921875,1.0543526411056519,-0.14172062277793884,0.19853104650974274
1789033779034095600,1.674095703125,0.8869756460189819,-0.2009745091199875,0.37751442193984985
1789033779044021000,1.68402099609375,0.7757982611656189,-0.3243691921234131,0.4367683231830597
1789033779053947400,1.693947509765625,0.7281508445739746,-0.7159335017204285,0.39278605580329895
1789033779063872000,1.7038720703125,0.5766563415527344,-0.905912458896637,0.4428769648075104
1789033779073797400,1.71379736328125,0.41294458508491516,-0.9065233469009399,0.5204567909240723
1789033779083723000,1.723722900390625,0.2669478952884674,-0.8289434909820557,0.6053670048713684
1789033779093648400,1.7336484375,0.12461641430854797,-0.7825177907943726,0.7263182401657104
1789033779103574000,1.743573974609375,0.043371398001909256,-0.8124501705169678,0.7812960743904114
1789033779113499400,1.75349951171875,0.013439024798572063,-0.7043271064758301,0.7831286191940308
1789033779123424800,1.7634248046875,-0.007941242307424545,-0.5070177912712097,0.7556397318840027
1789033779133350400,1.773350341796875,-0.007330377586185932,-0.27855435013771057,0.6359102129936218
1789033779143275800,1.78327587890625,-0.010384701192378998,0.001832594396546483,0.44837474822998047
1789033779153201400,1.793201416015625,-0.033597562462091446,0.17898337543010712,0.3298669755458832
1789033779163126800,1.803126708984375,-0.08124501258134842,0.2467893660068512,0.2565632164478302
1789033779173052200,1.81305224609375,-0.15088360011577606,0.15577052533626556,0.17898337543010712
1789033779182977800,1.822977783203125,-0.2761108875274658,0.04276053607463837,0.12644900381565094
1789033779192903200,1.832903076171875,-0.4062250852584839,-0.09834922850131989,0.09285144507884979
1789033779202828500,1.84282861328125,-0.5210676789283752,-0.2559523284435272,0.12705987691879272
1789033779212754200,1.852754150390625,-0.6120865345001221,-0.3500255048274994,0.22418737411499023
1789033779222679600,1.862679443359375,-0.667064368724823,-0.347582072019577,0.2968802750110626
1789033779274647600,1.9146474609375,-0.37262752652168274,0.1282816082239151,-0.13561198115348816
1789033779284573000,1.924572998046875,-0.31154105067253113,0.19181154668331146,-0.09896009415388107
1789033779294498600,1.93449853515625,-0.2614501118659973,0.2052505612373352,-0.020769402384757996
1789033779304424000,1.944423828125,-0.23457208275794983,0.15638138353824615,0.1026252806186676
1789033779314349300,1.954349365234375,-0.25411975383758545,0.04276053607463837,0.25411975383758545
1789033779324275000,1.96427490234375,-0.2809978127479553,-0.13683371245861053,0.38728827238082886
1789033779334200300,1.974200439453125,-0.3090975880622864,-0.3970620930194855,0.5632173418998718
1789033779344126000,1.9841259765625,-0.35796675086021423,-0.6976075768470764,0.8210022449493408
1789033779354051300,1.99405126953125,-0.3909534513950348,-1.0140355825424194,1.0567960739135742
1789033779363976700,2.003976806640625,-0.3787361681461334,-1.2644901275634766,1.2620465755462646
1789033779373902300,2.01390234375,-0.2663370370864868,-1.2046253681182861,1.266933560371399
1789033779383827700,2.02382763671875,-0.09407317638397217,-0.9798271059989929,1.0030399560928345
1789033779393753000,2.033753173828125,0.14049890637397766,-0.7086031436920166,0.730594277381897
1789033779403678700,2.0436787109375,0.6597339510917664,-0.20647229254245758,0.37140578031539917
1789033779413604000,2.05360400390625,0.9639446139335632,0.3689623177051544,0.02932151034474373
1789033779423529700,2.06352978515625,0.9272927641868591,0.39217519760131836,-0.030543239787220955
1789033779433455000,2.073455078125,1.0751219987869263,0.2052505612373352,-0.08429934084415436
1789033779443380500,2.08338037109375,1.0787872076034546,0.15515965223312378,-0.05864302068948746
1789033779453306000,2.09330615234375,0.9566142559051514,0.03543015569448471,-0.014660755172371864
1789033779463231500,2.1032314453125,0.7648026943206787,-0.17226386070251465,0.06841685622930527
1789033779473156900,2.113156982421875,0.7819069027900696,-0.39217519760131836,0.19669845700263977
1789033779483082500,2.12308251953125,0.8356630206108093,-0.0256563201546669,0.2883281707763672
1789033779493008000,2.1330078125,0.43860089778900146,0.31031930446624756,0.19425499439239502
1789033779502933200,2.142933349609375,0.11606431007385254,0.020769402384757996,0.017104214057326317
1789033779512859000,2.15285888671875,-0.10873392969369888,-0.5045742988586426,0.37262752652168274
1789033779522784300,2.1627841796875,-0.34574946761131287,-1.3280199766159058,1.1533126831054688
1789033779532709600,2.172709716796875,-0.5375609993934631,-2.1282529830932617,1.6493349075317383
1789033779542635300,2.18263525390625,-0.5656607747077942,-2.2614214420318604,1.4966187477111816
1789033779552560600,2.192560546875,-0.5290089249610901,-1.3561197519302368,1.1643083095550537
1789033779562486300,2.202486328125,-0.411722868680954,-0.4459312856197357,0.778241753578186
1789033779572411600,2.21241162109375,-0.2675587832927704,0.44959646463394165,0.7867938280105591
1789033779582337000,2.2223369140625,-0.2370155304670334,0.9126319885253906,1.081230640411377
1789033779592262700,2.2322626953125,-0.38240134716033936,0.41294458508491516,0.9944878816604614
1789033779602188000,2.24218798828125,-0.5754346251487732,-0.046425722539424896,0.9859357476234436
1789033779612113400,2.252113525390625,-0.7525854110717773,-0.21868959069252014,1.091004490852356
1789033779622039000,2.2620390625,-0.9737184643745422,-0.7293725609779358,1.1129956245422363
1789033779631964400,2.27196435546875,-0.94439697265625,-1.3695588111877441,1.8887939453125
1789033779641889800,2.281889892578125,-1.1496474742889404,-0.924849271774292,2.8148648738861084
1789033779651815400,2.2918154296875,-1.4868448972702026,-1.6212351322174072,2.470337152481079
1789033779661740800,2.30174072265625,-1.33290696144104,-1.916893720626831,1.693317174911499
1789033779671666400,2.31166650390625,-1.0152572393417358,-0.695164144039154,1.7727296352386475
1789033779681591800,2.321591796875,-0.5962040424346924,-0.5534434914588928,0.9676098227500916
1789033779691517200,2.33151708984375,-0.4166097939014435,0.19669845700263977,0.31154105067253113
1789033779701442800,2.34144287109375,-0.33108872175216675,1.156977891921997,0.3689623177051544
1789033779711368200,2.3513681640625,-0.38240134716033936,1.2461642026901245,0.7440332770347595
1789033779721293600,2.36129345703125,-0.38728827238082886,0.2761108875274658,0.20158538222312927
1789033779731219200,2.37121923828125,-0.29077163338661194,-0.13927717506885529,0.014660755172371864
1789033779741144600,2.38114453125,-0.21502439677715302,-0.3750709891319275,0.10140355676412582
1789033779751070000,2.391070068359375,-0.35063639283180237,-0.44837474822998047,0.25900667905807495
1789033779760995600,2.40099560546875,-0.6768381595611572,-0.6805033683776855,0.39339691400527954
1789033779770921000,2.4109208984375,-1.1142174005508423,-0.813671886920929,0.6560688018798828
1789033779780846600,2.4208466796875,-1.2046253681182861,-0.9920443892478943,0.9407317638397217
1789033779790772000,2.43077197265625,-1.1533126831054688,-1.3023637533187866,0.9676098227500916
1789033779800697300,2.440697265625,-1.1606431007385254,-1.51616632938385,0.6976075768470764
1789033779810623000,2.450623046875,-1.2461642026901245,-1.3964369297027588,0.7806851863861084
1789033779820548400,2.46054833984375,-1.3817760944366455,-1.646891474723816,1.0946696996688843
1789033779830473700,2.4704736328125,-1.5625921487808228,-2.4740023612976074,1.3988803625106812
1789033779840399400,2.4803994140625,-1.4196497201919556,-3.1777186393737793,1.4648537635803223
1789033779850324700,2.49032470703125,-1.1044435501098633,-3.5979936122894287,1.7947207689285278
1789033779860250000,2.50025,-1.0848958492279053,-4.959000110626221,2.1197006702423096
1789033779870175700,2.51017578125,-1.2986985445022583,-4.833162307739258,2.1111485958099365
1789033779880101000,2.52010107421875,-0.8368847370147705,-3.3658649921417236,1.5687007904052734
1789033779890026800,2.53002685546875,-0.3555232882499695,-2.2333216667175293,0.7257073521614075
1789033779899952000,2.5399521484375,-0.3298669755458832,-2.1087052822113037,0.09407317638397217
1789033779909877500,2.54987744140625,-0.5864301919937134,-2.4959933757781982,-0.5473348498344421
1789033779919803100,2.55980322265625,-0.5937605500221252,-2.937037944793701,-1.598022222518921
1789033779929728500,2.569728515625,0.7990111112594604,-2.2760822772979736,-2.014631986618042
1789033779939654000,2.57965380859375,1.3854413032531738,-1.08978271484375,-1.8228205442428589
1789033779949579500,2.58957958984375,1.0409135818481445,-1.0702351331710815,-1.6481131315231323
1789033779959505000,2.5995048828125,0.627968966960907,-0.9920443892478943,-0.9004147052764893
1789033779969430300,2.60943017578125,0.18814635276794434,-0.9175189137458801,-0.3225366175174713
1789033779979356000,2.61935595703125,-0.3090975880622864,-0.8442151546478271,-0.19914191961288452
1789033779989281300,2.62928125,-0.5021308660507202,-0.2822195291519165,-0.27488914132118225
1789033779999207000,2.63920703125,-0.5045742988586426,0.6059778332710266,-0.31520622968673706
1789033780009132300,2.64913232421875,-0.40805765986442566,1.0360267162322998,-0.17592905461788177
1789033780019057700,2.6590576171875,-0.3298669755458832,1.1166608333587646,0.1747073233127594
1789033780028983300,2.6689833984375,-0.32131487131118774,1.1887428760528564,0.5632173418998718
1789033780038908700,2.67890869140625,-0.30543237924575806,1.276707410812378,0.8100066781044006
1789033780048834000,2.688833984375,-0.26511532068252563,1.2803726196289062,0.8845322132110596
1789033780058759700,2.698759765625,-0.020769402384757996,1.8142683506011963,0.7574723362922668
1789033780068685000,2.70868505859375,0.5424479246139526,2.7256786823272705,0.24923282861709595
1789033780078610400,2.7186103515625,0.7257073521614075,2.8038692474365234,0.2406807243824005
1789033780088536000,2.7285361328125,0.6487383842468262,1.5870267152786255,0.6389645338058472
1789033780098461400,2.73846142578125,0.5229002237319946,1.331685185432434,0.972496747970581
1789033780108387000,2.748386962890625,0.5766563415527344,2.7427828311920166,0.7648026943206787
1789033780118312400,2.7583125,0.823445737361908,3.725053310394287,1.1557561159133911
1789033780128237800,2.76823779296875,0.45326167345046997,2.5167629718780518,-0.3836230933666229
1789033780138163200,2.7781630859375,0.2577849328517914,2.5558581352233887,-0.8429933786392212
1789033780148088600,2.788088623046875,0.46914416551589966,3.9095346927642822,1.1740821599960327
1789033780158014200,2.79801416015625,-0.012217295356094837,0.9004147052764893,0.2565632164478302
1789033780167939600,2.807939697265625,-0.0720820426940918,0.3652971386909485,-0.11239911615848541
1789033780177865000,2.817864990234375,0.33597561717033386,2.400698661804199,1.6603304147720337
1789033780187790300,2.827790283203125,0.13439024984836578,2.075718402862549,1.9853105545043945
1789033780197715700,2.8377158203125,0.37262752652168274,1.6077960729599,-0.034208428114652634
1789033780207641000,2.84764111328125,0.665842592716217,2.9602506160736084,-0.6780598759651184
1789033780217566500,2.85756640625,0.4105011224746704,2.7012441158294678,-0.7220421433448792
1789033780227492000,2.8674921875,-0.024434590712189674,1.441640853881836,-0.44348782300949097
1789033780237417500,2.87741748046875,-0.11117739230394363,0.5656607747077942,-0.050090912729501724
1789033780247343000,2.887343017578125,-0.10018182545900345,0.1588248461484909,0.11484257876873016
1789033780257268500,2.8972685546875,-0.27977606654167175,-0.22479823231697083,0.16615521907806396
1789033780267193900,2.90719384765625,-0.5839866995811462,-0.5656607747077942,0.6548470258712769
1789033780277119500,2.917119384765625,-1.0201442241668701,-1.4391974210739136,1.0189224481582642
1789033780287044900,2.927044921875,-1.361006736755371,-2.266308307647705,0.7293725609779358
1789033780296970200,2.93697021484375,-1.4746276140213013,-2.42268967628479,0.94439697265625
1789033780306896000,2.946895751953125,-1.461188554763794,-2.5937318801879883,0.9712749719619751
1789033780316821200,2.9568212890625,-0.9810488224029541,-2.0610578060150146,0.627968966960907
1789033780326746600,2.96674658203125,0.16004657745361328,-0.4471530318260193,-0.09040798991918564
1789033780336672300,2.97667236328125,0.2834412455558777,0.7379246354103088,-0.5302306413650513
1789033780346597600,2.98659765625,-0.3689623177051544,0.8674280047416687,-0.46425724029541016
1789033780356523300,2.996523193359375,-0.6707295179367065,0.8271108865737915,-0.3127627670764923
1789033780366448600,3.00644873046875,-0.8026763200759888,0.3237583339214325,-0.06352993845939636
1789033780376374000,3.0163740234375,-0.8649845123291016,-0.4764745235443115,0.09896009415388107
1789033780386299600,3.026299560546875,-0.823445737361908,-0.9053016304969788,-0.0769689604640007
1789033780396225000,3.03622509765625,-0.6389645338058472,-0.9908226728439331,-0.5619956254959106
1789033780406150400,3.046150390625,-0.3897317349910736,-1.102000117301941,-1.0604612827301025
1789033780416076000,3.056075927734375,-0.11362084746360779,-1.2522728443145752,-1.4831796884536743
1789033780426001400,3.06600146484375,0.1539379209280014,-1.1423171758651733,-1.8130466938018799
1789033780435926800,3.0759267578125,0.4214966893196106,-0.8271108865737915,-2.062279462814331
1789033780445852400,3.085852294921875,0.6963858604431152,-0.5192350745201111,-2.20155668258667
1789033780455777800,3.09577783203125,0.9798271059989929,-0.1282816082239151,-2.2724170684814453
1789033780465703400,3.105703369140625,1.4782928228378296,0.4056142270565033,-2.377485752105713
1789033780475628800,3.11562890625,1.802051067352295,0.8600975871086121,-2.3200645446777344
1789033780485554200,3.12555419921875,1.935219645500183,1.0115920305252075,-2.090379238128662
1789033780495479800,3.135479736328125,2.12580943107605,1.1325433254241943,-1.8545855283737183
1789033780505405200,3.1454052734375,2.190561056137085,1.1753038167953491,-1.5784746408462524
1789033780515330600,3.15533056640625,2.2736387252807617,1.0445787906646729,-1.2486076354980469
1789033780525256200,3.165256103515625,2.431241750717163,0.7867938280105591,-0.9138537049293518
1789033780535181600,3.175181640625,2.4776675701141357,0.46547895669937134,-0.6328558921813965
1789033780545107000,3.18510693359375,2.3958115577697754,0.2101374864578247,-0.4422661066055298
1789033780555032600,3.195032470703125,2.2455389499664307,0.16615521907806396,-0.3860665261745453
1789033780564958000,3.2049580078125,1.9853105545043945,0.37140578031539917,-0.3836230933666229
1789033780574883300,3.21488330078125,1.6627739667892456,0.5778780579566956,-0.38728827238082886
1789033780584809000,3.22480908203125,1.3267983198165894,0.5900954008102417,-0.24434591829776764
1789033780594734300,3.234734375,0.9663881063461304,0.4068359434604645,0.010995565913617611
1789033780604660000,3.244659912109375,0.5876519083976746,0.29077163338661194,0.29443681240081787
1789033780614585300,3.25458544921875,0.16249002516269684,0.4361574649810791,0.4984656572341919
1789033780624510700,3.2645107421875,-0.2761108875274658,0.7073814272880554,0.665842592716217
1789033780634436400,3.274436279296875,-0.7904590368270874,0.9468404054641724,0.6878337264060974
1789033780644361700,3.28436181640625,-1.535714030265808,0.8955277800559998,0.7000510096549988
1789033780654287000,3.294287109375,-2.4239113330841064,0.4581485986709595,0.6035344004631042
1789033780664212700,3.304212646484375,-2.8771731853485107,0.20647229254245758,0.45448338985443115
1789033780674138000,3.31413818359375,-2.8490734100341797,0.009773836471140385,0.5558869242668152
1789033780684063500,3.3240634765625,-3.2058184146881104,-0.8686497211456299,0.0769689604640007
1789033780693989000,3.333989013671875,-3.4880378246307373,-1.2363903522491455,-1.2424989938735962
1789033780703914500,3.34391455078125,-3.1789402961730957,-0.19303326308727264,-1.7715078592300415
1789033780713840000,3.353840087890625,-2.553414821624756,0.972496747970581,-1.9657628536224365
1789033780723765500,3.363765625,-2.134361505508423,1.6395610570907593,-2.086714029312134
1789033780733691000,3.37369091796875,-2.0390665531158447,1.5540399551391602,-1.9364413022994995
1789033780743616500,3.383616455078125,-2.0610578060150146,0.8857539296150208,-1.7043126821517944
1789033780753542000,3.3935419921875,-2.070831537246704,0.26511532068252563,-1.5968005657196045
1789033780763467300,3.40346728515625,-1.9278892278671265,0.18325942754745483,-1.7287473678588867
1789033780773393000,3.413392822265625,-1.5845832824707031,0.37140578031539917,-1.9901974201202393
1789033780783318300,3.423318359375,-1.12765634059906,0.5241219997406006,-2.062279462814331
1789033780793243600,3.43324365234375,-0.7599157691001892,0.5143481492996216,-1.8814635276794434
1789033780803169300,3.443169189453125,-0.4972439408302307,0.3176496922969818,-1.4819579124450684
1789033780813094700,3.4530947265625,-0.20891575515270233,0.004886918235570192,-0.861319363117218
1789033780823020300,3.463020263671875,0.19792018830776215,-0.31520622968673706,-0.09162971377372742
1789033780832945700,3.472945556640625,0.7024945020675659,-0.4923570156097412,0.7183769941329956
1789033780842871000,3.48287109375,1.1081087589263916,-0.526565432548523,1.507614254951477
1789033780852796700,3.492796630859375,1.3121376037597656,-0.5754346251487732,2.2369868755340576
1789033780862722000,3.50272216796875,1.4636319875717163,-0.4874700903892517,3.009119987487793
1789033780872647400,3.5126474609375,1.5723659992218018,-0.27366742491722107,3.7397141456604004
1789033780882573000,3.522572998046875,1.5968005657196045,-0.10140355676412582,4.338361740112305
1789033780892498400,3.53249853515625,1.3671153783798218,-0.4825831651687622,4.736645698547363
1789033780902423800,3.542423828125,0.31031930446624756,-2.2540910243988037,3.403738498687744
1789033780912349400,3.552349365234375,-0.8649845123291016,-3.7433793544769287,0.03176496922969818
1789033780922274800,3.56227490234375,-0.5534434914588928,-2.2565345764160156,-1.518609881401062
1789033780932200400,3.572200439453125,0.15515965223312378,1.4025455713272095,-0.8784235715866089
1789033780942125800,3.582125732421875,0.34086254239082336,2.8539602756500244,-0.3066541254520416
1789033780952051200,3.59205126953125,0.235793799161911,1.5296053886413574,0.2761108875274658
1789033780961976800,3.601976806640625,0.11362084746360779,-0.18203771114349365,1.0274745225906372
1789033780971902200,3.611902099609375,0.11239911615848541,-1.3658936023712158,1.442862629890442
1789033780981827600,3.62182763671875,0.13561198115348816,-1.6725478172302246,1.3927717208862305
1789033780991753200,3.631753173828125,0.16249002516269684,-1.3866630792617798,0.9993748068809509
1789033781001678600,3.6416787109375,0.1649334877729416,-1.0115920305252075,0.5143481492996216
1789033781011604000,3.65160400390625,0.04764745384454727,-0.7599157691001892,0.10018182545900345
1789033781021529600,3.661529541015625,-0.09040798991918564,-0.5790998339653015,-0.20158538222312927
1789033781031455000,3.671455078125,-0.20402882993221283,-0.4276053309440613,-0.30543237924575806
1789033781041380600,3.681380615234375,-0.3090975880622864,-0.5229002237319946,-0.1539379209280014
1789033781051306000,3.691305908203125,-0.42394015192985535,-0.9908226728439331,0.43004879355430603
1789033781061231400,3.7012314453125,-0.370184063911438,-2.008523464202881,0.9114102721214294
1789033781071157000,3.711156982421875,-0.5082395076751709,-2.9688029289245605,1.5687007904052734
1789033781081082400,3.721082275390625,-0.5778780579566956,-3.1789402961730957,1.7519601583480835
1789033781091007700,3.7310078125,-0.3543015718460083,-1.8814635276794434,1.0751219987869263
1789033781100933400,3.740933349609375,-0.1954767256975174,-0.7538071274757385,0.3335321843624115
1789033781110858800,3.750858642578125,-0.19303326308727264,-0.7721330523490906,0.10384701192378998
1789033781120784100,3.7607841796875,-0.3445277214050293,-1.7091996669769287,0.3652971386909485
1789033781130709800,3.770709716796875,-0.3335321843624115,-2.431241750717163,0.4105011224746704
1789033781140635100,3.78063525390625,-0.03543015569448471,-2.4349069595336914,-0.046425722539424896
1789033781150560800,3.790560791015625,1.0360267162322998,-2.3799290657043457,-1.0079269409179688
1789033781160486100,3.800486083984375,2.175900459289551,-2.134361505508423,-1.3451242446899414
1789033781170411500,3.81041162109375,1.6786564588546753,-2.0916008949279785,-0.7867938280105591
1789033781180337200,3.820337158203125,1.0836740732192993,-2.1392483711242676,-0.2981020212173462
1789033781190262500,3.830262451171875,0.6047561168670654,-1.588248372077942,0.06963858753442764
1789033781200188000,3.84018798828125,0.27488914132118225,-0.5913171172142029,0.36163195967674255
1789033781210113500,3.850113525390625,0.013439024798572063,0.08796452730894089,0.4361574649810791
1789033781220039000,3.860038818359375,-0.2370155304670334,0.5229002237319946,0.44959646463394165
1789033781229964300,3.86996435546875,-0.5986474752426147,0.998153030872345,0.41294458508491516
1789033781239890000,3.879889892578125,-0.9199623465538025,1.7470732927322388,0.24923282861709595
1789033781249815300,3.889815185546875,-1.072678565979004,2.90282940864563,-0.17592905461788177
1789033781259740700,3.89974072265625,-1.0604612827301025,4.212523460388184,-0.39828383922576904
1789033781269666300,3.909666259765625,-0.9077450633049011,4.918683052062988,-0.20280711352825165
1789033781279591700,3.919591796875,-0.8625410795211792,4.751306056976318,0.0769689604640007
1789033781289517300,3.929517333984375,-0.9847140312194824,3.830122232437134,0.3591884970664978
1789033781299442700,3.939442626953125,-0.9199623465538025,2.3848161697387695,0.7257073521614075
1789033781309368000,3.9493681640625,-0.5143481492996216,1.5430444478988647,1.100778341293335
1789033781319293700,3.959293701171875,-0.27977606654167175,1.7104213237762451,1.0848958492279053
1789033781329219000,3.969218994140625,-0.09407317638397217,2.9859070777893066,1.5015056133270264
1789033781339144400,3.97914453125,-0.1331685185432434,2.1795654296875,0.685390293598175
1789033781349070000,3.989070068359375,-0.3017672002315521,1.666439175605774,-0.6181951761245728
1789033781358995500,3.998995361328125,-0.1905898153781891,2.6132795810699463,-0.9114102721214294
1789033781368920800,4.0089208984375,-0.2614501118659973,3.3353216648101807,-0.5558869242668152
1789033781378846500,4.018846435546875,0.036651886999607086,3.316995859146118,0.46425724029541016
1789033781388771800,4.028771728515625,0.16249002516269684,1.0775654315948486,-0.7318159937858582
1789033781398697500,4.038697509765625,0.22968515753746033,0.9688315391540527,-0.3530798554420471
1789033781408622800,4.048622802734375,0.19914191961288452,0.7452550530433655,0.1185077652335167
1789033781418548200,4.05854833984375,0.001221729558892548,-0.5595521330833435,0.4557051360607147
1789033781428473900,4.068473876953125,0.13927717506885529,-0.7159335017204285,0.13194678723812103
1789033781438399200,4.078399169921875,0.4825831651687622,0.0977383628487587,-0.018325943499803543
1789033781448324600,4.08832470703125,0.5668824911117554,0.1282816082239151,0.07330377399921417
1789033781458250200,4.098250244140625,0.4984656572341919,-0.6426297426223755,0.46914416551589966
1789033781468175600,4.108175537109375,0.4776962697505951,-1.4477494955062866,0.7867938280105591
1789033781478101000,4.11810107421875,0.4776962697505951,-2.0195188522338867,0.8894191384315491
1789033781488026600,4.128026611328125,0.5143481492996216,-2.472780704498291,0.8491020202636719
1789033781497952000,4.137951904296875,0.5925388336181641,-2.7586653232574463,0.647516667842865
1789033781507877600,4.147877685546875,0.6010909676551819,-2.905272960662842,0.33108872175216675
1789033781517803000,4.157802978515625,0.7024945020675659,-2.889390468597412,-0.16126830875873566
1789033781527728400,4.167728271484375,0.6291907429695129,-3.1691665649414062,-0.6792816519737244
1789033781537654000,4.177654052734375,0.4166097939014435,-3.6810710430145264,-1.1814124584197998
1789033781547579400,4.187579345703125,-0.2467893660068512,-4.111119747161865,-1.2510510683059692
1789033781557504800,4.1975048828125,-0.8796452879905701,-3.7262752056121826,-1.1081087589263916
1789033781567430400,4.207430419921875,-0.934623122215271,-2.3567163944244385,-1.082452416419983
1789033781577355800,4.217355712890625,-0.5852084755897522,-1.9584324359893799,-0.9761618971824646
1789033781587281200,4.22728125,-0.16004657745361328,-2.4239113330841064,-0.7672461867332458
1789033781597206800,4.237206787109375,0.31031930446624756,-2.1306962966918945,-0.7672461867332458
1789033781607132200,4.247132080078125,0.5705476999282837,-1.3561197519302368,-1.0348049402236938
1789033781617057800,4.257057861328125,0.5827649831771851,-1.0286962985992432,-1.2058470249176025
1789033781626983200,4.266983154296875,0.647516667842865,-0.943175196647644,-1.450192928314209
1789033781636908500,4.276908447265625,0.8112284541130066,-0.7379246354103088,-1.6432262659072876
1789033781646834200,4.286834228515625,1.0115920305252075,-0.4214966893196106,-1.693317174911499
1789033781656759600,4.296759521484375,1.3072506189346313,-0.010995565913617611,-1.6187916994094849
1789033781666685000,4.306684814453125,1.5858049392700195,0.34086254239082336,-1.4074324369430542
1789033781676610600,4.316610595703125,1.8619158267974854,0.4862483739852905,-1.1643083095550537
1789033781686536000,4.326535888671875,2.1502439975738525,0.6169734001159668,-1.0079269409179688
1789033781696461300,4.33646142578125,2.1502439975738525,0.6169734001159668,-1.0079269409179688
1789033781728860000,4.36885986328125,5.412872791290283,1.4098758697509766,-1.0445787906646729
1789033781738785300,4.378785400390625,7.331599235534668,1.71836256980896,-0.4056142270565033
1789033781748711000,4.3887109375,8.017600059509277,2.607170820236206,0.2657261788845062
1789033781758636300,4.39863623046875,7.2888383865356445,4.009105682373047,0.10201441496610641
1789033781768561700,4.408561767578125,6.216159820556641,4.077522277832031,-0.25534147024154663
1789033781778487300,4.4184873046875,5.36033821105957,2.926042318344116,0.05436696484684944
1789033781788412700,4.42841259765625,3.062875986099243,0.8374956250190735,-0.24984370172023773
1789033781798338300,4.43833837890625,0.07941242307424545,-0.3995055556297302,-1.2534945011138916
1789033781808263700,4.448263671875,0.5962040424346924,-0.7043271064758301,-1.4898991584777832
1789033781818188800,4.458188720703125,1.4367539882659912,-0.5656607747077942,-1.2620465755462646
1789033781828114200,4.4681142578125,1.6365067958831787,-0.09712749719619751,-0.7696896195411682
1789033781838039800,4.478039794921875,1.37078058719635,0.1490510106086731,-0.2675587832927704
1789033781847965200,4.487965087890625,0.9285144805908203,0.3341430425643921,0.16065743565559387
1789033781857890600,4.497890625,0.29077163338661194,0.4862483739852905,0.3897317349910736
1789033781867816000,4.50781591796875,-0.25534147024154663,0.739757239818573,0.471587598323822
1789033781877741600,4.517741455078125,-0.5980366468429565,0.6743947267532349,0.5400044918060303
1789033781887667000,4.5276669921875,-0.9743293523788452,0.15638138353824615,0.46547895669937134
1789033781897592600,4.537592529296875,-1.626121997833252,-1.2944225072860718,-0.11178825795650482
1789033781907518000,4.54751806640625,-1.950491189956665,-2.0024147033691406,-0.6585122346878052
1789033781917443300,4.557443359375,-1.7580687999725342,-1.8393138647079468,-0.9731075763702393
1789033781927369000,4.567368896484375,-1.3658936023712158,-1.2907572984695435,-1.4734058380126953
1789033781937294300,4.57729443359375,-1.109330415725708,-0.17776164412498474,-2.1056509017944336
1789033781947219700,4.5872197265625,-0.8888082504272461,0.7391464114189148,-2.257756233215332
1789033781957145300,4.597145263671875,-0.8295543789863586,1.0879502296447754,-2.2669191360473633
1789033781967070700,4.60707080078125,-0.7855721116065979,1.3445134162902832,-2.4178028106689453
1789033781976996000,4.61699609375,-0.8026763200759888,0.8069523572921753,-2.3017385005950928
1789033781986921700,4.626921630859375,-1.9443825483322144,0.9309579133987427,-1.1771364212036133
1789033781996847000,4.63684716796875,-1.3084723949432373,0.8918625712394714,-0.2974911332130432
1789033782006772500,4.6467724609375,-0.3952295184135437,0.04276053607463837,0.0922405794262886
1789033782016698000,4.656697998046875,-0.29077163338661194,0.0360410213470459,0.12278381735086441
1789033782026623500,4.66662353515625,-0.38301220536231995,0.17776164412498474,0.009162971749901772
1789033782036548900,4.676548828125,-0.5894845128059387,0.35246896743774414,-0.23273947834968567
1789033782046474500,4.686474609375,-0.8454368710517883,0.6609556674957275,-0.4159989058971405
1789033782056400000,4.69639990234375,-1.0146464109420776,0.9602794051170349,-0.5687150955200195
1789033782066325200,4.7063251953125,-1.0415244102478027,0.9498947262763977,-0.7458658814430237
1789033782076251000,4.7162509765625,-0.13683371245861053,0.47586366534233093,-0.748920202255249
1789033782086176300,4.72617626953125,0.536339282989502,-0.18203771114349365,-0.565049946308136
1789033782096101600,4.7361015625,1.1221586465835571,-0.7049379348754883,-0.3946186602115631
1789033782106027300,4.74602734375,1.5723659992218018,-1.094058871269226,-0.09040798991918564
1789033782115952600,4.75595263671875,1.5442661046981812,-1.1074978113174438,0.21135921776294708
1789033782125878000,4.7658779296875,1.7067562341690063,-0.9651663303375244,0.41844236850738525
1789033782135803600,4.7758037109375,1.4923427104949951,-0.9615011811256409,0.15638138353824615
1789033782145729000,4.78572900390625,1.2993093729019165,-0.7745765447616577,0.06902772188186646
1789033782155654700,4.795654541015625,0.9957095980644226,-0.5393936038017273,0.01893680728971958
1789033782165580000,4.805580078125,0.9712749719619751,-0.28405213356018066,-0.037262752652168274
1789033782175505400,4.81550537109375,0.953559935092926,-0.12522727251052856,-0.03237583488225937
1789033782185430800,4.8254306640625,0.8436042666435242,-0.09590577334165573,-0.07880155742168427
1789033782195356400,4.8353564453125,0.5088503360748291,0.12461641430854797,-0.1386663019657135
1789033782205281800,4.84528173828125,0.028099779039621353,0.5247328281402588,-0.2370155304670334
1789033782215207400,4.85520751953125,-0.2107483446598053,0.9474512934684753,-0.25411975383758545
1789033782225132800,4.8651328125,-0.3335321843624115,1.0818414688110352,-0.2864955961704254
1789033782235058200,4.87505810546875,-0.35246896743774414,0.9205732345581055,-0.19242240488529205
1789033782244983800,4.88498388671875,-0.06536252796649933,0.8558215498924255,-0.22235478460788727
1789033782254909200,4.8949091796875,0.5729911923408508,1.3255765438079834,-0.12583814561367035
1789033782264834600,4.90483447265625,0.401949018239975,1.2565488815307617,0.4043924808502197
1789033782274760200,4.91476025390625,-0.1802051067352295,0.9120211005210876,0.4404335021972656
1789033782284685600,4.924685546875,-0.8955277800559998,0.34147340059280396,0.7990111112594604
1789033782294611000,4.93461083984375,-1.4789036512374878,-0.2706131041049957,0.3585776388645172
1789033782304536600,4.94453662109375,-1.4110976457595825,-1.397047758102417,-0.10323614627122879
1789033782314462000,4.9544619140625,-2.329838275909424,-1.8643592596054077,-2.0610578060150146
1789033782324387300,4.96438720703125,-1.2577705383300781,1.1496474742889404,-2.079383611679077
1789033782334313000,4.97431298828125,2.592510223388672,3.8075201511383057,-0.721431314945221
1789033782344238300,4.98423828125,1.925445795059204,2.9553637504577637,-1.117882490158081
1789033782354163700,4.994163818359375,-0.12156209349632263,2.126420259475708,-0.7977893948554993
1789033782364089300,5.00408935546875,-0.3384190797805786,0.8741474747657776,-2.3561055660247803
1789033782374014700,5.0140146484375,0.6786707639694214,1.6810998916625977,-2.360381603240967
1789033782383940000,5.023940185546875,1.442862629890442,-0.3805687427520752,-1.1136064529418945
1789033782393865700,5.03386572265625,1.9859213829040527,-2.067777395248413,-0.9883792400360107
1789033782403791000,5.043791015625,1.2388337850570679,-1.29503333568573,-0.33719736337661743
1789033782413716500,5.053716552734375,0.6841685771942139,-0.9694424271583557,-0.03909534588456154
1789033782423642000,5.06364208984375,0.14782927930355072,-0.6890554428100586,0.046425722539424896
1789033782433567500,5.0735673828125,-0.235793799161911,-0.5283980369567871,-0.056199558079242706
1789033782443492900,5.083492919921875,-0.4728093445301056,-0.4673115611076355,-0.21746785938739777
1789033782453431800,5.093431884765625,-0.7177661061286926,-0.35735589265823364,-0.21746785938739777
1789033782463357200,5.103357177734375,-0.8839213252067566,0.11362084746360779,-0.07574722915887833
1789033782473269200,5.113269287109375,-0.7476984858512878,1.0286962985992432,0.2974911332130432
1789033782483195000,5.12319482421875,-0.6328558921813965,1.8185445070266724,0.5888736248016357
1789033782493120300,5.133120361328125,-0.2706131041049957,1.8380920886993408,0.5797106623649597
1789033782503045600,5.143045654296875,-0.053145237267017365,1.5705333948135376,0.5571087002754211
1789033782512971300,5.15297119140625,0.020769402384757996,0.6597339510917664,0.2162461280822754
1789033782522896600,5.162896728515625,0.10384701192378998,-0.017104214057326317,0.08796452730894089
1789033782532822000,5.172822021484375,0.0360410213470459,-0.22296564280986786,0.034208428114652634
1789033782542747600,5.18274755859375,-0.049480047076940536,-0.1484401375055313,-0.007330377586185932
1789033782552673000,5.192673095703125,-0.09957095980644226,-0.08674279600381851,-0.03848448023200035
1789033782562598400,5.202598388671875,-0.08307760953903198,-0.15699224174022675,-0.08979712426662445
1789033782572524000,5.21252392578125,-0.06108647957444191,-0.23457208275794983,-0.10995566099882126
1789033782582449400,5.222449462890625,-0.05558869615197182,-0.2828303873538971,-0.10018182545900345
1789033782592374800,5.232374755859375,-0.0513126403093338,-0.32131487131118774,-0.08674279600381851
1789033782602300400,5.242300537109375,-0.03298669680953026,-0.3695732057094574,-0.09346231073141098
1789033782612225800,5.252225830078125,-0.020769402384757996,-0.3958403766155243,-0.11117739230394363
1789033782622151400,5.2621513671875,-0.024434590712189674,-0.4007273018360138,-0.07452550530433655
1789033782632076800,5.272076904296875,-0.002443459117785096,-0.3958403766155243,-0.001221729558892548
1789033782642002200,5.282002197265625,0.014660755172371864,-0.4147771894931793,0.07269290834665298
1789033782651927600,5.291927490234375,-0.0030543238390237093,-0.3390299379825592,0.053145237267017365
1789033782661853200,5.301853271484375,-0.05070177838206291,-0.41233372688293457,-0.06414080411195755
1789033782671778600,5.311778564453125,-0.10201441496610641,-0.44898560643196106,-0.0824667438864708
1789033782681704000,5.321703857421875,-0.10995566099882126,-0.3903425931930542,-0.03481929376721382
1789033782691629600,5.331629638671875,-0.06352993845939636,-0.3402516841888428,0.027488915249705315
1789033782701555000,5.341554931640625,-0.020158538594841957,-0.3695732057094574,0.06291907280683517
1789033782711480600,5.35148046875,-0.014049889519810677,-0.3591884970664978,0.05192350596189499
1789033782721406000,5.361406005859375,-0.014049889519810677,-0.3689623177051544,0.01954767294228077
1789033782731331300,5.371331298828125,-0.02626718580722809,-0.39339691400527954,0.0030543238390237093
1789033782741257000,5.381257080078125,-0.02626718580722809,-0.39400777220726013,0.004276053514331579
1789033782751182300,5.391182373046875,-0.02260199747979641,-0.3836230933666229,0.02260199747979641
1789033782761107700,5.401107666015625,-0.028099779039621353,-0.41233372688293457,0.020158538594841957
1789033782771033300,5.411033447265625,-0.0513126403093338,-0.4269944727420807,-0.0054977829568088055
1789033782780958700,5.420958740234375,-0.09590577334165573,-0.4569268524646759,-0.040317077189683914
1789033782790884000,5.430884033203125,-0.10445787757635117,-0.42455101013183594,-0.04459312930703163
1789033782800809700,5.440809814453125,-0.08368847519159317,-0.42943793535232544,-0.023823726922273636
1789033782810735000,5.450735107421875,-0.06597339361906052,-0.46425724029541016,-0.037262752652168274
1789033782820660500,5.460660400390625,-0.07147117704153061,-0.46914416551589966,-0.0769689604640007
1789033782830586000,5.470586181640625,-0.09040798991918564,-0.4324922561645508,-0.10018182545900345
1789033782840511500,5.480511474609375,-0.1233946830034256,-0.37140578031539917,-0.13561198115348816
1789033782850436900,5.490436767578125,-0.1588248461484909,-0.29504770040512085,-0.16859868168830872
1789033782860362500,5.500362548828125,-0.1649334877729416,-0.2919933497905731,-0.1844811588525772
1789033782870288000,5.510287841796875,-0.17898337543010712,-0.3243691921234131,-0.18081597983837128
1789033782880213200,5.520213134765625,-0.17837251722812653,-0.37140578031539917,-0.17226386070251465
1789033782890139000,5.530138916015625,-0.16859868168830872,-0.39889469742774963,-0.16554436087608337
1789033782900064300,5.540064208984375,-0.14538581669330597,-0.39767298102378845,-0.1893680840730667
1789033782909989600,5.54998974609375,-0.12095122784376144,-0.39339691400527954,-0.18631376326084137
1789033782919915300,5.559915283203125,-0.09285144507884979,-0.43432486057281494,-0.16615521907806396
1789033782929840600,5.569840576171875,-0.06841685622930527,-0.47097674012184143,-0.16065743565559387
1789033782939766300,5.579766357421875,-0.04520399495959282,-0.4776962697505951,-0.16676609218120575
1789033782949691600,5.589691650390625,-0.029932374134659767,-0.44959646463394165,-0.16004657745361328
1789033782959617000,5.599616943359375,-0.009773836471140385,-0.4263836145401001,-0.1233946830034256
1789033782969542400,5.60954248046875,0.008552107028663158,-0.4428769648075104,-0.05192350596189499
1789033782979468000,5.619468017578125,0.026878049597144127,-0.5595521330833435,-0.023212861269712448
1789033782989393400,5.629393310546875,0.01649334840476513,-0.5858193039894104,-0.03237583488225937
1789033782999319000,5.639319091796875,-0.028099779039621353,-0.4630354940891266,-0.05742128938436508
1789033783009244400,5.649244384765625,-0.09101885557174683,-0.5125155448913574,-0.04886918142437935
1789033783019169800,5.659169677734375,-0.08063415437936783,-0.5027416944503784,0.001221729558892548
1789033783029095400,5.669095458984375,-0.053145237267017365,-0.574212908744812,0.06780599057674408
1789033783039020800,5.679020751953125,-0.05742128938436508,-0.6365211009979248,0.08918625861406326
1789033783048946200,5.6889462890625,-0.07086031138896942,-0.6426297426223755,0.07391463965177536
1789033783058871600,5.69887158203125,-0.08979712426662445,-0.5760455131530762,0.06719512492418289
1789033783068797200,5.708797119140625,-0.11117739230394363,-0.5308414697647095,0.11117739230394363
1789033783078722600,5.71872265625,-0.11423171311616898,-0.5436696410179138,0.18203771114349365
1789033783088648200,5.728648193359375,-0.12156209349632263,-0.5320632457733154,0.22907429933547974
1789033783098573600,5.738573486328125,-0.1588248461484909,-0.4825831651687622,0.23762640357017517
1789033783108499000,5.7484990234375,-0.19730933010578156,-0.39828383922576904,0.21685700118541718
1789033783118424600,5.758424560546875,-0.24495677649974823,-0.25534147024154663,0.1954767256975174
1789033783128350000,5.768349853515625,-0.2626718580722809,-0.21502439677715302,0.20830489695072174
1789033783138275300,5.778275390625,-0.26022839546203613,-0.27488914132118225,0.2467893660068512
1789033783148201000,5.788200927734375,-0.24251331388950348,-0.3072649836540222,0.26389357447624207
1789033783158126300,5.798126220703125,-0.23518294095993042,-0.30115634202957153,0.2528980076313019
1789033783168051700,5.8080517578125,-0.22907429933547974,-0.2412915825843811,0.17348559200763702
1789033783177977300,5.817977294921875,-0.24312418699264526,-0.08307760953903198,0.0824667438864708
1789033783187902700,5.82790283203125,-0.27977606654167175,0.013439024798572063,0.04886918142437935
1789033783197828000,5.837828125,-0.3066541254520416,-0.08796452730894089,0.1282816082239151
1789033783207753700,5.847753662109375,-0.3689623177051544,-0.21502439677715302,0.18387030065059662
1789033783217679000,5.85767919921875,-0.45448338985443115,-0.32620179653167725,0.19425499439239502
1789033783227604500,5.8676044921875,-0.4886918365955353,-0.2675587832927704,0.16187916696071625
1789033783237530000,5.877530029296875,-0.4667007029056549,-0.26022839546203613,0.08552107214927673
1789033783247455500,5.88745556640625,-0.4612029194831848,-0.27855435013771057,0.023823726922273636
1789033783257381000,5.897381103515625,-0.4831940531730652,-0.2724456787109375,0.021380268037319183
1789033783267306500,5.907306396484375,-0.49968740344047546,-0.2663370370864868,0.07391463965177536
1789033783277231900,5.91723193359375,-0.5155698657035828,-0.24006985127925873,0.14233149588108063
1789033783287157500,5.927157470703125,-0.4972439408302307,-0.24801109731197357,0.18570289015769958
1789033783297083000,5.937082763671875,-0.46547895669937134,-0.3249800503253937,0.16676609218120575
1789033783307008300,5.94700830078125,-0.4159989058971405,-0.3744601011276245,0.14660754799842834
1789033783316934000,5.956933837890625,-0.36712974309921265,-0.3860665261745453,0.12767073512077332
1789033783326859300,5.966859375,-0.3042106628417969,-0.22724169492721558,0.1533270627260208
1789033783336784600,5.97678466796875,-0.2101374864578247,-0.0360410213470459,0.1802051067352295
1789033783346710300,5.986710205078125,-0.14110976457595825,0.1795942485332489,0.17776164412498474
1789033783356635600,5.9966357421875,-0.16126830875873566,0.2981020212173462,0.1026252806186676
1789033783366561000,6.00656103515625,-0.18570289015769958,0.06780599057674408,-0.025045456364750862
1789033783376486700,6.016486572265625,-0.23212862014770508,0.11362084746360779,-0.039706211537122726
1789033783386412000,6.026412109375,-0.22296564280986786,0.021991131827235222,0.024434590712189674
1789033783396337400,6.03633740234375,-0.0720820426940918,-0.20280711352825165,0.09468404203653336
1789033783406263000,6.046262939453125,0.06963858753442764,-0.5314523577690125,0.14538581669330597
1789033783416188400,6.0561884765625,0.0818558782339096,-0.7391464114189148,0.06475166976451874
1789033783426113800,6.06611376953125,-0.03237583488225937,-0.6646208763122559,-0.0409279391169548
1789033783436039400,6.076039306640625,-0.17837251722812653,-0.43371400237083435,-0.09834922850131989
1789033783445964800,6.08596484375,-0.3084867000579834,-0.24495677649974823,-0.12583814561367035
1789033783455890400,6.095890380859375,-0.3787361681461334,-0.10201441496610641,-0.13744457066059113
1789033783465815800,6.10581591796875,-0.40805765986442566,-0.01893680728971958,-0.08491020649671555
1789033783475741200,6.1157412109375,-0.38667741417884827,-0.0665842592716217,-0.03543015569448471
1789033783485666800,6.125666748046875,-0.34147340059280396,-0.15821397304534912,-0.0030543238390237093
1789033783495592200,6.13559228515625,-0.28038692474365234,-0.27550002932548523,0.047036588191986084
1789033783505517600,6.145517578125,-0.28038692474365234,-0.2632827162742615,0.09040798991918564
1789033783515443200,6.155443115234375,-0.3280344009399414,-0.24251331388950348,0.06475166976451874
1789033783525368600,6.16536865234375,-0.3646862804889679,-0.3329212963581085,0.029932374134659767
1789033783535294000,6.1752939453125,-0.3811796307563782,-0.44959646463394165,0.01282816007733345
1789033783545219600,6.185219482421875,-0.4379900395870209,-0.38667741417884827,0.013439024798572063
1789033783555145000,6.19514501953125,-0.5094612240791321,-0.2889390289783478,0.05497783049941063
1789033783565070300,6.2050703125,-0.4789179861545563,-0.12095122784376144,0.05192350596189499
1789033783574996000,6.214995849609375,-0.3555232882499695,0.1844811588525772,0.07757982611656189
1789033783584921300,6.22492138671875,-0.2761108875274658,0.3909534513950348,0.1698204129934311
1789033783594847000,6.234846923828125,-0.37812530994415283,0.2675587832927704,0.18142683804035187
1789033783604772400,6.2447724609375,-0.45387253165245056,-0.000610864779446274,0.12461641430854797
1789033783614697700,6.25469775390625,-0.44409868121147156,-0.08491020649671555,0.22663083672523499
1789033783624623400,6.264623291015625,-0.3695732057094574,-0.16676609218120575,0.40805765986442566
1789033783634548700,6.274548828125,-0.2987128794193268,-0.4459312856197357,0.4514290690422058
1789033783644474000,6.28447412109375,-0.30054548382759094,-0.8142827749252319,0.31154105067253113
1789033783654399700,6.294399658203125,-0.37629270553588867,-0.8753692507743835,0.1740964651107788
1789033783664325000,6.3043251953125,-0.3445277214050293,-0.4153880476951599,0.18875721096992493
1789033783674250800,6.314250732421875,-0.2260199636220932,0.01954767294228077,0.32559093832969666
1789033783684176100,6.324176025390625,-0.12950333952903748,0.1386663019657135,0.4874700903892517
1789033783694101500,6.3341015625,-0.11239911615848541,-0.023823726922273636,0.5937605500221252
1789033783704027100,6.344027099609375,-0.0922405794262886,-0.3433060050010681,0.5962040424346924
1789033783713952500,6.353952392578125,-0.05925388261675835,-0.5564978122711182,0.5400044918060303
1789033783723878000,6.3638779296875,0.049480047076940536,-0.41355544328689575,0.6133082509040833
1789033783733803500,6.373803466796875,0.21868959069252014,-0.2052505612373352,0.7953459620475769
1789033783743729000,6.38372900390625,0.4111120104789734,-0.11362084746360779,0.972496747970581
1789033783753654300,6.393654296875,0.5540543794631958,-0.20280711352825165,0.9883792400360107
1789033783763580000,6.403579833984375,0.5015199780464172,-0.2663370370864868,0.8582650423049927
1789033783773505300,6.41350537109375,0.34636032581329346,-0.19364413619041443,0.7837395071983337
1789033783783431000,6.423430908203125,0.2364046722650528,0.17348559200763702,0.8051197528839111
1789033783793356300,6.433356201171875,0.2932150959968567,0.29993459582328796,0.9071341753005981
1789033783803281700,6.44328173828125,0.4056142270565033,-0.008552107028663158,1.0060943365097046
1789033783813207300,6.453207275390625,0.46547895669937134,-0.34147340059280396,1.0403027534484863
1789033783823132700,6.463132568359375,0.5571087002754211,-0.1594357043504715,1.099556565284729
1789033783833058000,6.47305810546875,0.6511818766593933,0.14172062277793884,1.1209368705749512
1789033783842983700,6.482983642578125,0.6768381595611572,0.26022839546203613,1.0409135818481445
1789033783852909000,6.492908935546875,0.6126973628997803,0.3335321843624115,0.8998038172721863
1789033783862834400,6.50283447265625,0.42943793535232544,0.3689623177051544,0.7391464114189148
1789033783872760000,6.512760009765625,0.18387030065059662,0.48991355299949646,0.56382817029953
1789033783882685400,6.522685546875,-0.06902772188186646,0.618806004524231,0.45020735263824463
1789033783892611000,6.532611083984375,-0.2510654330253601,0.6334667801856995,0.4514290690422058
1789033783902536400,6.542536376953125,-0.29565855860710144,0.4575377106666565,0.45937031507492065
1789033783912461800,6.5524619140625,-0.3390299379825592,0.2809978127479553,0.45998117327690125
1789033783922387500,6.562387451171875,-0.5057960152626038,0.12583814561367035,0.40744680166244507
1789033783932312800,6.572312744140625,-0.7055488228797913,0.1484401375055313,0.1899789422750473
1789033783942238200,6.58223828125,-0.9028581380844116,0.14477495849132538,-0.1484401375055313
1789033783952163800,6.592163818359375,-1.0641264915466309,0.13988803327083588,-0.4111120104789734
1789033783962089200,6.602089111328125,-1.091004490852356,0.0818558782339096,-0.535728394985199
1789033783972014600,6.6120146484375,-1.0195332765579224,-0.020158538594841957,-0.5479456782341003
1789033783981940200,6.621940185546875,-0.8943060636520386,-0.12522727251052856,-0.44959646463394165
1789033783991865600,6.631865478515625,-0.8069523572921753,-0.1380554437637329,-0.3243691921234131
1789033784001791200,6.641791259765625,-0.833219587802887,-0.01893680728971958,-0.28954991698265076
1789033784011716600,6.651716552734375,-0.9169080257415771,0.14721840620040894,-0.33231043815612793
1789033784021642000,6.66164208984375,-0.9841031432151794,0.33536475896835327,-0.3952295184135437
1789033784031567600,6.671567626953125,-0.9706641435623169,0.17226386070251465,-0.4679224193096161
1789033784041493000,6.681492919921875,-0.8906408548355103,-0.036651886999607086,-0.46425724029541016
1789033784051418400,6.69141845703125,-0.7965676784515381,-0.1185077652335167,-0.3903425931930542
1789033784061344000,6.701343994140625,-0.7629700899124146,-0.14538581669330597,-0.3298669755458832
1789033784071269400,6.711269287109375,-0.870482325553894,0.006719512399286032,-0.3225366175174713
1789033784081194800,6.72119482421875,-1.0189224481582642,0.17653992772102356,-0.34208428859710693
1789033784091120400,6.731120361328125,-1.194240689277649,0.23396120965480804,-0.3946186602115631
1789033784101045800,6.741045654296875,-1.3310743570327759,0.19242240488529205,-0.4508182108402252
1789033784110971400,6.750971435546875,-1.3952151536941528,0.05803215503692627,-0.481361448764801
1789033784120896800,6.760896728515625,-1.4294235706329346,-0.01954767294228077,-0.4874700903892517
1789033784130822100,6.770822265625,-1.4636319875717163,-0.06108647957444191,-0.472198486328125
1789033784140747800,6.780747802734375,-1.5045599937438965,-0.13744457066059113,-0.4783071279525757
1789033784150673200,6.790673095703125,-1.5858049392700195,-0.32559093832969666,-0.5375609993934631
1789033784160598800,6.800598876953125,-1.6768238544464111,-0.5253437161445618,-0.6298015713691711
1789033784170524200,6.810524169921875,-1.7519601583480835,-0.720820426940918,-0.7550288438796997
1789033784180449500,6.820449462890625,-1.8044945001602173,-0.8784235715866089,-0.8735366463661194
1789033784190375200,6.830375244140625,-1.8319834470748901,-1.0140355825424194,-0.9541707634925842
1789033784200300500,6.840300537109375,-1.8154901266098022,-1.0567960739135742,-0.9969313144683838
1789033784210226000,6.850225830078125,-1.7947207689285278,-0.9608902931213379,-0.952949047088623
1789033784220151600,6.860151611328125,-1.7372994422912598,-0.9144645929336548,-0.8216131329536438
1789033784230077000,6.870076904296875,-1.6670500040054321,-0.8729257583618164,-0.6945532560348511
1789033784240002300,6.880002197265625,-1.6621630191802979,-0.6908880472183228,-0.6462949514389038
1789033784249928000,6.889927978515625,-1.5851941108703613,-0.3738492429256439,-0.6334667801856995
1789033784259853300,6.899853271484375,-1.4508038759231567,-0.21197007596492767,-0.5882627964019775
1789033784269778700,6.90977880859375,-1.3017528057098389,-0.19914191961288452,-0.5137372612953186
1789033784279704300,6.919704345703125,-1.2345577478408813,-0.16676609218120575,-0.37201663851737976
1789033784289629700,6.929629638671875,-1.1429280042648315,-0.020158538594841957,-0.21746785938739777
1789033784299555300,6.939555419921875,-0.8949168920516968,0.09834922850131989,-0.14233149588108063
1789033784309480700,6.949480712890625,-0.7770199775695801,0.1747073233127594,-0.1288924664258957
1789033784319406300,6.95940625,-0.6713404059410095,0.1795942485332489,-0.09651663154363632
1789033784329331700,6.969331787109375,-0.5057960152626038,0.2516762912273407,0.011606430634856224
1789033784339257000,6.979257080078125,-0.27855435013771057,0.3860665261745453,0.14110976457595825
1789033784349182700,6.9891826171875,-0.02626718580722809,0.48441576957702637,0.2620609998703003
1789033784359108000,6.999108154296875,0.20219624042510986,0.49480047821998596,0.3384190797805786
1789033784369033500,7.009033447265625,0.4007273018360138,0.3811796307563782,0.36712974309921265
1789033784378959000,7.018958984375,0.5687150955200195,0.2968802750110626,0.3530798554420471
1789033784388884500,7.028884521484375,0.7202095985412598,0.3078758418560028,0.318871408700943
1789033784398809900,7.038809814453125,0.8631519079208374,0.39767298102378845,0.33536475896835327
1789033784408735500,7.048735595703125,1.0262528657913208,0.6017017960548401,0.4098902642726898
1789033784418660900,7.058660888671875,1.2058470249176025,0.7464767694473267,0.5143481492996216
1789033784428586200,7.068586181640625,1.3469568490982056,0.750141978263855,0.5803215503692627
1789033784438511900,7.078511962890625,1.426369309425354,0.6737838387489319,0.6078104376792908
1789033784448437200,7.088437255859375,1.499062180519104,0.6249146461486816,0.6273581385612488
1789033784458363000,7.09836279296875,1.5876375436782837,0.6707295179367065,0.6151408553123474
1789033784468288300,7.108288330078125,1.6939280033111572,0.7874047160148621,0.6340776681900024
1789033784478213600,7.118213623046875,1.813657522201538,0.8851430416107178,0.6976075768470764
1789033784488139300,7.12813916015625,1.8912373781204224,0.8808670043945312,0.758694052696228
1789033784498064600,7.138064697265625,1.877798318862915,0.8045089244842529,0.8197805285453796
1789033784507990300,7.147990234375,1.8197661638259888,0.729983389377594,0.8399390578269958
1789033784517915600,7.15791552734375,1.766010046005249,0.6579013466835022,0.7929024696350098
1789033784527841000,7.167841064453125,1.7073670625686646,0.5876519083976746,0.7391464114189148
1789033784537766700,7.1777666015625,1.6798781156539917,0.46486809849739075,0.7226530313491821
1789033784547692000,7.187692138671875,1.6591087579727173,0.3341430425643921,0.7141009569168091
1789033784557617400,7.197617431640625,1.663995623588562,0.2107483446598053,0.7519745230674744
1789033784567543000,7.20754296875,1.6475023031234741,0.18875721096992493,0.8173370957374573
1789033784577468400,7.217468505859375,1.6762129068374634,0.3078758418560028,0.9144645929336548
1789033784587393800,7.227393798828125,1.7232495546340942,0.5430588126182556,0.9786053895950317
1789033784597319400,7.2373193359375,1.692095398902893,0.5925388336181641,0.9865466356277466
1789033784607244800,7.247244873046875,1.563202977180481,0.3915643095970154,0.9468404054641724
1789033784617170400,7.25717041015625,1.4031563997268677,0.16065743565559387,0.9407317638397217
1789033784627095800,7.267095703125,1.2980875968933105,0.15577052533626556,0.9926552772521973
1789033784637021400,7.277021484375,1.2809834480285645,0.3280344009399414,1.0201442241668701
1789033784646946800,7.28694677734375,1.2877029180526733,0.4428769648075104,0.9663881063461304
1789033784656872200,7.2968720703125,1.2058470249176025,0.4935787320137024,0.8527672290802002
1789033784666797800,7.3067978515625,1.074511170387268,0.35613417625427246,0.80389803647995
1789033784676723200,7.31672314453125,0.8943060636520386,0.06597339361906052,0.8692606091499329
1789033784686648600,7.326648681640625,0.6927206516265869,-0.20647229254245758,0.8460476994514465
1789033784696574200,7.33657421875,0.4880809485912323,-0.360410213470459,0.7324268817901611
1789033784706499600,7.34649951171875,0.28038692474365234,-0.3555232882499695,0.6359102129936218
1789033784716425000,7.356425048828125,0.12644900381565094,-0.20280711352825165,0.5607738494873047
1789033784726350600,7.3663505859375,0.05742128938436508,-0.006719512399286032,0.5106829404830933
1789033784736276000,7.37627587890625,-0.000610864779446274,0.05803215503692627,0.47036588191986084
1789033784746201300,7.386201416015625,-0.10201441496610641,-0.002443459117785096,0.3738492429256439
1789033784756127000,7.396126953125,-0.277332603931427,-0.08796452730894089,0.21197007596492767
1789033784766052400,7.40605224609375,-0.4477638900279999,-0.06230820715427399,0.000610864779446274
1789033784775978000,7.41597802734375,-0.583375871181488,0.10567960888147354,-0.17226386070251465
1789033784785903400,7.4259033203125,-0.7147117853164673,0.21868959069252014,-0.33169957995414734
1789033784795829000,7.4358291015625,-0.8637627959251404,0.10079269111156464,-0.4972439408302307
1789033784805754400,7.44575439453125,-1.0421353578567505,0.18570289015769958,-0.6371319890022278
1789033784815679700,7.4556796875,-1.2363903522491455,0.4269944727420807,-0.6255255341529846
1789033784825605400,7.46560546875,-1.3280199766159058,0.7061597108840942,-0.4886918365955353
1789033784835530800,7.47553076171875,-1.173471212387085,0.8619301915168762,-0.2926042377948761
1789033784845456100,7.4854560546875,-0.8717040419578552,0.7703005075454712,-0.0824667438864708
1789033784855381800,7.4953818359375,-0.6414080262184143,0.40378162264823914,0.04276053607463837
1789033784865307100,7.50530712890625,-0.5497782826423645,0.026878049597144127,0.03481929376721382
1789033784875232500,7.515232421875,-0.536339282989502,-0.22479823231697083,-0.08796452730894089
1789033784885158100,7.525158203125,-0.5473348498344421,-0.40927940607070923,-0.258395791053772
1789033784895083500,7.53508349609375,-0.5827649831771851,-0.4728093445301056,-0.4068359434604645
1789033784905009000,7.5450087890625,-0.6157516837120056,-0.5051851868629456,-0.4667007029056549
1789033784914934500,7.5549345703125,-0.6181951761245728,-0.5491674542427063,-0.4831940531730652
1789033784924860000,7.56485986328125,-0.7226530313491821,-0.41783151030540466,-0.4990765154361725
1789033784934785500,7.57478564453125,-0.9553925395011902,-0.16126830875873566,-0.49602219462394714
1789033784944711000,7.5847109375,-1.1704169511795044,0.20769402384757996,-0.44898560643196106
1789033784954636500,7.594636474609375,-1.219896912574768,0.5589412450790405,-0.4355465769767761
1789033784964562000,7.60456201171875,-1.128878116607666,0.516791582107544,-0.5387827157974243
1789033784974487300,7.6144873046875,-1.1013891696929932,0.41844236850738525,-0.5955931544303894
1789033784984413000,7.624412841796875,-1.0855066776275635,0.12461641430854797,-0.6310232877731323
1789033784994338300,7.63433837890625,-1.0952805280685425,-0.37323838472366333,-0.7428115606307983
1789033785004263700,7.644263671875,-1.100778341293335,-0.9224058389663696,-0.9077450633049011
1789033785014189300,7.654189208984375,-1.1123847961425781,-1.4208714962005615,-1.0213658809661865
1789033785024114700,7.66411474609375,-1.1404845714569092,-1.666439175605774,-1.0665699243545532
1789033785034040000,7.6740400390625,-1.2528836727142334,-1.5143338441848755,-1.071456789970398
1789033785043965700,7.683965576171875,-1.4520255327224731,-1.1575887203216553,-1.0470222234725952
1789033785053891000,7.69389111328125,-1.546709656715393,-0.8197805285453796,-1.0586286783218384
1789033785063816700,7.703816650390625,-1.5796962976455688,-0.62857985496521,-1.0482439994812012
1789033785073742000,7.7137421875,-1.5748094320297241,-0.7745765447616577,-1.0018181800842285
1789033785083667500,7.72366748046875,-1.5399900674819946,-1.1050543785095215,-0.924849271774292
1789033785093593000,7.733593017578125,-1.4953969717025757,-1.2009601593017578,-0.778241753578186
1789033785103518500,7.7435185546875,-1.4007129669189453,-0.9016364216804504,-0.6017017960548401
1789033785113444000,7.753444091796875,-1.2626575231552124,-0.3860665261745453,-0.4618137776851654
1789033785123369500,7.763369384765625,-1.1197150945663452,-0.04825831577181816,-0.38301220536231995
1789033785133294800,7.773294921875,-0.9957095980644226,-0.07452550530433655,-0.3194822669029236
1789033785143220500,7.783220458984375,-0.8210022449493408,-0.18692462146282196,-0.24801109731197357
1789033785153145900,7.793145751953125,-0.695164144039154,-0.1282816082239151,-0.16615521907806396
1789033785163071200,7.8030712890625,-0.6713404059410095,-0.043982263654470444,-0.09285144507884979
1789033785172996900,7.812996826171875,-0.5803215503692627,0.04214967042207718,0.014660755172371864
1789033785182922200,7.822922119140625,-0.4917461574077606,0.06963858753442764,0.12583814561367035
1789033785192847600,7.83284765625,-0.22479823231697083,0.1380554437637329,0.2009745091199875
1789033785202773200,7.842773193359375,-0.001221729558892548,0.12156209349632263,0.26878049969673157
1789033785212698600,7.85269873046875,0.20463970303535461,0.15271618962287903,0.2761108875274658
1789033785222624300,7.862624267578125,0.4147771894931793,0.2620609998703003,0.30604326725006104
1789033785232549600,7.872549560546875,0.618806004524231,0.34697118401527405,0.3451386094093323
1789033785242475000,7.88247509765625,0.7990111112594604,0.3903425931930542,0.36224281787872314
1789033785252400600,7.892400634765625,0.9590576887130737,0.44959646463394165,0.3695732057094574
1789033785262326000,7.902325927734375,1.110552191734314,0.5192350745201111,0.4312705397605896
1789033785272251400,7.91225146484375,1.2412772178649902,0.6139190793037415,0.5039634704589844
1789033785282177000,7.922177001953125,1.352454662322998,0.6719512343406677,0.573602020740509
1789033785292102400,7.932102294921875,1.423925757408142,0.6792816519737244,0.5968148708343506
1789033785302028000,7.942028076171875,1.5106686353683472,0.6120865345001221,0.6273581385612488
1789033785311953400,7.951953369140625,1.5687007904052734,0.6236929297447205,0.6224712133407593
1789033785321878800,7.961878662109375,1.5974113941192627,0.6524035930633545,0.6047561168670654
1789033785331804400,7.971804443359375,1.6029092073440552,0.7012727856636047,0.5962040424346924
1789033785341729800,7.981729736328125,1.6523892879486084,0.7904590368270874,0.6230821013450623
1789033785351655200,7.9916552734375,1.7318016290664673,0.8784235715866089,0.6579013466835022
1789033785361580800,8.001580810546875,1.796553373336792,0.8491020202636719,0.6542361974716187
1789033785371506200,8.011506103515625,1.805105447769165,0.676227331161499,0.5968148708343506
1789033785381431600,8.021431640625,1.767231822013855,0.4276053309440613,0.5283980369567871
1789033785391357200,8.031357177734375,1.7324124574661255,0.20158538222312927,0.49663305282592773
1789033785401282600,8.041282470703125,1.719584345817566,0.11606431007385254,0.4728093445301056
1789033785411208200,8.051208251953126,1.7342450618743896,0.1899789422750473,0.5009090900421143
1789033785421133600,8.061133544921875,1.7666209936141968,0.3335321843624115,0.5070177912712097
1789033785431059000,8.071058837890625,1.7635666131973267,0.4972439408302307,0.5192350745201111
1789033785440984600,8.080984619140626,1.7208061218261719,0.5400044918060303,0.5174024701118469
1789033785450910000,8.090909912109375,1.6322306394577026,0.5235111117362976,0.5009090900421143
1789033785460835300,8.10083544921875,1.545487880706787,0.43860089778900146,0.48991355299949646
1789033785470761000,8.110760986328126,1.469740629196167,0.3750709891319275,0.48930269479751587
1789033785480686300,8.120686279296875,1.3762784004211426,0.3329212963581085,0.45875945687294006
1789033785490612000,8.130612060546875,1.2858703136444092,0.31031930446624756,0.44959646463394165
1789033785500537300,8.140537353515626,1.2455532550811768,0.37140578031539917,0.4477638900279999
1789033785510462700,8.150462646484375,1.1380411386489868,0.31459537148475647,0.3738492429256439
1789033785520388400,8.160388427734375,0.9908226728439331,0.12461641430854797,0.3194822669029236
1789033785530313700,8.170313720703126,0.8191696405410767,-0.050090912729501724,0.2932150959968567
1789033785540239000,8.180239013671875,0.6780598759651184,-0.1533270627260208,0.2779434621334076
1789033785550164700,8.190164794921875,0.5632173418998718,-0.18692462146282196,0.28038692474365234
1789033785560090000,8.200090087890626,0.4379900395870209,-0.21991132199764252,0.2675587832927704
1789033785570015700,8.210015625,0.30543237924575806,-0.28405213356018066,0.21502439677715302
1789033785579941000,8.219941162109375,0.16065743565559387,-0.37201663851737976,0.14538581669330597
1789033785589866500,8.229866455078126,0.020769402384757996,-0.4581485986709595,0.05742128938436508
1789033785599792000,8.239792236328125,-0.09957095980644226,-0.5583304166793823,-0.046425722539424896
1789033785609717500,8.249717529296875,-0.21807873249053955,-0.62857985496521,-0.14721840620040894
1789033785619643000,8.259642822265626,-0.3225366175174713,-0.5656607747077942,-0.2211330533027649
1789033785629568500,8.269568603515625,-0.4257727563381195,-0.4520399272441864,-0.2510654330253601
1789033785639494000,8.279493896484375,-0.5473348498344421,-0.4111120104789734,-0.2712239623069763
1789033785649419300,8.289419189453126,-0.6530144214630127,-0.3494146466255188,-0.30115634202957153
1789033785659345000,8.299344970703125,-0.7269290685653687,-0.18264856934547424,-0.31642794609069824
1789033785669270300,8.309270263671875,-0.7843503952026367,-0.027488915249705315,-0.318871408700943
1789033785679196000,8.31919580078125,-0.832608699798584,0.039706211537122726,-0.3384190797805786
1789033785689121000,8.32912109375,-0.8454368710517883,0.07819069176912308,-0.36774060130119324
1789033785736127000,8.376126953125,-0.7757982611656189,-0.12217295914888382,-0.2761108875274658
1789033785746052400,8.38605224609375,-0.7696896195411682,-0.28954991698265076,-0.3176496922969818
1789033785755978000,8.39597802734375,-0.8002328872680664,-0.411722868680954,-0.33719736337661743
1789033785765903400,8.4059033203125,-0.8552106618881226,-0.4251618981361389,-0.34574946761131287
1789033785775828700,8.415828857421875,-0.9297361969947815,-0.4166097939014435,-0.34697118401527405
1789033785785754400,8.42575439453125,-1.0225876569747925,-0.39339691400527954,-0.3946186602115631
1789033785795679700,8.4356796875,-1.1325433254241943,-0.2968802750110626,-0.4776962697505951
1789033785805605400,8.44560546875,-1.2192860841751099,-0.14782927930355072,-0.4874700903892517
1789033785815530800,8.45553076171875,-1.3158026933670044,0.020769402384757996,-0.40805765986442566
1789033785825456000,8.4654560546875,-1.3732240200042725,0.056199558079242706,-0.3860665261745453
1789033785835381800,8.4753818359375,-1.3976585865020752,-0.0720820426940918,-0.4838049113750458
1789033785845307100,8.48530712890625,-1.4379756450653076,-0.34697118401527405,-0.6597339510917664
1789033785855232500,8.495232421875,-1.4868448972702026,-0.657290518283844,-0.7904590368270874
1789033785865158100,8.505158203125,-1.5247185230255127,-0.80389803647995,-0.8222240209579468
1789033785875083500,8.51508349609375,-1.5589269399642944,-0.7965676784515381,-0.8283326625823975
1789033785885009000,8.5250087890625,-1.6139047145843506,-0.7428115606307983,-0.8539889454841614
1789033785894934500,8.5349345703125,-1.673769474029541,-0.7562506198883057,-0.8772017955780029
1789033785904860000,8.54485986328125,-1.6615521907806396,-0.8283326625823975,-0.8747583627700806
1789033785914785500,8.55478564453125,-1.635895848274231,-0.8723149299621582,-0.8258891701698303
1789033785924711000,8.5647109375,-1.6346741914749146,-0.8124501705169678,-0.7648026943206787
1789033785934636300,8.57463623046875,-1.627343773841858,-0.6450732350349426,-0.7257073521614075
1789033785944562000,8.58456201171875,-1.5870267152786255,-0.5558869242668152,-0.6707295179367065
1789033785954487300,8.5944873046875,-1.5198315382003784,-0.5241219997406006,-0.6206386089324951
1789033785964412700,8.60441259765625,-1.4672971963882446,-0.4324922561645508,-0.5803215503692627
1789033785974338300,8.61433837890625,-1.3475676774978638,-0.3652971386909485,-0.44959646463394165
1789033785984263700,8.624263671875,-1.1972949504852295,-0.3066541254520416,-0.23212862014770508
1789033785994189000,8.63418896484375,-1.0567960739135742,-0.16615521907806396,-0.09529490768909454
1789033786004114700,8.64411474609375,-0.9553925395011902,0.020769402384757996,-0.10873392969369888
1789033786014040000,8.6540400390625,-0.8552106618881226,0.06963858753442764,-0.13072505593299866
1789033786023965700,8.663965576171876,-0.7672461867332458,-0.06841685622930527,-0.036651886999607086
1789033786033891000,8.67389111328125,-0.6536253094673157,-0.09407317638397217,0.08918625861406326
1789033786043816400,8.68381640625,-0.5192350745201111,0.001221729558892548,0.19303326308727264
1789033786053742000,8.6937421875,-0.3494146466255188,0.0977383628487587,0.2919933497905731
1789033786063667500,8.70366748046875,-0.13072505593299866,0.18081597983837128,0.35674503445625305
1789033786073592800,8.7135927734375,0.10506874322891235,0.22479823231697083,0.3787361681461334
1789033786083518500,8.7235185546875,0.31031930446624756,0.26389357447624207,0.3738492429256439
1789033786093443800,8.73344384765625,0.4838049113750458,0.2981020212173462,0.370184063911438
1789033786103369200,8.743369140625,0.6365211009979248,0.2822195291519165,0.40805765986442566
1789033786113294800,8.753294921875,0.7867938280105591,0.328645259141922,0.471587598323822
1789033786123220200,8.76322021484375,0.9505056142807007,0.44837474822998047,0.5277871489524841
1789033786133145900,8.773145751953125,1.1264346837997437,0.5937605500221252,0.5681042671203613
1789033786143071200,8.7830712890625,1.3084723949432373,0.6695078015327454,0.6071996092796326
1789033786152996600,8.79299658203125,1.4563016891479492,0.7012727856636047,0.6389645338058472
1789033786162922200,8.802922119140625,1.5821397304534912,0.6817250847816467,0.6829468011856079
1789033786172847600,8.81284765625,1.6615521907806396,0.6878337264060974,0.6890554428100586
1789033786182773000,8.82277294921875,1.7104213237762451,0.7037162184715271,0.665842592716217
1789033786192698600,8.83269873046875,1.7189735174179077,0.6695078015327454,0.637742817401886
1789033786202624000,8.8426240234375,1.7201951742172241,0.6120865345001221,0.6084213256835938
1789033786212549400,8.85254931640625,1.740964651107788,0.5387827157974243,0.5888736248016357
1789033786222475000,8.86247509765625,1.7739512920379639,0.4825831651687622,0.5668824911117554
1789033786232400400,8.872400390625,1.7910555601119995,0.3946186602115631,0.546113133430481
1789033786242326000,8.882325927734374,1.7837251424789429,0.2993237376213074,0.5290089249610901
1789033786252251400,8.89225146484375,1.7886121273040771,0.2932150959968567,0.5351175665855408
1789033786262176800,8.9021767578125,1.8142683506011963,0.3689623177051544,0.5693259835243225
1789033786272102400,8.912102294921874,1.8460333347320557,0.4214966893196106,0.6304124593734741
1789033786282027800,8.92202783203125,1.8374812602996826,0.3591884970664978,0.6927206516265869
1789033786291953200,8.931953125,1.7800599336624146,0.19303326308727264,0.7098248600959778
1789033786301878800,8.941878662109374,1.712864875793457,0.1747073233127594,0.7037162184715271
1789033786311804200,8.95180419921875,1.6774346828460693,0.3750709891319275,0.7024945020675659
1789033786321729500,8.9617294921875,1.6444480419158936,0.6133082509040833,0.7061597108840942
1789033786331655000,8.971655029296874,1.5772528648376465,0.6902772188186646,0.7061597108840942
1789033786341580500,8.98158056640625,1.4782928228378296,0.564439058303833,0.7061597108840942
1789033786351506000,8.991505859375,1.3060288429260254,0.3494146466255188,0.720820426940918
1789033786361431300,9.001431396484374,1.1325433254241943,0.16249002516269684,0.7513636946678162
1789033786371356700,9.011356689453125,0.9944878816604614,0.05253437161445618,0.7574723362922668
1789033786381282000,9.021281982421876,0.833219587802887,-0.001221729558892548,0.7757982611656189
1789033786391207400,9.03120751953125,0.6963858604431152,-0.020769402384757996,0.8368847370147705
1789033786401132800,9.0411328125,0.5607738494873047,-0.06230820715427399,0.8466585874557495
1789033786411058400,9.051058349609375,0.42271843552589417,-0.15638138353824615,0.7733548283576965
1789033786420983800,9.06098388671875,0.30054548382759094,-0.2577849328517914,0.6805033683776855
1789033786430909200,9.0709091796875,0.17837251722812653,-0.3481929302215576,0.6096430420875549
1789033786440834800,9.080834716796875,0.043982263654470444,-0.4764745235443115,0.5253437161445618
1789033786450760200,9.09076025390625,-0.09896009415388107,-0.6071996092796326,0.42394015192985535
1789033786460685600,9.100685546875,-0.2052505612373352,-0.6792816519737244,0.31154105067253113
1789033786470611200,9.110611083984375,-0.2883281707763672,-0.6255255341529846,0.22846342623233795
1789033786480536600,9.12053662109375,-0.33719736337661743,-0.49113526940345764,0.17226386070251465
1789033786490462200,9.130462158203125,-0.3555232882499695,-0.26389357447624207,0.1637117564678192
1789033786500387600,9.1403876953125,-0.38240134716033936,-0.0513126403093338,0.18325942754745483
1789033786510313000,9.15031298828125,-0.4324922561645508,0.06230820715427399,0.1698204129934311
1789033786520238600,9.160238525390625,-0.49602219462394714,0.1331685185432434,0.10995566099882126
1789033786530164000,9.1701640625,-0.5974257588386536,0.21135921776294708,0.05742128938436508
1789033786540089300,9.18008935546875,-0.720820426940918,0.19425499439239502,-0.030543239787220955
1789033786550015000,9.190014892578125,-0.7867938280105591,0.1026252806186676,-0.15638138353824615
1789033786559940400,9.1999404296875,-0.7904590368270874,0.0977383628487587,-0.20647229254245758
1789033786569865700,9.20986572265625,-0.8246674537658691,0.12583814561367035,-0.18570289015769958
1789033786579791400,9.219791259765625,-0.8906408548355103,0.15515965223312378,-0.16004657745361328
1789033786589716700,9.229716796875,-0.9285144805908203,0.18814635276794434,-0.1490510106086731
1789033786599642400,9.239642333984374,-0.9199623465538025,0.19669845700263977,-0.11239911615848541
1789033786609567700,9.249567626953125,-0.8637627959251404,0.1331685185432434,-0.04520399495959282
1789033786619493000,9.2594931640625,-0.8271108865737915,0.018325943499803543,-0.002443459117785096
1789033786629418800,9.269418701171874,-0.8552106618881226,-0.06841685622930527,-0.053756099194288254
1789033786639344000,9.27934423828125,-0.9040798544883728,-0.06841685622930527,-0.2419024556875229
1789033786649269500,9.28926953125,-0.9505056142807007,-0.03298669680953026,-0.481361448764801
1789033786659195100,9.299195068359374,-0.9920443892478943,0.040317077189683914,-0.5998691916465759
1789033786669120500,9.30912060546875,-1.0665699243545532,0.13683371245861053,-0.5790998339653015
1789033786679046000,9.3190458984375,-1.1814124584197998,0.22235478460788727,-0.5314523577690125
1789033786688971500,9.328971435546874,-1.321911334991455,0.25045454502105713,-0.5216785073280334
1789033786698897000,9.33889697265625,-1.4098758697509766,0.16859868168830872,-0.5900954008102417
1789033786708822500,9.348822509765625,-1.4440842866897583,0.018325943499803543,-0.6927206516265869
1789033786718748000,9.358747802734374,-1.4489712715148926,-0.1233946830034256,-0.7611374855041504
1789033786728673300,9.36867333984375,-1.451414704322815,-0.31520622968673706,-0.7977893948554993
1789033786738599000,9.378598876953125,-1.4636319875717163,-0.5253437161445618,-0.8124501705169678
1789033786748524300,9.388524169921874,-1.51616632938385,-0.6255255341529846,-0.8051197528839111
1789033786758449700,9.39844970703125,-1.5931353569030762,-0.6010909676551819,-0.8087849617004395
1789033786768375300,9.408375244140625,-1.6310089826583862,-0.627968966960907,-0.80389803647995
1789033786778300700,9.41830078125,-1.6578869819641113,-0.711046576499939,-0.7929024696350098
1789033786788226000,9.42822607421875,-1.6982040405273438,-0.6988292932510376,-0.7721330523490906
1789033786798151700,9.438151611328125,-1.692095398902893,-0.5888736248016357,-0.7012727856636047
1789033786808077000,9.4480771484375,-1.6285655498504639,-0.5473348498344421,-0.5974257588386536
1789033786818002700,9.458002685546875,-1.5577051639556885,-0.5974257588386536,-0.536339282989502
1789033786827928000,9.467927978515625,-1.50028395652771,-0.675616443157196,-0.5045742988586426
1789033786837853400,9.477853515625,-1.4440842866897583,-0.758694052696228,-0.4410443603992462
1789033786847779000,9.487779052734375,-1.4074324369430542,-0.7648026943206787,-0.35185810923576355
1789033786857704400,9.497704345703125,-1.2266165018081665,-0.5998691916465759,-0.25900667905807495
1789033786867629800,9.5076298828125,-1.0470222234725952,-0.4043924808502197,-0.15271618962287903
1789033786877555500,9.517555419921875,-0.8772017955780029,-0.21135921776294708,-0.06475166976451874
1789033786887480800,9.527480712890625,-0.7147117853164673,-0.008552107028663158,-0.02932151034474373
1789033786897406200,9.53740625,-0.5693259835243225,0.1539379209280014,0.008552107028663158
1789033786907331800,9.547331787109375,-0.41783151030540466,0.26511532068252563,0.10873392969369888
1789033786917257200,9.55725732421875,-0.2516762912273407,0.3494146466255188,0.2052505612373352
1789033786927182600,9.5671826171875,-0.07941242307424545,0.4263836145401001,0.24801109731197357
1789033786937108200,9.577108154296875,0.11606431007385254,0.5241219997406006,0.27366742491722107
1789033786947033600,9.58703369140625,0.3433060050010681,0.6230821013450623,0.31154105067253113
1789033786956959200,9.596959228515624,0.5607738494873047,0.6780598759651184,0.328645259141922
1789033786966884600,9.606884521484375,0.7440332770347595,0.6548470258712769,0.3298669755458832
1789033786976810000,9.61681005859375,0.8820887207984924,0.6084213256835938,0.3176496922969818
1789033786986735600,9.626735595703124,0.9944878816604614,0.5962040424346924,0.3017672002315521
1789033786996661000,9.636660888671875,1.1117738485336304,0.6218603253364563,0.3090975880622864
1789033787006586400,9.64658642578125,1.2461642026901245,0.647516667842865,0.34086254239082336
1789033787016512000,9.656511962890624,1.3817760944366455,0.6731730103492737,0.38240134716033936
1789033787026437400,9.666437255859375,1.4917317628860474,0.685390293598175,0.40927940607070923
1789033787036362800,9.67636279296875,1.5784746408462524,0.6389645338058472,0.41416633129119873
1789033787046288400,9.686288330078124,1.6322306394577026,0.5937605500221252,0.3811796307563782
1789033787056213800,9.6962138671875,1.656665325164795,0.544891357421875,0.3225366175174713
1789033787066139400,9.706139404296875,1.6603304147720337,0.47525280714035034,0.27488914132118225
1789033787076064800,9.716064697265624,1.6725478172302246,0.3530798554420471,0.2834412455558777
1789033787085990100,9.725990234375,1.7006475925445557,0.2663370370864868,0.35185810923576355
1789033787095915800,9.735915771484375,1.7372994422912598,0.3017672002315521,0.4043924808502197
1789033787105841200,9.745841064453124,1.7837251424789429,0.411722868680954,0.38850998878479004
1789033787115766500,9.7557666015625,1.7971642017364502,0.481361448764801,0.3274235129356384
1789033787125692200,9.765692138671875,1.8044945001602173,0.43371400237083435,0.2993237376213074
1789033787135617500,9.775617431640624,1.8106032609939575,0.3909534513950348,0.33719736337661743
1789033787145543000,9.78554296875,1.860694169998169,0.4471530318260193,0.4361574649810791
1789033787155468500,9.795468505859375,1.9620976448059082,0.6340776681900024,0.526565432548523
1789033787165394000,9.805393798828124,1.987753987312317,0.647516667842865,0.5057960152626038
1789033787175319600,9.815319580078125,1.8851287364959717,0.35185810923576355,0.41905322670936584
1789033787185245000,9.825244873046875,1.7666209936141968,0.21991132199764252,0.39339691400527954
1789033787195170300,9.83517041015625,1.7324124574661255,0.3494146466255188,0.3970620930194855
1789033787205096000,9.845095947265625,1.7140865325927734,0.481361448764801,0.3799578845500946
1789033787215021300,9.855021240234375,1.6810998916625977,0.4263836145401001,0.3689623177051544
1789033787224946700,9.86494677734375,1.5210533142089844,0.19181154668331146,0.3249800503253937
1789033787234872300,9.874872314453125,1.2925899028778076,0.09529490768909454,0.3481929302215576
1789033787244797700,9.884797607421875,1.1435388326644897,0.12461641430854797,0.40317076444625854
1789033787254723000,9.89472314453125,1.0641264915466309,0.15515965223312378,0.4007273018360138
1789033787264648700,9.904648681640625,0.9688315391540527,0.14049890637397766,0.4007273018360138
1789033787274574000,9.914573974609375,0.833219587802887,0.07452550530433655,0.40927940607070923
1789033787284499700,9.924499755859374,0.7098248600959778,0.001221729558892548,0.39217519760131836
1789033787294425000,9.934425048828125,0.5974257588386536,-0.06597339361906052,0.36163195967674255
1789033787304350500,9.9443505859375,0.471587598323822,-0.15149445831775665,0.32009315490722656
1789033787314276000,9.954276123046874,0.3237583339214325,-0.25900667905807495,0.2528980076313019
1789033787324201500,9.964201416015625,0.1637117564678192,-0.38240134716033936,0.17226386070251465
1789033787334126800,9.974126953125,-0.006108647678047419,-0.46547895669937134,0.08429934084415436
1789033787344052500,9.984052490234374,-0.1490510106086731,-0.48991355299949646,-0.001221729558892548
1789033787353977900,9.993977783203125,-0.24923282861709595,-0.4923570156097412,-0.0818558782339096
1789033787363903200,10.0039033203125,-0.33719736337661743,-0.4984656572341919,-0.15515965223312378
1789033787373828900,10.013828857421874,-0.44348782300949097,-0.44348782300949097,-0.20647229254245758
1789033787383754200,10.023754150390625,-0.5778780579566956,-0.3555232882499695,-0.2370155304670334
1789033787393680000,10.033679931640625,-0.7061597108840942,-0.21868959069252014,-0.27000224590301514
1789033787403605200,10.043605224609376,-0.7831286191940308,-0.04764745384454727,-0.30054548382759094
1789033787413530600,10.053530517578125,-0.8210022449493408,0.14049890637397766,-0.2883281707763672
1789033787423456300,10.063456298828125,-0.861319363117218,0.3347539007663727,-0.23335035145282745
1789033787433381600,10.073381591796876,-0.9089667797088623,0.3909534513950348,-0.20158538222312927
1789033787443307000,10.08330712890625,-0.9382883310317993,0.31642794609069824,-0.22968515753746033
1789033787453232600,10.093232666015625,-0.934623122215271,0.2516762912273407,-0.27488914132118225
1789033787463158000,10.103157958984376,-0.8906408548355103,0.21746785938739777,-0.2932150959968567
1789033787473083400,10.11308349609375,-0.8307760953903198,0.08552107214927673,-0.2919933497905731
1789033787483009000,10.123009033203125,-0.8124501705169678,-0.08674279600381851,-0.3042106628417969
1789033787492934400,10.132934326171876,-0.8588758707046509,-0.1588248461484909,-0.33719736337661743
1789033787502860000,10.142860107421875,-0.9321796298027039,-0.1588248461484909,-0.33231043815612793
1789033787512785400,10.152785400390625,-0.9932661056518555,-0.16737695038318634,-0.30054548382759094
1789033787522710800,10.162710693359376,-1.0372483730316162,-0.13927717506885529,-0.29565855860710144
1789033787532636400,10.172636474609375,-1.0702351331710815,-0.04153880476951599,-0.2981020212173462
1789033787542561800,10.182561767578125,-1.1337649822235107,0.021991131827235222,-0.360410213470459
1789033787552487200,10.192487060546876,-1.2034035921096802,-0.06719512492418289,-0.4923570156097412
1789033787562412800,10.202412841796875,-1.3023637533187866,-0.23823726177215576,-0.5962040424346924
1789033787572338200,10.212338134765625,-1.4477494955062866,-0.3555232882499695,-0.6120865345001221
1789033787582263600,10.222263671875,-1.5613703727722168,-0.3396408259868622,-0.6120865345001221
1789033787592189200,10.232189208984375,-1.6077960729599,-0.10018182545900345,-0.6438514590263367
1789033787602114600,10.242114501953125,-1.6004657745361328,0.21502439677715302,-0.6524035930633545
1789033787612040000,10.2520400390625,-1.5662572383880615,0.2626718580722809,-0.6585122346878052
1789033787621965600,10.261965576171875,-1.5515965223312378,-0.040317077189683914,-0.7024945020675659
1789033787631891000,10.271890869140625,-1.5821397304534912,-0.44837474822998047,-0.7635809779167175
1789033787641816600,10.281816650390626,-1.6285655498504639,-0.7953459620475769,-0.8344413042068481
1789033787651742000,10.291741943359375,-1.6810998916625977,-0.9236275553703308,-0.9065233469009399
1789033787661667300,10.301667236328125,-1.7287473678588867,-0.7721330523490906,-0.934623122215271
1789033787671593000,10.311593017578126,-1.7250821590423584,-0.5180133581161499,-0.8772017955780029
1789033787681518300,10.321518310546875,-1.6786564588546753,-0.3335321843624115,-0.7806851863861084
1789033787691443700,10.331443603515625,-1.5992439985275269,-0.29565855860710144,-0.667064368724823
1789033787701369300,10.341369384765626,-1.4782928228378296,-0.40317076444625854,-0.5815432667732239
1789033787711294700,10.351294677734375,-1.3487894535064697,-0.4410443603992462,-0.5473348498344421
1789033787721220000,10.36122021484375,-1.2192860841751099,-0.36163195967674255,-0.4862483739852905
1789033787731145700,10.371145751953126,-1.0800089836120605,-0.25900667905807495,-0.360410213470459
1789033787741071000,10.381071044921875,-0.9419534802436829,-0.2370155304670334,-0.20158538222312927
1789033787750996700,10.390996826171875,-0.80389803647995,-0.24434591829776764,-0.1026252806186676
1789033787760922000,10.400922119140626,-0.667064368724823,-0.22235478460788727,-0.1026252806186676
1789033787770847500,10.410847412109375,-0.5632173418998718,-0.21502439677715302,-0.11239911615848541
1789033787780773000,10.420773193359375,-0.47036588191986084,-0.1331685185432434,-0.024434590712189674
1789033787790698500,10.430698486328126,-0.31520622968673706,0.059864748269319534,0.08307760953903198
1789033787800623900,10.440623779296875,-0.13683371245861053,0.2516762912273407,0.19792018830776215
1789033787810549500,10.450549560546875,0.07086031138896942,0.4007273018360138,0.3225366175174713
1789033787820475000,10.460474853515626,0.26878049969673157,0.49602219462394714,0.3970620930194855
1789033787830400300,10.470400146484375,0.4361574649810791,0.4410443603992462,0.37751442193984985
1789033787840326000,10.480325927734375,0.5681042671203613,0.3017672002315521,0.3090975880622864
1789033787850251300,10.490251220703126,0.7012727856636047,0.2003636509180069,0.25411975383758545
1789033787860177000,10.500177001953125,0.8576541543006897,0.17348559200763702,0.2565632164478302
1789033787870102300,10.510102294921875,1.0079269409179688,0.22724169492721558,0.3029889166355133
1789033787880027600,10.520027587890626,1.1459823846817017,0.36651885509490967,0.370184063911438
1789033787889953300,10.529953369140625,1.2803726196289062,0.526565432548523,0.4312705397605896
1789033787899878700,10.539878662109375,1.3964369297027588,0.6841685771942139,0.46425724029541016
1789033787909804000,10.549803955078126,1.5112794637680054,0.7574723362922668,0.4679224193096161
1789033787919729700,10.559729736328125,1.6090178489685059,0.7452550530433655,0.44348782300949097
1789033787929655000,10.569655029296875,1.673769474029541,0.6230821013450623,0.43493571877479553
1789033787939580400,10.579580322265626,1.7055344581604004,0.5057960152626038,0.43860089778900146
1789033787949505800,10.589505859375,1.7006475925445557,0.3958403766155243,0.43982264399528503
1789033787959431200,10.59943115234375,1.7079778909683228,0.34574946761131287,0.4679224193096161
1789033787969356800,10.609356689453126,1.7385212182998657,0.4630354940891266,0.4764745235443115
1789033787979282200,10.6192822265625,1.7678426504135132,0.6096430420875549,0.4471530318260193
1789033787989207600,10.62920751953125,1.7715078592300415,0.6108647584915161,0.39339691400527954
1789033787999133000,10.6391328125,1.7751730680465698,0.5375609993934631,0.328645259141922
1789033788009058300,10.649058349609374,1.7873903512954712,0.47036588191986084,0.2993237376213074
1789033788018983700,10.658983642578125,1.7886121273040771,0.4105011224746704,0.3237583339214325
1789033788028909300,10.668909423828126,1.8081597089767456,0.39217519760131836,0.3298669755458832
1789033788038834700,10.678834716796874,1.811824917793274,0.3738492429256439,0.3017672002315521
1789033788048760000,10.688760009765625,1.7971642017364502,0.3396408259868622,0.2981020212173462
1789033788058685700,10.698685791015626,1.7617340087890625,0.34208428859710693,0.31642794609069824
1789033788068611000,10.708611083984374,1.711643099784851,0.36774060130119324,0.3176496922969818
1789033788078536400,10.718536376953125,1.6798781156539917,0.4361574649810791,0.3396408259868622
1789033788088462000,10.728462158203126,1.5809180736541748,0.4667007029056549,0.3249800503253937
1789033788098387500,10.738387451171874,1.459966778755188,0.3860665261745453,0.2919933497905731
1789033788108313000,10.74831298828125,1.3585633039474487,0.30054548382759094,0.2883281707763672
1789033788118238500,10.758238525390626,1.2034035921096802,0.13683371245861053,0.25900667905807495
1789033788128163800,10.768163818359374,1.0445787906646729,0.03787361457943916,0.23457208275794983
1789033788138089500,10.77808935546875,0.9089667797088623,-0.028099779039621353,0.27488914132118225
1789033788148014800,10.788014892578126,0.7635809779167175,-0.08796452730894089,0.31031930446624756
1789033788157940200,10.797940185546874,0.6218603253364563,-0.10384701192378998,0.3029889166355133
1789033788167865900,10.807865966796875,0.4984656572341919,-0.1380554437637329,0.2712239623069763
1789033788177791200,10.817791259765626,0.3787361681461334,-0.24556763470172882,0.20158538222312927
1789033788187716600,10.827716552734374,0.25534147024154663,-0.4043924808502197,0.12095122784376144
1789033788197642200,10.837642333984375,0.12583814561367035,-0.5045742988586426,0.05742128938436508
1789033788207567600,10.847567626953126,0.01588248461484909,-0.5229002237319946,0.026878049597144127
1789033788217493200,10.8574931640625,-0.06475166976451874,-0.5326740741729736,0
1789033788227418600,10.867418701171875,-0.13927717506885529,-0.6328558921813965,-0.050090912729501724
1789033788237344000,10.877343994140626,-0.2309068888425827,-0.778241753578186,-0.12705987691879272
1789033788247269600,10.88726953125,-0.3274235129356384,-0.80389803647995,-0.19303326308727264
1789033788257195000,10.897195068359375,-0.41783151030540466,-0.6010909676551819,-0.19669845700263977
1789033788267120400,10.907120361328126,-0.49480047821998596,-0.3225366175174713,-0.17592905461788177
1789033788277046000,10.9170458984375,-0.5729911923408508,-0.12461641430854797,-0.1844811588525772
1789033788286971400,10.926971435546875,-0.665842592716217,0.09162971377372742,-0.19669845700263977
1789033788296896800,10.936896728515626,-0.7623592615127563,0.2809978127479553,-0.1954767256975174
1789033788306822400,10.946822509765624,-0.8405499458312988,0.3042106628417969,-0.2370155304670334
1789033788316747800,10.956747802734375,-0.8429933786392212,0.29443681240081787,-0.2663370370864868
1789033788326673400,10.96667333984375,-0.80389803647995,0.2834412455558777,-0.21380266547203064
1789033788336598800,10.976598876953124,-0.7904590368270874,0.20891575515270233,-0.1331685185432434
1789033788346524200,10.986524169921875,-0.8246674537658691,0.06108647957444191,-0.10140355676412582
1789033788356449800,10.99644970703125,-0.8808670043945312,-0.11972949653863907,-0.12950333952903748
1789033788366375200,11.006375244140624,-0.9505056142807007,-0.22357651591300964,-0.2101374864578247
1789033788376300500,11.016300537109375,-1.0372483730316162,-0.2675587832927704,-0.2883281707763672
1789033788386226200,11.02622607421875,-1.1337649822235107,-0.24434591829776764,-0.2834412455558777
1789033788396151600,11.036151611328124,-1.2217295169830322,-0.18081597983837128,-0.21135921776294708
1789033788406077000,11.046076904296875,-1.2791508436203003,-0.11362084746360779,-0.1649334877729416
1789033788416002600,11.05600244140625,-1.313359260559082,-0.028099779039621353,-0.1844811588525772
1789033788425928000,11.065927978515624,-1.313359260559082,0.05742128938436508,-0.24312418699264526
1789033788435853600,11.075853515625,-1.276707410812378,0.13927717506885529,-0.2809978127479553
1789033788445779000,11.085779052734376,-1.2522728443145752,0.21258094906806946,-0.3017672002315521
1789033788455704300,11.095704345703124,-1.2901464700698853,0.11239911615848541,-0.3481929302215576
1789033788465630000,11.1056298828125,-1.3585633039474487,-0.043982263654470444,-0.43493571877479553
1789033788475555300,11.115555419921876,-1.4013237953186035,-0.14782927930355072,-0.45937031507492065
1789033788485480700,11.125480712890624,-1.4367539882659912,-0.2370155304670334,-0.4007273018360138
1789033788495406300,11.13540625,-1.5149446725845337,-0.2419024556875229,-0.3652971386909485
1789033788505331700,11.145331787109376,-1.5760310888290405,-0.24434591829776764,-0.3909534513950348
1789033788515257000,11.155257080078124,-1.5955787897109985,-0.2822195291519165,-0.4263836145401001
1789033788525182700,11.1651826171875,-1.6297872066497803,-0.3335321843624115,-0.44837474822998047
1789033788535108000,11.175108154296876,-1.6774346828460693,-0.3995055556297302,-0.4618137776851654
1789033788545033700,11.18503369140625,-1.7091996669769287,-0.4886918365955353,-0.4935787320137024
1789033788554959000,11.194958984375,-1.722638726234436,-0.5338957905769348,-0.5253437161445618
1789033788564884500,11.204884521484376,-1.6872085332870483,-0.5277871489524841,-0.5387827157974243
1789033788574810000,11.21481005859375,-1.6053526401519775,-0.5057960152626038,-0.5143481492996216
1789033788584735500,11.224735595703125,-1.518609881401062,-0.4312705397605896,-0.42394015192985535
1789033788594660900,11.234660888671876,-1.4233149290084839,-0.36163195967674255,-0.3017672002315521
1789033788604586500,11.24458642578125,-1.303585410118103,-0.3433060050010681,-0.21991132199764252
1789033788614511900,11.254511962890625,-1.186299443244934,-0.24923282861709595,-0.21135921776294708
1789033788624437200,11.264437255859375,-1.0396918058395386,-0.1588248461484909,-0.20402882993221283
1789033788634363000,11.27436279296875,-0.8576541543006897,-0.15149445831775665,-0.09651663154363632
1789033788644288300,11.284288330078125,-0.7024945020675659,-0.1490510106086731,-0.003665188793092966
1789033788654214000,11.2942138671875,-0.5937605500221252,-0.07819069176912308,-0.014660755172371864
1789033788664139300,11.30413916015625,-0.4679224193096161,-0.04886918142437935,-0.012217295356094837
1789033788674064600,11.314064697265625,-0.31154105067253113,-0.003665188793092966,0.07086031138896942
1789033788683990300,11.323990234375,-0.1233946830034256,0.1331685185432434,0.18325942754745483
1789033788693915600,11.33391552734375,0.06841685622930527,0.24312418699264526,0.2467893660068512
1789033788703841000,11.343841064453125,0.2309068888425827,0.2761108875274658,0.2528980076313019
1789033788713766700,11.3537666015625,0.39828383922576904,0.2993237376213074,0.24434591829776764
1789033788723692000,11.363692138671874,0.5681042671203613,0.3555232882499695,0.20158538222312927
1789033788733617400,11.373617431640625,0.7367029190063477,0.4263836145401001,0.16004657745361328
1789033788743543000,11.38354296875,0.9065233469009399,0.44959646463394165,0.14172062277793884
1789033788753468400,11.393468505859374,1.0763437747955322,0.4459312856197357,0.16004657745361328
1789033788763393800,11.403393798828125,1.2192860841751099,0.44837474822998047,0.18203771114349365
1789033788773319400,11.4133193359375,1.331685185432434,0.4923570156097412,0.18081597983837128
1789033788783244800,11.423244873046874,1.4159845113754272,0.5241219997406006,0.17592905461788177
1789033788793170400,11.43317041015625,1.4929535388946533,0.5876519083976746,0.1954767256975174
1789033788803095800,11.443095703125,1.5711442232131958,0.6499601006507874,0.22846342623233795
1789033788813021200,11.453021240234374,1.635895848274231,0.7061597108840942,0.26022839546203613
1789033788822946800,11.46294677734375,1.684765100479126,0.6866120100021362,0.2993237376213074
1789033788832872200,11.4728720703125,1.701869249343872,0.6084213256835938,0.3176496922969818
1789033788842797600,11.482797607421874,1.7287473678588867,0.5803215503692627,0.3078758418560028
1789033788852723200,11.49272314453125,1.7629557847976685,0.5839866995811462,0.27488914132118225
1789033788862648600,11.502648681640625,1.8069380521774292,0.5119046568870544,0.2712239623069763
1789033788872574000,11.512573974609374,1.841146469116211,0.4679224193096161,0.2663370370864868
1789033788882499600,11.52249951171875,1.849698543548584,0.4410443603992462,0.2419024556875229
1789033788892425000,11.532425048828125,1.849698543548584,0.4007273018360138,0.21991132199764252
1789033788902350600,11.5423505859375,1.8521419763565063,0.31031930446624756,0.2003636509180069
1789033788912276000,11.55227587890625,1.8570289611816406,0.2419024556875229,0.17715078592300415
1789033788922201300,11.562201416015625,1.8277074098587036,0.1844811588525772,0.15027274191379547
1789033788932126700,11.572126708984374,1.7617340087890625,0.1698204129934311,0.1490510106086731
1789033788942052000,11.582052001953125,1.6859867572784424,0.22479823231697083,0.16737695038318634
1789033788951977700,11.591977783203125,1.6505566835403442,0.3543015718460083,0.21258094906806946
1789033788961903000,11.601903076171874,1.617569923400879,0.4324922561645508,0.23945899307727814
1789033788971828500,11.611828369140625,1.4929535388946533,0.3237583339214325,0.2052505612373352
1789033788981753900,11.62175390625,1.341459035873413,0.13072505593299866,0.17715078592300415
1789033788991679200,11.63167919921875,1.2363903522491455,0.09529490768909454,0.2101374864578247
1789033789001604600,11.6416044921875,1.1643083095550537,0.12583814561367035,0.235793799161911
1789033789011530200,11.6515302734375,1.0653481483459473,0.06597339361906052,0.23457208275794983
1789033789021455600,11.66145556640625,0.943175196647644,0.008552107028663158,0.27366742491722107
1789033789031381000,11.671381103515625,0.8173370957374573,-0.04764745384454727,0.3176496922969818
1789033789041306600,11.681306640625,0.675616443157196,-0.14660754799842834,0.31642794609069824
1789033789051232000,11.69123193359375,0.5485565662384033,-0.23457208275794983,0.2834412455558777
1789033789061157400,11.701157470703125,0.4312705397605896,-0.28466299176216125,0.23212862014770508
1789033789071083000,11.7110830078125,0.3139844834804535,-0.3225366175174713,0.1905898153781891
1789033789081008400,11.72100830078125,0.16737695038318634,-0.370184063911438,0.1637117564678192
1789033789090933800,11.730933837890625,0.023212861269712448,-0.471587598323822,0.12583814561367035
1789033789100859400,11.740859375,-0.09651663154363632,-0.5876519083976746,0.07941242307424545
1789033789110784800,11.75078466796875,-0.18081597983837128,-0.6646208763122559,0.036651886999607086
1789033789120710100,11.760710205078125,-0.24434591829776764,-0.6939423680305481,0.002443459117785096
1789033789130635800,11.7706357421875,-0.2993237376213074,-0.6914989352226257,-0.03787361457943916
1789033789140561200,11.78056103515625,-0.360410213470459,-0.6340776681900024,-0.08674279600381851
1789033789150486800,11.79048681640625,-0.4471530318260193,-0.5558869242668152,-0.13194678723812103
1789033789160412200,11.800412109375,-0.5729911923408508,-0.4153880476951599,-0.16004657745361328
1789033789170337500,11.810337646484374,-0.6963858604431152,-0.1893680840730667,-0.18325942754745483
1789033789180263200,11.82026318359375,-0.7892373204231262,0.0977383628487587,-0.20280711352825165
1789033789190188500,11.8301884765625,-0.8772017955780029,0.318871408700943,-0.19425499439239502
1789033789200114000,11.840114013671876,-0.9334014058113098,0.34697118401527405,-0.19792018830776215
1789033789210039600,11.85003955078125,-0.9395100474357605,0.29443681240081787,-0.19181154668331146
1789033789219965000,11.85996484375,-0.9285144805908203,0.2419024556875229,-0.1185077652335167
1789033789229890300,11.869890380859376,-0.9175189137458801,0.1698204129934311,-0.03176496922969818
1789033789239816000,11.87981591796875,-0.9309579133987427,0.023212861269712448,0.010995565913617611
1789033789249741300,11.8897412109375,-0.9712749719619751,-0.13683371245861053,0.004886918235570192
1789033789259667000,11.8996669921875,-1.0103703737258911,-0.24312418699264526,-0.040317077189683914
1789033789269592300,11.90959228515625,-1.0580178499221802,-0.3396408259868622,-0.08796452730894089
1789033789279517700,11.919517578125,-1.1081087589263916,-0.38850998878479004,-0.10873392969369888
1789033789289443300,11.929443359375,-1.1545344591140747,-0.3555232882499695,-0.0977383628487587
1789033789299368700,11.93936865234375,-1.2095122337341309,-0.3066541254520416,-0.09896009415388107
1789033789309294000,11.949294189453125,-1.29503333568573,-0.27855435013771057,-0.17348559200763702
1789033789319219700,11.9592197265625,-1.3121376037597656,-0.17715078592300415,-0.24312418699264526
1789033789329145000,11.96914501953125,-1.2412772178649902,0.03176496922969818,-0.21135921776294708
1789033789339070500,11.979070556640625,-1.2253947257995605,0.24312418699264526,-0.16737695038318634
1789033789348996000,11.98899609375,-1.33290696144104,0.25411975383758545,-0.1844811588525772
1789033789358921500,11.99892138671875,-1.4233149290084839,0.07819069176912308,-0.2712239623069763
1789033789368847000,12.00884716796875,-1.4245367050170898,-0.10751219838857651,-0.31031930446624756
1789033789378772500,12.0187724609375,-1.3781108856201172,-0.2809978127479553,-0.2932150959968567
1789033789388697900,12.02869775390625,-1.3793326616287231,-0.3591884970664978,-0.27977606654167175
1789033789398623500,12.03862353515625,-1.4123194217681885,-0.30054548382759094,-0.30543237924575806
1789033789408548900,12.048548828125,-1.4575233459472656,-0.21135921776294708,-0.36285367608070374
1789033789418474200,12.05847412109375,-1.5821397304534912,-0.17837251722812653,-0.3970620930194855
1789033789428399900,12.06839990234375,-1.6896519660949707,-0.1698204129934311,-0.39828383922576904
1789033789438325200,12.0783251953125,-1.7140865325927734,-0.1441640853881836,-0.370184063911438
1789033789448250600,12.088250732421875,-1.6701042652130127,-0.17226386070251465,-0.3237583339214325
1789033789458176300,12.09817626953125,-1.5894701480865479,-0.26022839546203613,-0.2809978127479553
1789033789468101600,12.1081015625,-1.5137228965759277,-0.27366742491722107,-0.2467893660068512
1789033789478027300,12.11802734375,-1.4379756450653076,-0.12461641430854797,-0.19303326308727264
1789033789487952600,12.12795263671875,-1.3377938270568848,0.0513126403093338,-0.11972949653863907
1789033789497878000,12.1378779296875,-1.1887428760528564,0.059864748269319534,-0.04276053607463837
1789033789507803600,12.1478037109375,-0.9883792400360107,-0.14538581669330597,0.03787361457943916
1789033789517729000,12.15772900390625,-0.8539889454841614,-0.21135921776294708,0.056199558079242706
1789033789527654400,12.167654296875,-0.758694052696228,-0.09651663154363632,0.004886918235570192
1789033789537580000,12.177580078125,-0.6585122346878052,-0.15271618962287903,0.06597339361906052
1789033789547505400,12.18750537109375,-0.5473348498344421,-0.22968515753746033,0.19303326308727264
1789033789557430800,12.1974306640625,-0.40317076444625854,-0.11362084746360779,0.2663370370864868
1789033789567356400,12.2073564453125,-0.23212862014770508,0.002443459117785096,0.32131487131118774
1789033789577281800,12.21728173828125,-0.050090912729501724,0.06597339361906052,0.3811796307563782
1789033789587207400,12.22720751953125,0.14049890637397766,0.13683371245861053,0.38728827238082886
1789033789597132800,12.2371328125,0.3274235129356384,0.2101374864578247,0.3445277214050293
1789033789607058200,12.24705810546875,0.5082395076751709,0.27855435013771057,0.3029889166355133
1789033789616983800,12.25698388671875,0.6743947267532349,0.32009315490722656,0.26389357447624207
1789033789626909200,12.2669091796875,0.8173370957374573,0.3066541254520416,0.24923282861709595
1789033789636834600,12.27683447265625,0.9541707634925842,0.31642794609069824,0.24923282861709595
1789033789646760200,12.28676025390625,1.0934479236602783,0.36285367608070374,0.2467893660068512
1789033789656685600,12.296685546875,1.2400555610656738,0.39339691400527954,0.2528980076313019
1789033789666611000,12.30661083984375,1.37078058719635,0.41416633129119873,0.26022839546203613
1789033789676536600,12.31653662109375,1.4636319875717163,0.3860665261745453,0.2528980076313019
1789033789686462000,12.3264619140625,1.535714030265808,0.3640754222869873,0.24923282861709595
1789033789696387600,12.3363876953125,1.5931353569030762,0.37629270553588867,0.2370155304670334
1789033789706313000,12.34631298828125,1.6346741914749146,0.35674503445625305,0.22235478460788727
1789033789716238300,12.35623828125,1.6615521907806396,0.370184063911438,0.21258094906806946
1789033789726164000,12.3661640625,1.6982040405273438,0.4068359434604645,0.2101374864578247
1789033789736089300,12.37608935546875,1.740964651107788,0.5192350745201111,0.19425499439239502
1789033789746014700,12.3860146484375,1.7556253671646118,0.564439058303833,0.16615521907806396
1789033789755940400,12.3959404296875,1.7519601583480835,0.5485565662384033,0.17592905461788177
1789033789765865700,12.40586572265625,1.750738501548767,0.5119046568870544,0.20158538222312927
1789033789775791000,12.415791015625,1.7458515167236328,0.4679224193096161,0.24312418699264526
1789033789785716700,12.425716796875,1.7519601583480835,0.4935787320137024,0.25045454502105713
1789033789795642000,12.43564208984375,1.7800599336624146,0.5607738494873047,0.20769402384757996
1789033789805567500,12.4455673828125,1.7947207689285278,0.5962040424346924,0.15149445831775665
1789033789815493000,12.4554931640625,1.7800599336624146,0.5778780579566956,0.16126830875873566
1789033789825418500,12.46541845703125,1.7299690246582031,0.5436696410179138,0.20891575515270233
1789033789835344100,12.47534423828125,1.6481131315231323,0.5082395076751709,0.21746785938739777
1789033789845269500,12.48526953125,1.5515965223312378,0.5192350745201111,0.19914191961288452
1789033789855195000,12.49519482421875,1.4538581371307373,0.5815432667732239,0.19669845700263977
1789033789865120500,12.50512060546875,1.361006736755371,0.6499601006507874,0.20647229254245758
1789033789875046000,12.5150458984375,1.255937933921814,0.5668824911117554,0.1795942485332489
1789033789884971300,12.52497119140625,1.156977891921997,0.40317076444625854,0.1698204129934311
1789033789894897000,12.53489697265625,1.0470222234725952,0.20769402384757996,0.16859868168830872
1789033789904822300,12.544822265625,0.9175189137458801,0.05253437161445618,0.17104214429855347
1789033789914747600,12.55474755859375,0.7867938280105591,0.03176496922969818,0.1747073233127594
1789033789924673300,12.56467333984375,0.6829468011856079,0.06841685622930527,0.17837251722812653
1789033789934598700,12.5745986328125,0.6010909676551819,0.08552107214927673,0.19792018830776215
