time,seconds_elapsed,z,y,x
1789033777505571300,0.1455712890625,0.09132428467273712,-0.02718348242342472,-0.2003636509180069
1789033777515497000,0.1554970703125,0.08155044913291931,-0.06337722390890121,-0.23594652116298676
1789033777525422600,0.165422607421875,0.05589412897825241,-0.12018764764070511,-0.2854265570640564
1789033777535348000,0.175347900390625,0.032070402055978775,-0.16416990756988525,-0.32879796624183655
1789033777545273300,0.1852734375,0.029016077518463135,-0.17638720571994781,-0.3324631452560425
1789033777555199000,0.195198974609375,0.04001164436340332,-0.145843967795372,-0.2860374450683594
1789033777565124400,0.205124267578125,0.041844237595796585,-0.08536835014820099,-0.21151192486286163
1789033777575050000,0.215050048828125,0.025350889191031456,-0.056657709181308746,-0.13209950923919678
1789033777584975400,0.224975341796875,0.003970621153712273,-0.05299251899123192,-0.06062832847237587
1789033777594900700,0.234900634765625,-0.014966187067329884,-0.050549060106277466,-0.0013744457392022014
1789033777604826400,0.244826416015625,-0.0412333719432354,-0.04321868345141411,0.03649916872382164
1789033777614751700,0.254751708984375,-0.07788526266813278,-0.043829549103975296,0.04810560122132301
1789033777624677400,0.264677490234375,-0.11026109009981155,-0.04566214233636856,0.03222311660647392
1789033777634602800,0.274602783203125,-0.1279761642217636,-0.054214250296354294,0.001679878099821508
1789033777644528400,0.2845283203125,-0.13164135813713074,-0.03955349326133728,-0.026419902220368385
1789033777654453800,0.294453857421875,-0.1389717310667038,0.016035201027989388,-0.05696314200758934
1789033777664379100,0.304379150390625,-0.14263692498207092,0.07101303339004517,-0.08384118974208832
1789033777674304800,0.3143046875,-0.13164135813713074,0.10094540566205978,-0.09911280870437622
1789033777684230400,0.32423046875,-0.1127045527100563,0.09850194305181503,-0.0899498388171196
1789033777694155800,0.33415576171875,-0.09560033679008484,0.0795651376247406,-0.052687086164951324
1789033777704081200,0.3440810546875,-0.0870482325553894,0.05024362727999687,0.010842849500477314
1789033777714006800,0.3540068359375,-0.08582650125026703,0.017867794260382652,0.08903354406356812
1789033777723932200,0.36393212890625,-0.09682206809520721,-0.004734201822429895,0.16905683279037476
1789033777733857800,0.37385791015625,-0.11759147047996521,-0.03588830679655075,0.2435823380947113
1789033777743783200,0.383783203125,-0.1279761642217636,-0.08536835014820099,0.32360562682151794
1789033777753708500,0.39370849609375,-0.13225223124027252,-0.1055268943309784,0.39507678151130676
1789033777763634200,0.40363427734375,-0.13591741025447845,-0.13484840095043182,0.4292852282524109
1789033777773559600,0.4135595703125,-0.1493564397096634,-0.19165882468223572,0.42562004923820496
1789033777783485200,0.423485107421875,-0.168904110789299,-0.27779075503349304,0.39018988609313965
1789033777793410600,0.43341064453125,-0.18600831925868988,-0.33337944746017456,0.34437501430511475
1789033777803336200,0.443336181640625,-0.1945604383945465,-0.3315468728542328,0.31261005997657776
1789033777813261600,0.453261474609375,-0.20738859474658966,-0.3321577310562134,0.3065013885498047
1789033777823187000,0.46318701171875,-0.2006690800189972,-0.3211621642112732,0.33337944746017456
1789033777833112600,0.473112548828125,-0.15241076052188873,-0.2753472924232483,0.4017963111400604
1789033777843038000,0.483037841796875,-0.05345066636800766,-0.20570871233940125,0.48181959986686707
1789033777852963600,0.492963623046875,0.019853105768561363,-0.16416990756988525,0.5355756878852844
1789033777862889000,0.502888916015625,0.023518294095993042,-0.13851359486579895,0.5410735011100769
1789033777872814300,0.512814453125,-0.011300998739898205,-0.11652245372533798,0.5099193453788757
1789033777882740000,0.522739990234375,-0.05345066636800766,-0.1153007298707962,0.4653262495994568
1789033777892665600,0.53266552734375,-0.10354158282279968,-0.17027856409549713,0.4066832363605499
1789033777902591000,0.542591064453125,-0.1542433500289917,-0.22953243553638458,0.32299473881721497
1789033777912516400,0.552516357421875,-0.19394956529140472,-0.26190826296806335,0.23075416684150696
1789033777922442000,0.56244189453125,-0.20861032605171204,-0.23258677124977112,0.13790272176265717
1789033777932367400,0.572367431640625,-0.19272783398628235,-0.14462223649024963,0.05299251899123192
1789033777942293000,0.58229296875,-0.14630211889743805,0.04108065739274025,-0.016035201027989388
1789033777952218400,0.59221826171875,-0.010079269297420979,0.31780239939689636,0.001679878099821508
1789033777962143700,0.602143798828125,0.1029307171702385,0.6684387922286987,0.1049160286784172
1789033777972069400,0.6120693359375,0.029626941308379173,0.8932369947433472,0.17455461621284485
1789033777981994800,0.621994873046875,-0.09010255336761475,0.8889609575271606,0.2386954128742218
1789033777991920400,0.63192041015625,-0.14996729791164398,0.8309288024902344,0.3211621642112732
1789033778001845800,0.641845703125,-0.12125665694475174,0.8064942359924316,0.42195484042167664
1789033778011771100,0.651771240234375,0.04001164436340332,0.6397281289100647,0.5471821427345276
1789033778021696800,0.66169677734375,0.2813032269477844,0.5279398560523987,0.734106719493866
1789033778031622100,0.6716220703125,0.4260781705379486,0.5236638188362122,0.8886555433273315
1789033778041547800,0.6815478515625,0.4059196412563324,0.48762279748916626,0.9363030195236206
1789033778051473200,0.69147314453125,0.24037529528141022,0.36911505460739136,0.864220917224884
1789033778061398800,0.701398681640625,-0.010079269297420979,0.20418155193328857,0.6693550944328308
1789033778071324200,0.71132421875,-0.2458730787038803,0.1308777779340744,0.36514443159103394
1789033778081249500,0.72124951171875,-0.36254823207855225,0.1571449637413025,0.06887500733137131
1789033778091175200,0.731175048828125,-0.35582873225212097,0.23228132724761963,-0.13332124054431915
1789033778101100500,0.7411005859375,-0.2733619809150696,0.3153589367866516,-0.24694208800792694
1789033778111026200,0.751026123046875,-0.19333870708942413,0.4088212549686432,-0.31291547417640686
1789033778120951600,0.76095166015625,-0.20738859474658966,0.5352702736854553,-0.35811948776245117
1789033778130877000,0.770876953125,-0.3338375985622406,0.44791659712791443,-0.3507890999317169
1789033778140802600,0.780802490234375,-0.47555822134017944,0.19562944769859314,-0.263435423374176
1789033778150728000,0.79072802734375,-0.5250383019447327,-0.08231402933597565,-0.1418733447790146
1789033778160653600,0.800653564453125,-0.47494736313819885,-0.24297146499156952,-0.017256930470466614
1789033778170579000,0.810578857421875,-0.3448331654071808,-0.27656903862953186,0.09208786487579346
1789033778180504300,0.82050439453125,-0.19883649051189423,-0.2594648003578186,0.15256348252296448
1789033778190430000,0.830429931640625,-0.10842850059270859,-0.23686282336711884,0.15073087811470032
1789033778200355600,0.84035546875,-0.07910698652267456,-0.26129740476608276,0.11163553595542908
1789033778210281000,0.850281005859375,-0.05222893878817558,-0.3248273432254791,0.04993819445371628
1789033778220206300,0.860206298828125,-0.004581485874950886,-0.4036289155483246,0.002901607658714056
1789033778230132000,0.870132080078125,0.02412915788590908,-0.45738500356674194,0.009010255336761475
1789033778240057300,0.880057373046875,0.006414080038666725,-0.5245801210403442,0.04627300798892975
1789033778249983000,0.88998291015625,-0.057726722210645676,-0.6736311316490173,0.07376192510128021
1789033778259908400,0.899908447265625,-0.13775001466274261,-0.8116865754127502,0.11285726726055145
1789033778269833700,0.909833740234375,-0.2006690800189972,-0.8770490884780884,0.16783510148525238
1789033778279759400,0.91975927734375,-0.2556469142436981,-0.9283617734909058,0.21548254787921906
1789033778289684700,0.929684814453125,-0.2910770773887634,-1.0089958906173706,0.26251915097236633
1789033778299610400,0.9396103515625,-0.3026835024356842,-1.0920735597610474,0.31261005997657776
1789033778309535700,0.94953564453125,-0.31001389026641846,-1.1714859008789062,0.34498587250709534
1789033778319461000,0.959461181640625,-0.30146175622940063,-1.22402024269104,0.3712530732154846
1789033778329386800,0.96938671875,-0.3081812858581543,-1.2777763605117798,0.3883572816848755
1789033778339312000,0.97931201171875,-0.36254823207855225,-1.253341794013977,0.4091266989707947
1789033778349237800,0.98923779296875,-0.3961458206176758,-1.124449372291565,0.46166107058525085
1789033778359163100,0.9991630859375,-0.41874781250953674,-1.0633628368377686,0.4964803457260132
1789033778369088500,1.009088623046875,-0.4608974754810333,-1.0413717031478882,0.523969292640686
1789033778379014100,1.01901416015625,-0.4108065664768219,-1.0083850622177124,0.5508472919464111
1789033778388939500,1.028939453125,-0.2000582218170166,-1.0120502710342407,0.5490147471427917
1789033778398865200,1.038865234375,-0.05222893878817558,-1.0261001586914062,0.5484038591384888
1789033778408790500,1.04879052734375,-0.003359756199643016,-1.030987024307251,0.577725350856781
1789033778418716000,1.0587158203125,0.016798781231045723,-1.123227596282959,0.6363683938980103
1789033778428641500,1.0686416015625,0.010690134018659592,-1.272889494895935,0.771980345249176
1789033778438567000,1.07856689453125,-0.032681263983249664,-1.3529127836227417,0.9540180563926697
1789033778448492500,1.088492431640625,-0.04917461425065994,-1.333975911140442,1.0822997093200684
1789033778458418000,1.09841796875,-0.008857538923621178,-1.2295180559158325,1.133001446723938
1789033778468343300,1.10834326171875,0.07849612087011337,-1.1928662061691284,1.1574360132217407
1789033778478269000,1.11826904296875,0.20311254262924194,-1.2997674942016602,1.1757619380950928
1789033778488194300,1.1281943359375,0.3601047992706299,-1.5105159282684326,1.2374593019485474
1789033778498120000,1.138119873046875,0.49082985520362854,-1.7579160928726196,1.3608540296554565
1789033778508045300,1.14804541015625,0.5732966065406799,-2.020587921142578,1.4445425271987915
1789033778517970700,1.157970703125,0.6246092319488525,-2.176969289779663,1.3877320289611816
1789033778527896300,1.167896240234375,0.6954695582389832,-2.2392776012420654,1.1189515590667725
1789033778537821700,1.17782177734375,0.7528908252716064,-2.139706611633301,0.7163916826248169
1789033778547747300,1.187747314453125,0.8078686594963074,-1.9161300659179688,0.301003634929657
1789033778557672700,1.197672607421875,0.8567378520965576,-1.764635682106018,-0.05635227635502815
1789033778567598000,1.20759814453125,0.9477567076683044,-1.7554726600646973,-0.2652680277824402
1789033778577523700,1.217523681640625,1.079703450202942,-1.8874194622039795,-0.28298309445381165
1789033778587449000,1.227448974609375,1.2397500276565552,-2.195906162261963,-0.15286891162395477
1789033778597374700,1.237374755859375,1.4407246112823486,-2.5911357402801514,0.10858121514320374
1789033778607300000,1.247300048828125,1.6649119853973389,-3.023017168045044,0.4500546157360077
1789033778617225500,1.2572255859375,1.813352108001709,-3.467115879058838,0.7023417949676514
1789033778627151000,1.267151123046875,1.9306381940841675,-3.73833966255188,0.6534726023674011
1789033778637076500,1.277076416015625,1.8298454284667969,-3.6699228286743164,0.2600756883621216
1789033778647002000,1.287002197265625,1.6862921714782715,-3.426187753677368,-0.3422369956970215
1789033778656927500,1.296927490234375,1.564730167388916,-3.0443973541259766,-0.9140064120292664
1789033778666852900,1.306852783203125,1.4633265733718872,-2.693150043487549,-1.3122903108596802
1789033778676778500,1.316778564453125,1.4645483493804932,-2.4549129009246826,-1.4857758283615112
1789033778686703900,1.326703857421875,1.7626503705978394,-2.3791656494140625,-1.4888302087783813
1789033778696629500,1.33662939453125,2.4468188285827637,-2.467130184173584,-1.447291374206543
1789033778706555000,1.346554931640625,3.065624952316284,-3.0193519592285156,-1.2286018133163452
1789033778716480300,1.356480224609375,3.674046277999878,-4.093252182006836,-0.8052725195884705
1789033778726406000,1.366406005859375,3.873188018798828,-4.828733444213867,-0.45769044756889343
1789033778736331300,1.376331298828125,3.671602725982666,-5.201360702514648,-0.11866047978401184
1789033778746257000,1.3862568359375,3.216508388519287,-5.170206546783447,0.051159925758838654
1789033778756182300,1.396182373046875,2.7528622150421143,-4.850113868713379,0.005345067009329796
1789033778766108000,1.40610791015625,2.4773621559143066,-4.223977088928223,-0.25671592354774475
1789033778776033300,1.416033203125,2.3985605239868164,-3.3382232189178467,-0.7973312735557556
1789033778785958700,1.425958740234375,2.5048511028289795,-2.6002986431121826,-1.2890774011611938
1789033778795884000,1.435884033203125,2.6887214183807373,-2.4121522903442383,-1.5431971549987793
1789033778805809700,1.4458095703125,2.8548765182495117,-2.610072374343872,-1.6207770109176636
1789033778815735300,1.4557353515625,2.914741277694702,-2.827540397644043,-1.5560252666473389
1789033778825660700,1.46566064453125,2.9575018882751465,-2.9765913486480713,-1.335503101348877
1789033778835586000,1.4755859375,3.0589053630828857,-3.0755515098571777,-0.9866993427276611
1789033778845511400,1.485511474609375,3.1248788833618164,-2.9570436477661133,-0.5988001823425293
1789033778855437000,1.49543701171875,3.02591872215271,-2.6174027919769287,-0.28176137804985046
1789033778865362400,1.505362548828125,2.831052780151367,-2.140317440032959,-0.12721258401870728
1789033778875288000,1.5152880859375,2.6618432998657227,-1.743866205215454,-0.1718057245016098
1789033778885213400,1.52521337890625,2.617861032485962,-1.633299708366394,-0.3477347791194916
1789033778895138800,1.535138916015625,2.6526803970336914,-1.6894992589950562,-0.5450441241264343
1789033778905064400,1.545064453125,2.7589707374572754,-1.8116722106933594,-0.716697096824646
1789033778914989800,1.55498974609375,2.9410085678100586,-1.8428263664245605,-0.8156571984291077
1789033778924915500,1.56491552734375,3.0863943099975586,-1.5526655912399292,-0.9152281284332275
1789033778934840800,1.5748408203125,3.397324562072754,-1.0841323137283325,-1.1027636528015137
1789033778944766200,1.58476611328125,3.489565134048462,-0.5984947681427002,-1.2176061868667603
1789033778954691800,1.59469189453125,3.0998332500457764,-0.07559451460838318,-1.30923593044281
1789033778964617200,1.6046171875,2.542724609375,0.337350070476532,-1.345276951789856
1789033778974542800,1.61454296875,2.1242823600769043,0.521831214427948,-1.279914379119873
1789033778984468200,1.62446826171875,1.8927645683288574,0.4289797842502594,-1.1278090476989746
1789033778994393600,1.6343935546875,1.704618215560913,0.2994764447212219,-0.8535308241844177
1789033779004319200,1.6443193359375,1.4572179317474365,0.2237292230129242,-0.448527455329895
1789033779014244600,1.65424462890625,1.2519673109054565,-0.014508038759231567,-0.09300415962934494
1789033779024170000,1.664169921875,1.0509928464889526,-0.13973531126976013,0.1922696828842163
1789033779034095600,1.674095703125,0.8836159110069275,-0.19898919761180878,0.3712530732154846
1789033779044021000,1.68402099609375,0.7724385261535645,-0.3223838806152344,0.43050694465637207
1789033779053947400,1.693947509765625,0.7247910499572754,-0.7139481902122498,0.38652467727661133
1789033779063872000,1.7038720703125,0.5732966065406799,-0.9039271473884583,0.43661558628082275
1789033779073797400,1.71379736328125,0.40958482027053833,-0.9045380353927612,0.514195442199707
1789033779083723000,1.723722900390625,0.26358816027641296,-0.826958179473877,0.5991056561470032
1789033779093648400,1.7336484375,0.12125665694475174,-0.7805324792861938,0.7200568318367004
1789033779103574000,1.743573974609375,0.04001164436340332,-0.8104648590087891,0.7750346660614014
1789033779113499400,1.75349951171875,0.010079269297420979,-0.7023417949676514,0.7768672704696655
1789033779123424800,1.7634248046875,-0.011300998739898205,-0.505032479763031,0.7493783831596375
1789033779133350400,1.773350341796875,-0.010690134018659592,-0.27656903862953186,0.6296488642692566
1789033779143275800,1.78327587890625,-0.013744457624852657,0.0038179049734026194,0.44211336970329285
1789033779153201400,1.793201416015625,-0.03695731982588768,0.18096868693828583,0.32360562682151794
1789033779163126800,1.803126708984375,-0.08460476994514465,0.2487746775150299,0.2503018379211426
1789033779173052200,1.81305224609375,-0.1542433500289917,0.15775582194328308,0.1727220118045807
1789033779182977800,1.822977783203125,-0.27947062253952026,0.04474584385752678,0.12018764764070511
1789033779192903200,1.832903076171875,-0.40958482027053833,-0.09636391699314117,0.08659008145332336
1789033779202828500,1.84282861328125,-0.5244274139404297,-0.2539670467376709,0.1207985132932663
1789033779212754200,1.852754150390625,-0.6154462695121765,-0.3480401933193207,0.2179260104894638
1789033779222679600,1.862679443359375,-0.6704241037368774,-0.3455967605113983,0.2906189262866974
1789033779274647600,1.9146474609375,-0.3759872615337372,0.1302669197320938,-0.1418733447790146
1789033779284573000,1.924572998046875,-0.31490078568458557,0.19379685819149017,-0.1052214577794075
1789033779294498600,1.93449853515625,-0.26480987668037415,0.20723587274551392,-0.027030766010284424
1789033779304424000,1.944423828125,-0.23793183267116547,0.15836669504642487,0.09636391699314117
1789033779314349300,1.954349365234375,-0.2574795186519623,0.04474584385752678,0.24785839021205902
1789033779324275000,1.96427490234375,-0.28435754776000977,-0.13484840095043182,0.38102689385414124
1789033779334200300,1.974200439453125,-0.3124573230743408,-0.39507678151130676,0.5569559335708618
1789033779344126000,1.9841259765625,-0.36132651567459106,-0.6956222653388977,0.8147408962249756
1789033779354051300,1.99405126953125,-0.3943132162094116,-1.0120502710342407,1.050534725189209
1789033779363976700,2.003976806640625,-0.38209593296051025,-1.2625048160552979,1.2557852268218994
1789033779373902300,2.01390234375,-0.26969680190086365,-1.2026400566101074,1.2606722116470337
1789033779383827700,2.02382763671875,-0.0974329337477684,-0.9778417944908142,0.9967786073684692
1789033779393753000,2.033753173828125,0.13713914155960083,-0.7066178321838379,0.7243329286575317
1789033779403678700,2.0436787109375,0.6563742160797119,-0.20448698103427887,0.36514443159103394
1789033779413604000,2.05360400390625,0.9605848789215088,0.37094762921333313,0.02306014485657215
1789033779423529700,2.06352978515625,0.9239329695701599,0.39416050910949707,-0.036804601550102234
1789033779433455000,2.073455078125,1.071762204170227,0.20723587274551392,-0.09056070446968079
1789033779443380500,2.08338037109375,1.0754274129867554,0.1571449637413025,-0.06490438431501389
1789033779453306000,2.09330615234375,0.9532544612884521,0.03741546720266342,-0.020922118797898293
1789033779463231500,2.1032314453125,0.7614429593086243,-0.17027856409549713,0.06215549260377884
1789033779473156900,2.113156982421875,0.7785471677780151,-0.39018988609313965,0.19043709337711334
1789033779483082500,2.12308251953125,0.8323032855987549,-0.02367101050913334,0.28206682205200195
1789033779493008000,2.1330078125,0.435241162776947,0.31230461597442627,0.1879936307668686
1789033779502933200,2.142933349609375,0.1127045527100563,0.022754713892936707,0.010842849500477314
1789033779512859000,2.15285888671875,-0.11209368705749512,-0.5025889873504639,0.3663661479949951
1789033779522784300,2.1627841796875,-0.3491092324256897,-1.326034665107727,1.1470513343811035
1789033779532709600,2.172709716796875,-0.5409207344055176,-2.126267671585083,1.643073558807373
1789033779542635300,2.18263525390625,-0.5690205693244934,-2.2594361305236816,1.4903573989868164
1789033779552560600,2.192560546875,-0.5323686599731445,-1.354134440422058,1.1580469608306885
1789033779562486300,2.202486328125,-0.4150826036930084,-0.443945974111557,0.771980345249176
1789033779572411600,2.21241162109375,-0.27091851830482483,0.45158177614212036,0.7805324792861938
1789033779582337000,2.2223369140625,-0.24037529528141022,0.9146173000335693,1.0749692916870117
1789033779592262700,2.2322626953125,-0.3857611119747162,0.41492989659309387,0.9882264733314514
1789033779602188000,2.24218798828125,-0.5787943601608276,-0.044440411031246185,0.9796743988990784
1789033779612113400,2.252113525390625,-0.7559451460838318,-0.21670427918434143,1.0847431421279907
1789033779622039000,2.2620390625,-0.9770781993865967,-0.7273872494697571,1.106734275817871
1789033779631964400,2.27196435546875,-0.9477567076683044,-1.3675734996795654,1.8825324773788452
1789033779641889800,2.281889892578125,-1.1530072689056396,-0.9228639602661133,2.808603525161743
1789033779651815400,2.2918154296875,-1.4902045726776123,-1.6192498207092285,2.464075803756714
1789033779661740800,2.30174072265625,-1.3362667560577393,-1.9149084091186523,1.6870558261871338
1789033779671666400,2.31166650390625,-1.018617033958435,-0.6931788325309753,1.7664681673049927
1789033779681591800,2.321591796875,-0.5995637774467468,-0.5514581799507141,0.9613484740257263
1789033779691517200,2.33151708984375,-0.4199695289134979,0.19868376851081848,0.3052796721458435
1789033779701442800,2.34144287109375,-0.3344484567642212,1.1589632034301758,0.3627009689807892
1789033779711368200,2.3513681640625,-0.3857611119747162,1.2481495141983032,0.7377719283103943
1789033779721293600,2.36129345703125,-0.3906480371952057,0.27809619903564453,0.19532401859760284
1789033779731219200,2.37121923828125,-0.29413139820098877,-0.13729186356067657,0.008399390615522861
1789033779741144600,2.38114453125,-0.21838416159152985,-0.3730856776237488,0.0951421856880188
1789033779751070000,2.391070068359375,-0.3539961278438568,-0.44638943672180176,0.25274530053138733
1789033779760995600,2.40099560546875,-0.6801979541778564,-0.6785180568695068,0.3871355652809143
1789033779770921000,2.4109208984375,-1.117577075958252,-0.8116865754127502,0.6498073935508728
1789033779780846600,2.4208466796875,-1.2079850435256958,-0.9900590777397156,0.9344704151153564
1789033779790772000,2.43077197265625,-1.156672477722168,-1.300378441810608,0.9613484740257263
1789033779800697300,2.440697265625,-1.1640028953552246,-1.5141810178756714,0.6913462281227112
1789033779810623000,2.450623046875,-1.2495238780975342,-1.39445161819458,0.7744238376617432
1789033779820548400,2.46054833984375,-1.3851358890533447,-1.6449061632156372,1.088408350944519
1789033779830473700,2.4704736328125,-1.5659518241882324,-2.4720170497894287,1.392619013786316
1789033779840399400,2.4803994140625,-1.4230095148086548,-3.1757333278656006,1.458592414855957
1789033779850324700,2.49032470703125,-1.107803225517273,-3.59600830078125,1.788459300994873
1789033779860250000,2.50025,-1.0882556438446045,-4.957015037536621,2.1134393215179443
1789033779870175700,2.51017578125,-1.302058219909668,-4.8311767578125,2.1048872470855713
1789033779880101000,2.52010107421875,-0.8402445316314697,-3.363879680633545,1.5624394416809082
1789033779890026800,2.53002685546875,-0.3588830530643463,-2.2313363552093506,0.7194460034370422
1789033779899952000,2.5399521484375,-0.33322674036026,-2.106719970703125,0.08781181275844574
1789033779909877500,2.54987744140625,-0.5897899270057678,-2.4940080642700195,-0.5535961985588074
1789033779919803100,2.55980322265625,-0.5971203446388245,-2.9350526332855225,-1.6042835712432861
1789033779929728500,2.569728515625,0.795651376247406,-2.274096965789795,-2.0208933353424072
1789033779939654000,2.57965380859375,1.3820815086364746,-1.0877974033355713,-1.8290818929672241
1789033779949579500,2.58957958984375,1.0375537872314453,-1.0682498216629028,-1.6543744802474976
1789033779959505000,2.5995048828125,0.6246092319488525,-0.9900590777397156,-0.9066760540008545
1789033779969430300,2.60943017578125,0.1847866028547287,-0.9155336022377014,-0.32879796624183655
1789033779979356000,2.61935595703125,-0.3124573230743408,-0.8422298431396484,-0.20540328323841095
1789033779989281300,2.62928125,-0.5054906010627747,-0.2802342176437378,-0.2811505198478699
1789033779999207000,2.63920703125,-0.5079340934753418,0.6079631447792053,-0.3214675784111023
1789033780009132300,2.64913232421875,-0.4114174246788025,1.0380120277404785,-0.1821904182434082
1789033780019057700,2.6590576171875,-0.33322674036026,1.1186461448669434,0.16844595968723297
1789033780028983300,2.6689833984375,-0.3246746361255646,1.1907281875610352,0.5569559335708618
1789033780038908700,2.67890869140625,-0.3087921440601349,1.2786927223205566,0.8037453293800354
1789033780048834000,2.688833984375,-0.2684750556945801,1.282357931137085,0.8782708644866943
1789033780058759700,2.698759765625,-0.02412915788590908,1.816253662109375,0.7512109875679016
1789033780068685000,2.70868505859375,0.5390881896018982,2.727663993835449,0.24297146499156952
1789033780078610400,2.7186103515625,0.722347617149353,2.805854558944702,0.23441936075687408
1789033780088536000,2.7285361328125,0.6453786492347717,1.5890120267868042,0.6327031850814819
1789033780098461400,2.73846142578125,0.5195404887199402,1.3336704969406128,0.966235339641571
1789033780108387000,2.748386962890625,0.5732966065406799,2.7447681427001953,0.7585413455963135
1789033780118312400,2.7583125,0.8200859427452087,3.727038621902466,1.1494947671890259
1789033780128237800,2.76823779296875,0.44990190863609314,2.5187482833862305,-0.38988444209098816
1789033780138163200,2.7781630859375,0.25442516803741455,2.5578434467315674,-0.8492547869682312
1789033780148088600,2.788088623046875,0.4657844007015228,3.911520004272461,1.167820692062378
1789033780158014200,2.79801416015625,-0.015577051788568497,0.902400016784668,0.2503018379211426
1789033780167939600,2.807939697265625,-0.07544180005788803,0.3672824501991272,-0.11866047978401184
1789033780177865000,2.817864990234375,0.3326158821582794,2.402683973312378,1.6540690660476685
1789033780187790300,2.827790283203125,0.13103049993515015,2.0777037143707275,1.9790492057800293
1789033780197715700,2.8377158203125,0.3692677617073059,1.6097813844680786,-0.04046979174017906
1789033780207641000,2.84764111328125,0.6624828577041626,2.962235927581787,-0.6843212842941284
1789033780217566500,2.85756640625,0.40714138746261597,2.7032294273376465,-0.7283035516738892
1789033780227492000,2.8674921875,-0.02779434807598591,1.4436261653900146,-0.4497492015361786
1789033780237417500,2.87741748046875,-0.11453714966773987,0.5676460862159729,-0.05635227635502815
1789033780247343000,2.887343017578125,-0.10354158282279968,0.16081015765666962,0.10858121514320374
1789033780257268500,2.8972685546875,-0.2831358313560486,-0.2228129357099533,0.15989385545253754
1789033780267193900,2.90719384765625,-0.5873464941978455,-0.5636754631996155,0.6485856771469116
1789033780277119500,2.917119384765625,-1.0235038995742798,-1.4372121095657349,1.012661099433899
1789033780287044900,2.927044921875,-1.3643665313720703,-2.2643229961395264,0.7231112122535706
1789033780296970200,2.93697021484375,-1.477987289428711,-2.4207043647766113,0.93813556432724
1789033780306896000,2.946895751953125,-1.4645483493804932,-2.5917465686798096,0.9650136232376099
1789033780316821200,2.9568212890625,-0.9844086170196533,-2.059072494506836,0.6217076182365417
1789033780326746600,2.96674658203125,0.15668681263923645,-0.4451677203178406,-0.09666935354471207
1789033780336672300,2.97667236328125,0.28008151054382324,0.7399099469184875,-0.5364919900894165
1789033780346597600,2.98659765625,-0.37232208251953125,0.8694133162498474,-0.4705185890197754
1789033780356523300,2.996523193359375,-0.6740893125534058,0.8290961980819702,-0.31902414560317993
1789033780366448600,3.00644873046875,-0.8060360550880432,0.3257436454296112,-0.06979130208492279
1789033780376374000,3.0163740234375,-0.8683443069458008,-0.4744892120361328,0.09269873052835464
1789033780386299600,3.026299560546875,-0.8268054723739624,-0.9033163189888,-0.08323032408952713
1789033780396225000,3.03622509765625,-0.6423243284225464,-0.9888373613357544,-0.5682569742202759
1789033780406150400,3.046150390625,-0.39309149980545044,-1.1000148057937622,-1.0667226314544678
1789033780416076000,3.056075927734375,-0.11698060482740402,-1.2502875328063965,-1.4894410371780396
1789033780426001400,3.06600146484375,0.15057817101478577,-1.1403318643569946,-1.8193080425262451
1789033780435926800,3.0759267578125,0.41813695430755615,-0.8251255750656128,-2.0685408115386963
1789033780445852400,3.085852294921875,0.693026065826416,-0.5172497630119324,-2.207818031311035
1789033780455777800,3.09577783203125,0.9764673709869385,-0.1262962967157364,-2.2786784172058105
1789033780465703400,3.105703369140625,1.4749330282211304,0.407599538564682,-2.383747100830078
1789033780475628800,3.11562890625,1.7986913919448853,0.8620828986167908,-2.3263258934020996
1789033780485554200,3.12555419921875,1.9318598508834839,1.0135773420333862,-2.0966405868530273
1789033780495479800,3.135479736328125,2.1224496364593506,1.134528636932373,-1.8608468770980835
1789033780505405200,3.1454052734375,2.1872012615203857,1.1772891283035278,-1.5847359895706177
1789033780515330600,3.15533056640625,2.2702789306640625,1.0465641021728516,-1.254868984222412
1789033780525256200,3.165256103515625,2.427881956100464,0.7887791395187378,-0.920115053653717
1789033780535181600,3.175181640625,2.4743077754974365,0.46746426820755005,-0.6391173005104065
1789033780545107000,3.18510693359375,2.3924520015716553,0.21212279796600342,-0.448527455329895
1789033780555032600,3.195032470703125,2.2421791553497314,0.16814053058624268,-0.3923279047012329
1789033780564958000,3.2049580078125,1.9819507598876953,0.3733910918235779,-0.38988444209098816
1789033780574883300,3.21488330078125,1.6594141721725464,0.5798633694648743,-0.3935496211051941
1789033780584809000,3.22480908203125,1.3234385251998901,0.5920807123184204,-0.25060728192329407
1789033780594734300,3.234734375,0.9630283117294312,0.4088212549686432,0.004734201822429895
1789033780604660000,3.244659912109375,0.5842921733856201,0.29275694489479065,0.28817546367645264
1789033780614585300,3.25458544921875,0.1591302752494812,0.4381427764892578,0.49220430850982666
1789033780624510700,3.2645107421875,-0.27947062253952026,0.7093667387962341,0.6595812439918518
1789033780634436400,3.274436279296875,-0.7938187718391418,0.9488257169723511,0.6815723776817322
1789033780644361700,3.28436181640625,-1.5390738248825073,0.8975130915641785,0.6937896609306335
1789033780654287000,3.294287109375,-2.4272711277008057,0.4601338803768158,0.597273051738739
1789033780664212700,3.304212646484375,-2.88053297996521,0.2084576040506363,0.4482220411300659
1789033780674138000,3.31413818359375,-2.852433204650879,0.011759147047996521,0.54962557554245
1789033780684063500,3.3240634765625,-3.2091782093048096,-0.8666644096374512,0.07070759683847427
1789033780693989000,3.333989013671875,-3.4913976192474365,-1.2344050407409668,-1.2487603425979614
1789033780703914500,3.34391455078125,-3.182300090789795,-0.19104796648025513,-1.7777692079544067
1789033780713840000,3.353840087890625,-2.556774616241455,0.9744820594787598,-1.9720242023468018
1789033780723765500,3.363765625,-2.137721300125122,1.641546368598938,-2.092975378036499
1789033780733691000,3.37369091796875,-2.042426347732544,1.5560252666473389,-1.9427027702331543
1789033780743616500,3.383616455078125,-2.064417600631714,0.8877392411231995,-1.7105741500854492
1789033780753542000,3.3935419921875,-2.0741913318634033,0.26710063219070435,-1.6030619144439697
1789033780763467300,3.40346728515625,-1.9312490224838257,0.18524473905563354,-1.735008716583252
1789033780773393000,3.413392822265625,-1.5879429578781128,0.3733910918235779,-1.9964587688446045
1789033780783318300,3.423318359375,-1.1310161352157593,0.5261073112487793,-2.0685408115386963
1789033780793243600,3.43324365234375,-0.7632755637168884,0.5163334608078003,-1.8877248764038086
1789033780803169300,3.443169189453125,-0.5006036758422852,0.3196350038051605,-1.4882192611694336
1789033780813094700,3.4530947265625,-0.21227550506591797,0.006872228812426329,-0.8675807118415833
1789033780823020300,3.463020263671875,0.1945604383945465,-0.31322091817855835,-0.09789107739925385
1789033780832945700,3.472945556640625,0.6991347670555115,-0.4903717041015625,0.7121156454086304
1789033780842871000,3.48287109375,1.1047489643096924,-0.5245801210403442,1.5013529062271118
1789033780852796700,3.492796630859375,1.3087778091430664,-0.5734493136405945,2.2307255268096924
1789033780862722000,3.50272216796875,1.4602723121643066,-0.485484778881073,3.0028586387634277
1789033780872647400,3.5126474609375,1.5690062046051025,-0.27168211340904236,3.733452796936035
1789033780882573000,3.522572998046875,1.5934407711029053,-0.09941824525594711,4.3321003913879395
1789033780892498400,3.53249853515625,1.3637555837631226,-0.4805978536605835,4.730384349822998
1789033780902423800,3.542423828125,0.3069595396518707,-2.252105712890625,3.397477149963379
1789033780912349400,3.552349365234375,-0.8683443069458008,-3.74139404296875,0.025503603741526604
1789033780922274800,3.56227490234375,-0.5568032264709473,-2.254549264907837,-1.5248712301254272
1789033780932200400,3.572200439453125,0.15179990231990814,1.4045308828353882,-0.8846849203109741
1789033780942125800,3.582125732421875,0.33750277757644653,2.855945587158203,-0.31291547417640686
1789033780952051200,3.59205126953125,0.23243404924869537,1.5315907001495361,0.2698495090007782
1789033780961976800,3.601976806640625,0.11026109009981155,-0.18005239963531494,1.021213173866272
1789033780971902200,3.611902099609375,0.10903936624526978,-1.363908290863037,1.4366012811660767
1789033780981827600,3.62182763671875,0.13225223124027252,-1.670562505722046,1.3865103721618652
1789033780991753200,3.631753173828125,0.1591302752494812,-1.384677767753601,0.9931133985519409
1789033781001678600,3.6416787109375,0.16157373785972595,-1.0096067190170288,0.5080868005752563
1789033781011604000,3.65160400390625,0.04428769648075104,-0.7579304575920105,0.09392046183347702
1789033781021529600,3.661529541015625,-0.09376774728298187,-0.5771145224571228,-0.2078467458486557
1789033781031455000,3.671455078125,-0.20738859474658966,-0.42562004923820496,-0.3116937577724457
1789033781041380600,3.681380615234375,-0.3124573230743408,-0.5209149122238159,-0.16019928455352783
1789033781051306000,3.691305908203125,-0.4272999167442322,-0.9888373613357544,0.4237874448299408
1789033781061231400,3.7012314453125,-0.37354379892349243,-2.006538152694702,0.9051488637924194
1789033781071157000,3.711156982421875,-0.5115992426872253,-2.966817617416382,1.5624394416809082
1789033781081082400,3.721082275390625,-0.5812378525733948,-3.176954984664917,1.7456988096237183
1789033781091007700,3.7310078125,-0.35766133666038513,-1.8794782161712646,1.068860650062561
1789033781100933400,3.740933349609375,-0.19883649051189423,-0.7518218159675598,0.3272708058357239
1789033781110858800,3.750858642578125,-0.19639302790164948,-0.7701478004455566,0.09758564829826355
1789033781120784100,3.7607841796875,-0.34788748621940613,-1.70721435546875,0.35903576016426086
1789033781130709800,3.770709716796875,-0.33689191937446594,-2.4292564392089844,0.4042397737503052
1789033781140635100,3.78063525390625,-0.038789913058280945,-2.4329216480255127,-0.052687086164951324
1789033781150560800,3.790560791015625,1.0326669216156006,-2.377943754196167,-1.014188289642334
1789033781160486100,3.800486083984375,2.1725406646728516,-2.132376194000244,-1.3513855934143066
1789033781170411500,3.81041162109375,1.675296664237976,-2.0896155834198,-0.7930551767349243
1789033781180337200,3.820337158203125,1.0803143978118896,-2.137263059616089,-0.3043633699417114
1789033781190262500,3.830262451171875,0.601396381855011,-1.5862630605697632,0.06337722390890121
1789033781200188000,3.84018798828125,0.2715294063091278,-0.5893318057060242,0.35537058115005493
1789033781210113500,3.850113525390625,0.010079269297420979,0.0899498388171196,0.4298960864543915
1789033781220039000,3.860038818359375,-0.24037529528141022,0.5248855352401733,0.4433351159095764
1789033781229964300,3.86996435546875,-0.602007269859314,1.0001384019851685,0.4066832363605499
1789033781239890000,3.879889892578125,-0.9233221411705017,1.7490586042404175,0.24297146499156952
1789033781249815300,3.889815185546875,-1.0760383605957031,2.9048147201538086,-0.1821904182434082
1789033781259740700,3.89974072265625,-1.0638209581375122,4.214509010314941,-0.4045451879501343
1789033781269666300,3.909666259765625,-0.9111047983169556,4.920668601989746,-0.20906847715377808
1789033781279591700,3.919591796875,-0.8659008145332336,4.753291606903076,0.07070759683847427
1789033781289517300,3.929517333984375,-0.9880737662315369,3.8321075439453125,0.3529271185398102
1789033781299442700,3.939442626953125,-0.9233221411705017,2.3868014812469482,0.7194460034370422
1789033781309368000,3.9493681640625,-0.517707884311676,1.5450297594070435,1.0945169925689697
1789033781319293700,3.959293701171875,-0.2831358313560486,1.7124066352844238,1.07863450050354
1789033781329219000,3.969218994140625,-0.0974329337477684,2.9878923892974854,1.4952442646026611
1789033781339144400,3.97914453125,-0.13652828335762024,2.1815507411956787,0.6791289448738098
1789033781349070000,3.989070068359375,-0.30512696504592896,1.6684244871139526,-0.624456524848938
1789033781358995500,3.998995361328125,-0.19394956529140472,2.615264892578125,-0.9176716208457947
1789033781368920800,4.0089208984375,-0.26480987668037415,3.3373069763183594,-0.5621483325958252
1789033781378846500,4.018846435546875,0.03329212963581085,3.318981170654297,0.45799586176872253
1789033781388771800,4.028771728515625,0.1591302752494812,1.0795507431030273,-0.7380773425102234
1789033781398697500,4.038697509765625,0.2263254076242447,0.9708168506622314,-0.35934120416641235
1789033781408622800,4.048622802734375,0.1957821547985077,0.7472403645515442,0.11224640160799026
1789033781418548200,4.05854833984375,-0.0021380267571657896,-0.5575668215751648,0.4494437575340271
1789033781428473900,4.068473876953125,0.13591741025447845,-0.7139481902122498,0.1256854236125946
1789033781438399200,4.078399169921875,0.47922343015670776,0.09972367435693741,-0.02458730712532997
1789033781448324600,4.08832470703125,0.5635227560997009,0.1302669197320938,0.06704241037368774
1789033781458250200,4.098250244140625,0.49510589241981506,-0.6406444311141968,0.46288278698921204
1789033781468175600,4.108175537109375,0.47433650493621826,-1.445764183998108,0.7805324792861938
1789033781478101000,4.11810107421875,0.47433650493621826,-2.017533540725708,0.8831577301025391
1789033781488026600,4.128026611328125,0.5109884142875671,-2.4707953929901123,0.8428406715393066
1789033781497952000,4.137951904296875,0.5891790986061096,-2.7566800117492676,0.6412553191184998
1789033781507877600,4.147877685546875,0.5977311730384827,-2.903287649154663,0.3248273432254791
1789033781517803000,4.157802978515625,0.6991347670555115,-2.8874051570892334,-0.16752967238426208
1789033781527728400,4.167728271484375,0.6258309483528137,-3.1671812534332275,-0.6855430006980896
1789033781537654000,4.177654052734375,0.41325002908706665,-3.6790857315063477,-1.187673807144165
1789033781547579400,4.187579345703125,-0.250149130821228,-4.109134674072266,-1.2573124170303345
1789033781557504800,4.1975048828125,-0.8830050230026245,-3.724289894104004,-1.1143701076507568
1789033781567430400,4.207430419921875,-0.9379828572273254,-2.3547310829162598,-1.0887137651443481
1789033781577355800,4.217355712890625,-0.5885682106018066,-1.9564471244812012,-0.9824233055114746
1789033781587281200,4.22728125,-0.16340632736682892,-2.4219260215759277,-0.7735075354576111
1789033781597206800,4.237206787109375,0.3069595396518707,-2.128710985183716,-0.7735075354576111
1789033781607132200,4.247132080078125,0.5671879649162292,-1.354134440422058,-1.041066288948059
1789033781617057800,4.257057861328125,0.5794052481651306,-1.0267109870910645,-1.2121084928512573
1789033781626983200,4.266983154296875,0.6441569328308105,-0.9411898851394653,-1.4564543962478638
1789033781636908500,4.276908447265625,0.8078686594963074,-0.7359393239021301,-1.6494876146316528
1789033781646834200,4.286834228515625,1.0082323551177979,-0.4195113778114319,-1.6995785236358643
1789033781656759600,4.296759521484375,1.3038908243179321,-0.009010255336761475,-1.62505304813385
1789033781666685000,4.306684814453125,1.5824452638626099,0.3428478538990021,-1.4136937856674194
1789033781676610600,4.316610595703125,1.8585560321807861,0.48823368549346924,-1.170569658279419
1789033781686536000,4.326535888671875,2.1468842029571533,0.6189587116241455,-1.014188289642334
1789033781696461300,4.33646142578125,2.1468842029571533,0.6189587116241455,-1.014188289642334
1789033781728860000,4.36885986328125,5.409512996673584,1.4118611812591553,-1.050840139389038
1789033781738785300,4.378785400390625,7.328239440917969,1.7203478813171387,-0.41187557578086853
1789033781748711000,4.3887109375,8.014240264892578,2.6091561317443848,0.2594648003578186
1789033781758636300,4.39863623046875,7.285478591918945,4.0110907554626465,0.09575305134057999
1789033781768561700,4.408561767578125,6.212800025939941,4.079507827758789,-0.26160284876823425
1789033781778487300,4.4184873046875,5.356978893280029,2.928027629852295,0.04810560122132301
1789033781788412700,4.42841259765625,3.059516191482544,0.8394809365272522,-0.25610506534576416
1789033781798338300,4.43833837890625,0.07605266571044922,-0.3975202441215515,-1.2597558498382568
1789033781808263700,4.448263671875,0.5928442478179932,-0.7023417949676514,-1.4961605072021484
1789033781818189000,4.45818896484375,1.433394193649292,-0.5636754631996155,-1.2683080434799194
1789033781828114200,4.4681142578125,1.6331470012664795,-0.0951421856880188,-0.7759509682655334
1789033781838039800,4.478039794921875,1.3674207925796509,0.1510363221168518,-0.2738201320171356
1789033781847965200,4.487965087890625,0.9251546859741211,0.3361283540725708,0.15439607203006744
1789033781857890600,4.497890625,0.2874118685722351,0.48823368549346924,0.383470356464386
1789033781867816000,4.50781591796875,-0.25870123505592346,0.7417425513267517,0.4653262495994568
1789033781877741600,4.517741455078125,-0.601396381855011,0.6763800382614136,0.5337430834770203
1789033781887667000,4.5276669921875,-0.9776890873908997,0.15836669504642487,0.4592176079750061
1789033781897592600,4.537592529296875,-1.6294817924499512,-1.292437195777893,-0.11804962158203125
1789033781907518000,4.54751806640625,-1.9538509845733643,-2.000429391860962,-0.6647735834121704
1789033781917443300,4.557443359375,-1.7614285945892334,-1.837328553199768,-0.9793689846992493
1789033781927369000,4.567368896484375,-1.369253396987915,-1.2887719869613647,-1.4796671867370605
1789033781937294300,4.57729443359375,-1.1126902103424072,-0.17577634751796722,-2.111912250518799
1789033781947219700,4.5872197265625,-0.8921679854393005,0.7411317229270935,-2.2640175819396973
1789033781957145300,4.597145263671875,-0.8329141139984131,1.089935541152954,-2.2731804847717285
1789033781967070700,4.60707080078125,-0.7889318466186523,1.346498727798462,-2.4240641593933105
1789033781976996000,4.61699609375,-0.8060360550880432,0.808937668800354,-2.307999849319458
1789033781986921700,4.626921630859375,-1.9477423429489136,0.9329432249069214,-1.1833977699279785
1789033781996847000,4.63684716796875,-1.311832070350647,0.8938478827476501,-0.30375251173973083
1789033782006772500,4.6467724609375,-0.39858928322792053,0.04474584385752678,0.08597921580076218
1789033782016698000,4.656697998046875,-0.29413139820098877,0.03802633285522461,0.11652245372533798
1789033782026623500,4.66662353515625,-0.3863719701766968,0.17974695563316345,0.002901607658714056
1789033782036548900,4.676548828125,-0.5928442478179932,0.35445427894592285,-0.2390008419752121
1789033782046474500,4.686474609375,-0.8487966060638428,0.6629409790039062,-0.4222602844238281
1789033782056400000,4.69639990234375,-1.0180062055587769,0.9622647166252136,-0.5749764442443848
1789033782066325200,4.7063251953125,-1.044884204864502,0.9518800377845764,-0.7521272301673889
1789033782076251000,4.7162509765625,-0.14019346237182617,0.47784897685050964,-0.755181610584259
1789033782086176300,4.72617626953125,0.5329795479774475,-0.18005239963531494,-0.5713112950325012
1789033782096101600,4.7361015625,1.118798851966858,-0.7029526233673096,-0.40088000893592834
1789033782106027300,4.74602734375,1.5690062046051025,-1.0920735597610474,-0.09666935354471207
1789033782115952600,4.75595263671875,1.5409064292907715,-1.1055124998092651,0.20509785413742065
1789033782125878000,4.7658779296875,1.7033964395523071,-0.9631810188293457,0.41218101978302
1789033782135803600,4.7758037109375,1.488982915878296,-0.9595158696174622,0.15012001991271973
1789033782145729000,4.78572900390625,1.2959495782852173,-0.772591233253479,0.06276635825634003
1789033782155654700,4.795654541015625,0.9923498630523682,-0.5374082922935486,0.012675444595515728
1789033782165580000,4.805580078125,0.9679152369499207,-0.28206682205200195,-0.0435241162776947
1789033782175505400,4.81550537109375,0.9502001404762268,-0.12324196845293045,-0.0386371985077858
1789033782185430800,4.8254306640625,0.8402445316314697,-0.09392046183347702,-0.0850629210472107
1789033782195356400,4.8353564453125,0.5054906010627747,0.12660172581672668,-0.14492766559123993
1789033782205281800,4.84528173828125,0.024740023538470268,0.5267181396484375,-0.24327689409255981
1789033782215207400,4.85520751953125,-0.21410810947418213,0.949436604976654,-0.2603811025619507
1789033782225132800,4.8651328125,-0.33689191937446594,1.0838267803192139,-0.29275694489479065
1789033782235058200,4.87505810546875,-0.35582873225212097,0.9225585460662842,-0.19868376851081848
1789033782244983800,4.88498388671875,-0.06872228533029556,0.8578068614006042,-0.2286161482334137
1789033782254909200,4.8949091796875,0.5696313977241516,1.327561855316162,-0.13209950923919678
1789033782264834600,4.90483447265625,0.39858928322792053,1.2585341930389404,0.3981311321258545
1789033782274760200,4.91476025390625,-0.18356487154960632,0.9140064120292664,0.4341721534729004
1789033782284685600,4.924685546875,-0.8988875150680542,0.34345871210098267,0.7927497625350952
1789033782294611000,4.93461083984375,-1.482263445854187,-0.268627792596817,0.3523162603378296
1789033782304536600,4.94453662109375,-1.4144574403762817,-1.3950624465942383,-0.10949750989675522
1789033782314462000,4.9544619140625,-2.333198070526123,-1.862373948097229,-2.06731915473938
1789033782324387300,4.96438720703125,-1.2611303329467773,1.1516327857971191,-2.0856449604034424
1789033782334313000,4.97431298828125,2.5891504287719727,3.8095054626464844,-0.7276926636695862
1789033782344238300,4.98423828125,1.9220860004425049,2.9573490619659424,-1.1241439580917358
1789033782354163700,4.994163818359375,-0.12492185086011887,2.1284055709838867,-0.8040507435798645
1789033782364089300,5.00408935546875,-0.34177884459495544,0.8761327862739563,-2.3623669147491455
1789033782374014700,5.0140146484375,0.6753110289573669,1.6830852031707764,-2.366642951965332
1789033782383940000,5.023940185546875,1.4395028352737427,-0.37858346104621887,-1.1198678016662598
1789033782393865700,5.03386572265625,1.9825615882873535,-2.0657920837402344,-0.994640588760376
1789033782403791000,5.043791015625,1.2354739904403687,-1.2930480241775513,-0.34345871210098267
1789033782413716500,5.053716552734375,0.6808087825775146,-0.967457115650177,-0.04535670951008797
1789033782423642000,5.06364208984375,0.1444695144891739,-0.6870701313018799,0.04016435891389847
1789033782433567500,5.0735673828125,-0.23915356397628784,-0.5264127254486084,-0.06246092543005943
1789033782443492900,5.083492919921875,-0.4761691093444824,-0.4653262495994568,-0.2237292230129242
1789033782453431800,5.093431884765625,-0.7211259007453918,-0.35537058115005493,-0.2237292230129242
1789033782463357200,5.103357177734375,-0.8872811198234558,0.1156061589717865,-0.08200860023498535
1789033782473269200,5.113269287109375,-0.7510582208633423,1.0306816101074219,0.291229784488678
1789033782483195000,5.12319482421875,-0.6362156867980957,1.820529818534851,0.5826122760772705
1789033782493120300,5.133120361328125,-0.27397283911705017,1.8400774002075195,0.5734493136405945
1789033782503045600,5.143045654296875,-0.0565049909055233,1.5725187063217163,0.5508472919464111
1789033782512971300,5.15297119140625,0.01740964688360691,0.6617192625999451,0.20998476445674896
1789033782522896600,5.162896728515625,0.10048725455999374,-0.01511890348047018,0.08170316368341446
1789033782532822000,5.172822021484375,0.032681263983249664,-0.22098033130168915,0.027947064489126205
1789033782542747600,5.18274755859375,-0.05283980444073677,-0.1464548259973526,-0.01359174121171236
1789033782552673000,5.192673095703125,-0.1029307171702385,-0.0847574844956398,-0.04474584385752678
1789033782562598400,5.202598388671875,-0.08643736690282822,-0.15500694513320923,-0.09605848789215088
1789033782572524000,5.21252392578125,-0.06444623321294785,-0.23258677124977112,-0.11621702462434769
1789033782582449400,5.222449462890625,-0.05894844979047775,-0.2808450758457184,-0.10644318908452988
1789033782592374800,5.232374755859375,-0.054672397673130035,-0.31932955980300903,-0.09300415962934494
1789033782602300400,5.242300537109375,-0.03634645417332649,-0.3675878942012787,-0.09972367435693741
1789033782612225800,5.252225830078125,-0.02412915788590908,-0.3938550651073456,-0.11743875592947006
1789033782622151400,5.2621513671875,-0.02779434807598591,-0.3987419903278351,-0.08078686892986298
1789033782632076800,5.272076904296875,-0.005803215317428112,-0.3938550651073456,-0.007483093533664942
1789033782642002200,5.282002197265625,0.011300998739898205,-0.4127918779850006,0.06643154472112656
1789033782651927600,5.291927490234375,-0.006414080038666725,-0.3370446562767029,0.046883873641490936
1789033782661853200,5.301853271484375,-0.05406153202056885,-0.41034841537475586,-0.07040216773748398
1789033782671778600,5.311778564453125,-0.10537417232990265,-0.44700029492378235,-0.08872810751199722
1789033782681704000,5.321703857421875,-0.11331541836261749,-0.3883572816848755,-0.04108065739274025
1789033782691629600,5.331629638671875,-0.0668896958231926,-0.33826637268066406,0.021227551624178886
1789033782701555000,5.341554931640625,-0.023518294095993042,-0.3675878942012787,0.056657709181308746
1789033782711480600,5.35148046875,-0.01740964688360691,-0.3572031855583191,0.04566214233636856
1789033782721406000,5.361406005859375,-0.01740964688360691,-0.3669770061969757,0.013286309316754341
1789033782731331300,5.371331298828125,-0.029626941308379173,-0.39141160249710083,-0.0032070400193333626
1789033782741257000,5.381257080078125,-0.029626941308379173,-0.3920224606990814,-0.0019853105768561363
1789033782751182300,5.391182373046875,-0.025961752980947495,-0.3816377818584442,0.016340631991624832
1789033782761107700,5.401107666015625,-0.03145953640341759,-0.41034841537475586,0.013897174037992954
1789033782771033300,5.411033447265625,-0.054672397673130035,-0.425009161233902,-0.011759147047996521
1789033782780958700,5.420958740234375,-0.09926552325487137,-0.4549415409564972,-0.04657844081521034
1789033782790884000,5.430884033203125,-0.1078176349401474,-0.4225656986236572,-0.05085449293255806
1789033782800809700,5.440809814453125,-0.0870482325553894,-0.42745262384414673,-0.030085090547800064
1789033782810735000,5.450735107421875,-0.06933315098285675,-0.46227192878723145,-0.0435241162776947
1789033782820660500,5.460660400390625,-0.07483093440532684,-0.46715885400772095,-0.08323032408952713
1789033782830586000,5.470586181640625,-0.09376774728298187,-0.43050694465637207,-0.10644318908452988
1789033782840511500,5.480511474609375,-0.12675444781780243,-0.36942046880722046,-0.1418733447790146
1789033782850436900,5.490436767578125,-0.16218459606170654,-0.29306238889694214,-0.17486004531383514
1789033782860362500,5.500362548828125,-0.16829325258731842,-0.2900080680847168,-0.19074252247810364
1789033782870288000,5.510287841796875,-0.18234314024448395,-0.3223838806152344,-0.1870773434638977
1789033782880213200,5.520213134765625,-0.18173226714134216,-0.36942046880722046,-0.17852523922920227
1789033782890139000,5.530138916015625,-0.17195843160152435,-0.3969093859195709,-0.1718057245016098
1789033782900064300,5.540064208984375,-0.1487455666065216,-0.39568766951560974,-0.19562944769859314
1789033782909989600,5.54998974609375,-0.12431098520755768,-0.39141160249710083,-0.1925751268863678
1789033782919915300,5.559915283203125,-0.09621120244264603,-0.43233954906463623,-0.1724165827035904
1789033782929840600,5.569840576171875,-0.0717766135931015,-0.4689914286136627,-0.1669187992811203
1789033782939766300,5.579766357421875,-0.048563748598098755,-0.4757109582424164,-0.17302745580673218
1789033782949691600,5.589691650390625,-0.03329212963581085,-0.44761115312576294,-0.1663079410791397
1789033782959617000,5.599616943359375,-0.013133592903614044,-0.4243983030319214,-0.12965604662895203
1789033782969542400,5.60954248046875,0.005192350596189499,-0.44089165329933167,-0.05818486958742142
1789033782979468000,5.619468017578125,0.023518294095993042,-0.5575668215751648,-0.029474224895238876
1789033782989393400,5.629393310546875,0.013133592903614044,-0.5838339924812317,-0.0386371985077858
1789033782999319000,5.639319091796875,-0.03145953640341759,-0.4610501825809479,-0.06368265300989151
1789033783009244400,5.649244384765625,-0.09437860548496246,-0.5105302333831787,-0.05513054504990578
1789033783019169800,5.659169677734375,-0.08399390429258347,-0.5007563829421997,-0.005039634648710489
1789033783029095400,5.669095458984375,-0.0565049909055233,-0.5722275972366333,0.06154462695121765
1789033783039020800,5.679020751953125,-0.060781046748161316,-0.6345357894897461,0.08292489498853683
1789033783048946200,5.6889462890625,-0.07422006875276566,-0.6406444311141968,0.06765327602624893
1789033783058871600,5.69887158203125,-0.09315688163042068,-0.5740602016448975,0.060933761298656464
1789033783068797200,5.708797119140625,-0.11453714966773987,-0.5288561582565308,0.1049160286784172
1789033783078722600,5.71872265625,-0.11759147047996521,-0.5416843295097351,0.17577634751796722
1789033783088648200,5.728648193359375,-0.12492185086011887,-0.5300779342651367,0.2228129357099533
1789033783098573600,5.738573486328125,-0.16218459606170654,-0.4805978536605835,0.23136503994464874
1789033783108499000,5.7484990234375,-0.2006690800189972,-0.39629852771759033,0.21059563755989075
1789033783118424600,5.758424560546875,-0.24831652641296387,-0.2533561587333679,0.18921536207199097
1789033783128350000,5.768349853515625,-0.2660316228866577,-0.2130390852689743,0.20204351842403412
1789033783138275300,5.778275390625,-0.26358816027641296,-0.27290382981300354,0.24052800238132477
1789033783148201000,5.788200927734375,-0.2458730787038803,-0.3052796721458435,0.25763222575187683
1789033783158126300,5.798126220703125,-0.23854269087314606,-0.2991710305213928,0.24663665890693665
1789033783168051700,5.8080517578125,-0.23243404924869537,-0.2393062710762024,0.1672242283821106
1789033783177977300,5.817977294921875,-0.2464839369058609,-0.08109229803085327,0.07620538026094437
1789033783187902700,5.82790283203125,-0.2831358313560486,0.0154243353754282,0.04260781779885292
1789033783197828000,5.837828125,-0.31001389026641846,-0.08597921580076218,0.12202023714780807
1789033783207753700,5.847753662109375,-0.37232208251953125,-0.2130390852689743,0.1776089370250702
1789033783217679000,5.85767919921875,-0.457843154668808,-0.32421648502349854,0.1879936307668686
1789033783227604500,5.8676044921875,-0.4920515716075897,-0.2655734717845917,0.15561780333518982
1789033783237530000,5.877530029296875,-0.47006043791770935,-0.2582430839538574,0.0792597085237503
1789033783247455500,5.88745556640625,-0.46456265449523926,-0.27656903862953186,0.017562363296747208
1789033783257381000,5.897381103515625,-0.48655378818511963,-0.2704603672027588,0.01511890348047018
1789033783267306500,5.907306396484375,-0.5030471682548523,-0.2643517255783081,0.06765327602624893
1789033783277231900,5.91723193359375,-0.5189296007156372,-0.2380845546722412,0.1360701322555542
1789033783287157500,5.927157470703125,-0.5006036758422852,-0.24602578580379486,0.17944152653217316
1789033783297083000,5.937082763671875,-0.46883872151374817,-0.32299473881721497,0.16050471365451813
1789033783307008300,5.94700830078125,-0.41935867071151733,-0.3724747896194458,0.14034618437290192
1789033783316934000,5.956933837890625,-0.3704894781112671,-0.38408124446868896,0.12140937149524689
1789033783326859300,5.966859375,-0.3075704276561737,-0.22525638341903687,0.14706569910049438
1789033783336784600,5.97678466796875,-0.21349723637104034,-0.03405570983886719,0.17394374310970306
1789033783346710300,5.986710205078125,-0.1444695144891739,0.1815795600414276,0.1715002804994583
1789033783356635600,5.9966357421875,-0.1646280586719513,0.3000873327255249,0.09636391699314117
1789033783366561000,6.00656103515625,-0.18906265497207642,0.06979130208492279,-0.03130681812763214
1789033783376486700,6.016486572265625,-0.23548837006092072,0.1156061589717865,-0.045967575162649155
1789033783386412000,6.026412109375,-0.2263254076242447,0.023976443335413933,0.018173227086663246
1789033783396337400,6.03633740234375,-0.07544180005788803,-0.20082180202007294,0.08842267841100693
1789033783406263000,6.046262939453125,0.06627883017063141,-0.5294670462608337,0.13912445306777954
1789033783416188400,6.0561884765625,0.07849612087011337,-0.7371610999107361,0.05849030241370201
1789033783426113800,6.06611376953125,-0.035735588520765305,-0.6626355648040771,-0.04718930274248123
1789033783436039400,6.076039306640625,-0.18173226714134216,-0.43172869086265564,-0.10461059212684631
1789033783445964800,6.08596484375,-0.31184646487236023,-0.24297146499156952,-0.13209950923919678
1789033783455890400,6.095890380859375,-0.38209593296051025,-0.1000291109085083,-0.14370593428611755
1789033783465815800,6.10581591796875,-0.4114174246788025,-0.01695149764418602,-0.09117157012224197
1789033783475741200,6.1157412109375,-0.3900371491909027,-0.064598947763443,-0.04169152304530144
1789033783485666800,6.125666748046875,-0.3448331654071808,-0.1562286615371704,-0.009315688163042068
1789033783495592200,6.13559228515625,-0.2837466895580292,-0.2735147178173065,0.040775224566459656
1789033783505517600,6.145517578125,-0.2837466895580292,-0.26129740476608276,0.08414662629365921
1789033783515443200,6.155443115234375,-0.33139413595199585,-0.24052800238132477,0.05849030241370201
1789033783525368600,6.16536865234375,-0.36804601550102234,-0.3309359848499298,0.02367101050913334
1789033783535294000,6.1752939453125,-0.3845393657684326,-0.44761115312576294,0.006566796451807022
1789033783545219600,6.185219482421875,-0.4413498044013977,-0.38469210267066956,0.007177661173045635
1789033783555145000,6.19514501953125,-0.5128209590911865,-0.28695371747016907,0.0487164668738842
1789033783565070300,6.2050703125,-0.4822777509689331,-0.11896591633558273,0.04566214233636856
1789033783574996000,6.214995849609375,-0.3588830530643463,0.18646647036075592,0.07131846249103546
1789033783584921300,6.22492138671875,-0.27947062253952026,0.3929387629032135,0.16355904936790466
1789033783594847000,6.234846923828125,-0.3814850449562073,0.2695440948009491,0.17516547441482544
1789033783604772400,6.2447724609375,-0.4572322964668274,0.0013744457392022014,0.11835505068302155
1789033783614697700,6.25469775390625,-0.4474584460258484,-0.08292489498853683,0.22036947309970856
1789033783624623400,6.264623291015625,-0.37293294072151184,-0.16478078067302704,0.4017963111400604
1789033783634548700,6.274548828125,-0.3020726442337036,-0.443945974111557,0.4451677203178406
1789033783644474000,6.28447412109375,-0.3039052188396454,-0.8122974634170532,0.3052796721458435
1789033783654399700,6.294399658203125,-0.3796524703502655,-0.8733839392662048,0.16783510148525238
1789033783664325000,6.3043251953125,-0.34788748621940613,-0.4134027361869812,0.1824958473443985
1789033783674250800,6.314250732421875,-0.22937972843647003,0.02153298258781433,0.31932955980300903
1789033783684176100,6.324176025390625,-0.1328630894422531,0.1406516134738922,0.4812087416648865
1789033783694101500,6.3341015625,-0.11575887352228165,-0.021838415414094925,0.58749920129776
1789033783704027100,6.344027099609375,-0.09560033679008484,-0.3413206934928894,0.5899426341056824
1789033783713952500,6.353952392578125,-0.06261363625526428,-0.5545125007629395,0.5337430834770203
1789033783723878000,6.3638779296875,0.0461202897131443,-0.41157013177871704,0.607046902179718
1789033783733803500,6.373803466796875,0.2153298407793045,-0.2032652497291565,0.7890845537185669
1789033783743729000,6.38372900390625,0.40775224566459656,-0.11163553595542908,0.966235339641571
1789033783753654300,6.393654296875,0.5506945848464966,-0.20082180202007294,0.9821178317070007
1789033783763580000,6.403579833984375,0.4981602132320404,-0.2643517255783081,0.8520036339759827
1789033783773505300,6.41350537109375,0.3430005609989166,-0.19165882468223572,0.7774781584739685
1789033783783431000,6.423430908203125,0.23304490745067596,0.17547090351581573,0.7988584041595459
1789033783793356300,6.433356201171875,0.28985533118247986,0.3019199073314667,0.9008728265762329
1789033783803281700,6.44328173828125,0.40225446224212646,-0.006566796451807022,0.9998329281806946
1789033783813207300,6.453207275390625,0.4621191918849945,-0.33948808908462524,1.034041404724121
1789033783823132700,6.463132568359375,0.5537489056587219,-0.15745039284229279,1.0932952165603638
1789033783833058000,6.47305810546875,0.6478220820426941,0.14370593428611755,1.114675521850586
1789033783842983700,6.482983642578125,0.6734784245491028,0.26221370697021484,1.0346522331237793
1789033783852909000,6.492908935546875,0.6093376278877258,0.3355174660682678,0.893542468547821
1789033783862834400,6.50283447265625,0.4260781705379486,0.37094762921333313,0.7328850030899048
1789033783872760000,6.512760009765625,0.1805105358362198,0.49189886450767517,0.5575668215751648
1789033783882685400,6.522685546875,-0.07238747924566269,0.6207913160324097,0.443945974111557
1789033783892611000,6.532611083984375,-0.25442516803741455,0.6354520916938782,0.4451677203178406
1789033783902536400,6.542536376953125,-0.29901832342147827,0.4595230221748352,0.45310893654823303
1789033783912461800,6.5524619140625,-0.34238970279693604,0.28298309445381165,0.453719824552536
1789033783922387500,6.562387451171875,-0.509155809879303,0.12782345712184906,0.40118545293807983
1789033783932312800,6.572312744140625,-0.7089085578918457,0.15042544901371002,0.18371757864952087
1789033783942238200,6.58223828125,-0.9062178730964661,0.1467602699995041,-0.15470150113105774
1789033783952163800,6.592163818359375,-1.0674861669540405,0.1418733447790146,-0.4173733592033386
1789033783962089200,6.602089111328125,-1.0943642854690552,0.08384118974208832,-0.541989803314209
1789033783972014600,6.6120146484375,-1.0228930711746216,-0.018173227086663246,-0.5542070865631104
1789033783981940200,6.621940185546875,-0.897665798664093,-0.12324196845293045,-0.4558578431606293
1789033783991865600,6.631865478515625,-0.8103121519088745,-0.1360701322555542,-0.3306305706501007
1789033784001791200,6.641791259765625,-0.8365793228149414,-0.01695149764418602,-0.295811265707016
1789033784011716600,6.651716552734375,-0.9202677607536316,0.14920371770858765,-0.33857181668281555
1789033784021642000,6.66164208984375,-0.9874629378318787,0.337350070476532,-0.40149086713790894
1789033784031567600,6.671567626953125,-0.9740238785743713,0.17424917221069336,-0.4741837978363037
1789033784041493000,6.681492919921875,-0.8940005898475647,-0.034666575491428375,-0.4705185890197754
1789033784051418400,6.69141845703125,-0.7999274134635925,-0.11652245372533798,-0.3966039717197418
1789033784061344000,6.701343994140625,-0.7663298845291138,-0.14340050518512726,-0.3361283540725708
1789033784071269400,6.711269287109375,-0.8738420605659485,0.008704823441803455,-0.32879796624183655
1789033784081194800,6.72119482421875,-1.0222822427749634,0.17852523922920227,-0.34834563732147217
1789033784091120400,6.731120361328125,-1.1976003646850586,0.23594652116298676,-0.40088000893592834
1789033784101045800,6.741045654296875,-1.334434151649475,0.19440771639347076,-0.45707955956459045
1789033784110971400,6.750971435546875,-1.398574948310852,0.06001746281981468,-0.48762279748916626
1789033784120896800,6.760896728515625,-1.4327833652496338,-0.017562363296747208,-0.49373146891593933
1789033784130822100,6.770822265625,-1.4669917821884155,-0.0591011680662632,-0.47845983505249023
1789033784140747800,6.780747802734375,-1.5079196691513062,-0.13545925915241241,-0.4845684766769409
1789033784150673200,6.790673095703125,-1.5891647338867188,-0.32360562682151794,-0.5438223481178284
1789033784160598800,6.800598876953125,-1.6801835298538208,-0.5233584046363831,-0.6360629796981812
1789033784170524200,6.810524169921875,-1.7553199529647827,-0.7188351154327393,-0.7612902522087097
1789033784180449500,6.820449462890625,-1.8078542947769165,-0.8764382600784302,-0.8797979950904846
1789033784190375200,6.830375244140625,-1.8353432416915894,-1.0120502710342407,-0.9604321718215942
1789033784200300500,6.840300537109375,-1.8188499212265015,-1.0548107624053955,-1.003192663192749
1789033784210226000,6.850225830078125,-1.7980804443359375,-0.9589049816131592,-0.9592103958129883
1789033784220151600,6.860151611328125,-1.740659236907959,-0.9124792814254761,-0.827874481678009
1789033784230077000,6.870076904296875,-1.6704097986221313,-0.8709404468536377,-0.7008146047592163
1789033784240002300,6.880002197265625,-1.665522813796997,-0.688902735710144,-0.652556300163269
1789033784249928000,6.889927978515625,-1.5885539054870605,-0.3718639314174652,-0.6397281289100647
1789033784259853300,6.899853271484375,-1.4541635513305664,-0.20998476445674896,-0.5945241451263428
1789033784269778700,6.90977880859375,-1.305112600326538,-0.1971566081047058,-0.5199986696243286
1789033784279704300,6.919704345703125,-1.237917423248291,-0.16478078067302704,-0.3782780170440674
1789033784289629700,6.929629638671875,-1.1462877988815308,-0.018173227086663246,-0.2237292230129242
1789033784299555300,6.939555419921875,-0.898276686668396,0.1003345400094986,-0.14859285950660706
1789033784309480700,6.949480712890625,-0.7803797721862793,0.1766926348209381,-0.13515383005142212
1789033784319406300,6.95940625,-0.674700140953064,0.1815795600414276,-0.10277800261974335
1789033784329331700,6.969331787109375,-0.509155809879303,0.2536616027355194,0.005345067009329796
1789033784339257000,6.979257080078125,-0.281914085149765,0.388051837682724,0.13484840095043182
1789033784349182700,6.9891826171875,-0.029626941308379173,0.4864010810852051,0.25579962134361267
1789033784359108000,6.999108154296875,0.19883649051189423,0.4967857897281647,0.3321577310562134
1789033784369033500,7.009033447265625,0.39736753702163696,0.3831649422645569,0.360868364572525
1789033784378959000,7.018958984375,0.5653553605079651,0.29886558651924133,0.3468184769153595
1789033784388884500,7.028884521484375,0.7168498039245605,0.3098611533641815,0.31261005997657776
1789033784398809900,7.038809814453125,0.859792172908783,0.39965829253196716,0.32910341024398804
1789033784408735500,7.048735595703125,1.0228930711746216,0.6036871075630188,0.4036289155483246
1789033784418660900,7.058660888671875,1.2024873495101929,0.7484620809555054,0.5080868005752563
1789033784428586200,7.068586181640625,1.3435970544815063,0.7521272301673889,0.5740602016448975
1789033784438511900,7.078511962890625,1.4230095148086548,0.6757691502571106,0.6015490889549255
1789033784448437200,7.088437255859375,1.4957023859024048,0.6268999576568604,0.6210967898368835
1789033784458363000,7.09836279296875,1.5842777490615845,0.6727148294448853,0.6088794469833374
1789033784468288300,7.108288330078125,1.6905683279037476,0.7893900275230408,0.6278162598609924
1789033784478213600,7.118213623046875,1.8102977275848389,0.8871283531188965,0.6913462281227112
1789033784488139300,7.12813916015625,1.8878775835037231,0.88285231590271,0.7524327039718628
1789033784498064600,7.138064697265625,1.8744385242462158,0.8064942359924316,0.8135191798210144
1789033784507990300,7.147990234375,1.8164063692092896,0.7319687008857727,0.8336777091026306
1789033784517915600,7.15791552734375,1.7626503705978394,0.6598866581916809,0.7866411209106445
1789033784527841000,7.167841064453125,1.7040072679519653,0.5896372199058533,0.7328850030899048
1789033784537766700,7.1777666015625,1.676518440246582,0.46685341000556946,0.7163916826248169
1789033784547692000,7.187692138671875,1.655748963356018,0.3361283540725708,0.7078395485877991
1789033784557617400,7.197617431640625,1.6606359481811523,0.212733656167984,0.7457131743431091
1789033784567543000,7.20754296875,1.644142508506775,0.19074252247810364,0.8110756874084473
1789033784577468400,7.217468505859375,1.6728532314300537,0.3098611533641815,0.9082031846046448
1789033784587393800,7.227393798828125,1.719889760017395,0.5450441241264343,0.9723440408706665
1789033784597319400,7.2373193359375,1.6887357234954834,0.5945241451263428,0.9802852272987366
1789033784607244800,7.247244873046875,1.5598431825637817,0.3935496211051941,0.9405790567398071
1789033784617170400,7.25717041015625,1.3997966051101685,0.16264274716377258,0.9344704151153564
1789033784627095800,7.267095703125,1.2947279214859009,0.15775582194328308,0.986393928527832
1789033784637021400,7.277021484375,1.2776236534118652,0.33001968264579773,1.0138828754425049
1789033784646946800,7.28694677734375,1.2843432426452637,0.4448622763156891,0.9601266980171204
1789033784656872200,7.2968720703125,1.2024873495101929,0.4955640435218811,0.846505880355835
1789033784666797800,7.3067978515625,1.0711513757705688,0.35811948776245117,0.7976366877555847
1789033784676723200,7.31672314453125,0.8909462690353394,0.06795870512723923,0.8629992008209229
1789033784686648600,7.326648681640625,0.6893609166145325,-0.20448698103427887,0.8397863507270813
1789033784696574200,7.33657421875,0.48472121357917786,-0.3584249019622803,0.7261655330657959
1789033784706499600,7.34649951171875,0.2770271897315979,-0.35353797674179077,0.6296488642692566
1789033784716425000,7.356425048828125,0.1230892539024353,-0.20082180202007294,0.5545125007629395
1789033784726350600,7.3663505859375,0.05406153202056885,-0.004734201822429895,0.504421591758728
1789033784736276000,7.37627587890625,-0.003970621153712273,0.06001746281981468,0.4641045033931732
1789033784746201300,7.386201416015625,-0.10537417232990265,-0.00045814859913662076,0.3675878942012787
1789033784756127000,7.396126953125,-0.28069236874580383,-0.08597921580076218,0.20570871233940125
1789033784766052400,7.40605224609375,-0.4511236250400543,-0.060322895646095276,-0.005650499369949102
1789033784775978000,7.41597802734375,-0.5867356061935425,0.10766492038965225,-0.17852523922920227
1789033784785903400,7.4259033203125,-0.7180715203285217,0.22067490220069885,-0.3379609286785126
1789033784795829000,7.4358291015625,-0.8671225309371948,0.10277800261974335,-0.503505289554596
1789033784805754400,7.44575439453125,-1.0454950332641602,0.1876882016658783,-0.643393337726593
1789033784815679700,7.4556796875,-1.2397500276565552,0.4289797842502594,-0.6317868828773499
1789033784825605400,7.46560546875,-1.331379771232605,0.708145022392273,-0.4949531853199005
1789033784835530800,7.47553076171875,-1.1768310070037842,0.8639155030250549,-0.29886558651924133
1789033784845456100,7.4854560546875,-0.8750637769699097,0.7722858190536499,-0.08872810751199722
1789033784855381800,7.4953818359375,-0.6447677612304688,0.40576693415641785,0.03649916872382164
1789033784865307100,7.50530712890625,-0.5531380772590637,0.028863361105322838,0.028557928279042244
1789033784875232500,7.515232421875,-0.5396990180015564,-0.2228129357099533,-0.09422589093446732
1789033784885158100,7.525158203125,-0.5506945848464966,-0.4072940945625305,-0.2646571695804596
1789033784895083500,7.53508349609375,-0.5861247777938843,-0.4708240330219269,-0.4130973219871521
1789033784905009000,7.5450087890625,-0.6191114783287048,-0.5031998753547668,-0.47296205163002014
1789033784914934500,7.5549345703125,-0.6215549111366272,-0.5471821427345276,-0.4894554018974304
1789033784924860000,7.56485986328125,-0.7260127663612366,-0.41584619879722595,-0.5053378939628601
1789033784934785500,7.57478564453125,-0.9587522745132446,-0.15928299725055695,-0.5022835731506348
1789033784944711000,7.5847109375,-1.173776626586914,0.20967933535575867,-0.4552469849586487
1789033784954636500,7.594636474609375,-1.2232567071914673,0.5609265565872192,-0.44180795550346375
1789033784964562000,7.60456201171875,-1.1322379112243652,0.5187768936157227,-0.5450441241264343
1789033784974487300,7.6144873046875,-1.1047489643096924,0.42042768001556396,-0.6018545031547546
1789033784984413000,7.624412841796875,-1.0888664722442627,0.12660172581672668,-0.6372846961021423
1789033784994338300,7.63433837890625,-1.0986403226852417,-0.3712530732154846,-0.7490729093551636
1789033785004263700,7.644263671875,-1.1041381359100342,-0.9204205274581909,-0.9140064120292664
1789033785014189300,7.654189208984375,-1.1157444715499878,-1.4188861846923828,-1.0276272296905518
1789033785024114700,7.66411474609375,-1.1438442468643188,-1.6644538640975952,-1.0728312730789185
1789033785034040000,7.6740400390625,-1.2562434673309326,-1.5123485326766968,-1.0777181386947632
1789033785043965700,7.683965576171875,-1.4553853273391724,-1.1556034088134766,-1.0532835721969604
1789033785053891000,7.69389111328125,-1.5500693321228027,-0.8177952170372009,-1.0648900270462036
1789033785063816700,7.703816650390625,-1.583056092262268,-0.6265945434570312,-1.0545053482055664
1789033785073742000,7.7137421875,-1.5781691074371338,-0.772591233253479,-1.0080796480178833
1789033785083667500,7.72366748046875,-1.5433498620986938,-1.1030690670013428,-0.9311106204986572
1789033785093593000,7.733593017578125,-1.498756766319275,-1.198974847793579,-0.7845031023025513
1789033785103518500,7.7435185546875,-1.404072642326355,-0.8996511101722717,-0.6079631447792053
1789033785113444000,7.753444091796875,-1.266017198562622,-0.38408124446868896,-0.46807512640953064
1789033785123369500,7.763369384765625,-1.1230748891830444,-0.04627300798892975,-0.38927358388900757
1789033785133294800,7.773294921875,-0.999069333076477,-0.07254019379615784,-0.3257436454296112
1789033785143220500,7.783220458984375,-0.82436203956604,-0.18493930995464325,-0.2542724609375
1789033785153145900,7.793145751953125,-0.6985238790512085,-0.1262962967157364,-0.1724165827035904
1789033785163071200,7.8030712890625,-0.674700140953064,-0.04199695214629173,-0.09911280870437622
1789033785172996900,7.812996826171875,-0.5836812853813171,0.04413498193025589,0.008399390615522861
1789033785182922200,7.822922119140625,-0.49510589241981506,0.07162389904260635,0.11957678198814392
1789033785192847600,7.83284765625,-0.22815799713134766,0.14004075527191162,0.19471314549446106
1789033785202773200,7.842773193359375,-0.004581485874950886,0.12354740500450134,0.26251915097236633
1789033785212698600,7.85269873046875,0.20127993822097778,0.15470150113105774,0.2698495090007782
1789033785222624300,7.862624267578125,0.4114174246788025,0.264046311378479,0.2997818887233734
1789033785232549600,7.872549560546875,0.6154462695121765,0.34895649552345276,0.33887723088264465
1789033785242475000,7.88247509765625,0.795651376247406,0.3923279047012329,0.3559814393520355
1789033785252400600,7.892400634765625,0.9556979537010193,0.45158177614212036,0.3633118271827698
1789033785262326000,7.902325927734375,1.1071923971176147,0.5212203860282898,0.425009161233902
1789033785272251400,7.91225146484375,1.237917423248291,0.6159043908119202,0.49770209193229675
1789033785282177000,7.922177001953125,1.3490948677062988,0.6739365458488464,0.5673406720161438
1789033785292102400,7.932102294921875,1.4205660820007324,0.6812669634819031,0.5905535221099854
1789033785302028000,7.942028076171875,1.507308840751648,0.6140718460083008,0.6210967898368835
1789033785311953400,7.951953369140625,1.5653409957885742,0.6256782412528992,0.616209864616394
1789033785321878800,7.961878662109375,1.5940515995025635,0.6543889045715332,0.5984947681427002
1789033785331804400,7.971804443359375,1.599549412727356,0.7032580971717834,0.5899426341056824
1789033785341729800,7.981729736328125,1.6490294933319092,0.7924443483352661,0.6168206930160522
1789033785351655200,7.9916552734375,1.728441834449768,0.8804088830947876,0.651639997959137
1789033785361580800,8.001580810546875,1.7931935787200928,0.8510873317718506,0.6479747891426086
1789033785371506200,8.011506103515625,1.8017456531524658,0.6782126426696777,0.5905535221099854
1789033785381431600,8.021431640625,1.7638720273971558,0.42959064245224,0.5221366882324219
1789033785391357200,8.031357177734375,1.7290527820587158,0.20357069373130798,0.4903717041015625
1789033785401282600,8.041282470703125,1.7162245512008667,0.11804962158203125,0.46654796600341797
1789033785411208200,8.051208251953126,1.73088538646698,0.191964253783226,0.494647741317749
1789033785421133600,8.061133544921875,1.7632611989974976,0.3355174660682678,0.5007563829421997
1789033785431059000,8.071058837890625,1.7602068185806274,0.4992292523384094,0.5129737257957458
1789033785440984600,8.080984619140626,1.7174463272094727,0.541989803314209,0.5111411213874817
1789033785450910000,8.090909912109375,1.628870964050293,0.5254964232444763,0.494647741317749
1789033785460835300,8.10083544921875,1.542128086090088,0.4405862092971802,0.48365217447280884
1789033785470761000,8.110760986328126,1.4663809537887573,0.3770562708377838,0.48304131627082825
1789033785480686300,8.120686279296875,1.3729186058044434,0.33490660786628723,0.45249807834625244
1789033785490612000,8.130612060546875,1.2825106382369995,0.31230461597442627,0.4433351159095764
1789033785500537300,8.140537353515626,1.242193579673767,0.3733910918235779,0.44150251150131226
1789033785510462700,8.150462646484375,1.1346813440322876,0.3165806829929352,0.3675878942012787
1789033785520388400,8.160388427734375,0.9874629378318787,0.12660172581672668,0.31322091817855835
1789033785530313700,8.170313720703126,0.8158099055290222,-0.04810560122132301,0.28695371747016907
1789033785540239000,8.180239013671875,0.674700140953064,-0.1513417512178421,0.27168211340904236
1789033785550164700,8.190164794921875,0.5598575472831726,-0.18493930995464325,0.2741255760192871
1789033785560090000,8.200090087890626,0.43463030457496643,-0.2179260104894638,0.26129740476608276
1789033785570015700,8.210015625,0.3020726442337036,-0.28206682205200195,0.2087630331516266
1789033785579941000,8.219941162109375,0.15729768574237823,-0.37003132700920105,0.13912445306777954
1789033785589866500,8.229866455078126,0.01740964688360691,-0.45616328716278076,0.051159925758838654
1789033785599792000,8.239792236328125,-0.1029307171702385,-0.5563451051712036,-0.052687086164951324
1789033785609717500,8.249717529296875,-0.2214384824037552,-0.6265945434570312,-0.15347976982593536
1789033785619643000,8.259642822265626,-0.32589635252952576,-0.5636754631996155,-0.22739441692829132
1789033785629568500,8.269568603515625,-0.42913252115249634,-0.4500546157360077,-0.25732678174972534
1789033785639494000,8.279493896484375,-0.5506945848464966,-0.4091266989707947,-0.27748534083366394
1789033785649419300,8.289419189453126,-0.6563742160797119,-0.3474293351173401,-0.30741769075393677
1789033785659345000,8.299344970703125,-0.7302888631820679,-0.18066325783729553,-0.32268932461738586
1789033785669270300,8.309270263671875,-0.7877101302146912,-0.025503603741526604,-0.3251327872276306
1789033785679196000,8.31919580078125,-0.8359684348106384,0.04169152304530144,-0.34468045830726624
1789033785689121000,8.32912109375,-0.8487966060638428,0.08017600327730179,-0.37400195002555847
1789033785736127000,8.376126953125,-0.7791580557823181,-0.12018764764070511,-0.28237223625183105
1789033785746052400,8.38605224609375,-0.7730493545532227,-0.28756460547447205,-0.32391104102134705
1789033785755978000,8.39597802734375,-0.8035926222801208,-0.40973755717277527,-0.34345871210098267
1789033785765903400,8.4059033203125,-0.8585704565048218,-0.4231765866279602,-0.3520108163356781
1789033785775828700,8.415828857421875,-0.9330959320068359,-0.41462448239326477,-0.35323256254196167
1789033785785754400,8.42575439453125,-1.0259474515914917,-0.39141160249710083,-0.40088000893592834
1789033785795679700,8.4356796875,-1.135903000831604,-0.2948949635028839,-0.4839576184749603
1789033785805605400,8.44560546875,-1.222645878791809,-0.145843967795372,-0.49373146891593933
1789033785815530800,8.45553076171875,-1.3191624879837036,0.022754713892936707,-0.4143190383911133
1789033785825456000,8.4654560546875,-1.3765838146209717,0.05818486958742142,-0.3923279047012329
1789033785835381800,8.4753818359375,-1.4010183811187744,-0.07009673118591309,-0.490066260099411
1789033785845307100,8.48530712890625,-1.4413354396820068,-0.34498587250709534,-0.6659952998161316
1789033785855232500,8.495232421875,-1.4902045726776123,-0.6553052067756653,-0.7967203855514526
1789033785865158100,8.505158203125,-1.5280781984329224,-0.8019127249717712,-0.828485369682312
1789033785875083500,8.51508349609375,-1.562286615371704,-0.7945823669433594,-0.8345940113067627
1789033785885009000,8.5250087890625,-1.6172645092010498,-0.7408262491226196,-0.8602503538131714
1789033785894934500,8.5349345703125,-1.6771292686462402,-0.754265308380127,-0.8834632039070129
1789033785904860000,8.54485986328125,-1.6649119853973389,-0.8263473510742188,-0.8810197114944458
1789033785914785500,8.55478564453125,-1.6392556428909302,-0.8703296184539795,-0.8321505188941956
1789033785924711000,8.5647109375,-1.6380338668823242,-0.8104648590087891,-0.771064043045044
1789033785934636300,8.57463623046875,-1.6307035684585571,-0.6430879235267639,-0.7319687008857727
1789033785944562000,8.58456201171875,-1.5903865098953247,-0.5539016127586365,-0.6769908666610718
1789033785954487300,8.5944873046875,-1.5231913328170776,-0.5221366882324219,-0.6268999576568604
1789033785964412700,8.60441259765625,-1.4706569910049438,-0.43050694465637207,-0.5865828990936279
1789033785974338300,8.61433837890625,-1.350927472114563,-0.3633118271827698,-0.4558578431606293
1789033785984263700,8.624263671875,-1.2006547451019287,-0.3046688139438629,-0.2383899837732315
1789033785994189000,8.63418896484375,-1.0601558685302734,-0.16416990756988525,-0.10155627131462097
1789033786004114700,8.64411474609375,-0.9587522745132446,0.022754713892936707,-0.11499529331922531
1789033786014040000,8.6540400390625,-0.8585704565048218,0.07162389904260635,-0.13698641955852509
1789033786023965700,8.663965576171876,-0.7706059217453003,-0.06643154472112656,-0.042913250625133514
1789033786033891000,8.67389111328125,-0.6569850444793701,-0.09208786487579346,0.08292489498853683
1789033786043816400,8.68381640625,-0.5225948095321655,0.0032070400193333626,0.18677189946174622
1789033786053742000,8.6937421875,-0.35277441143989563,0.09972367435693741,0.2857320010662079
1789033786063667500,8.70366748046875,-0.1340848207473755,0.18280129134655,0.35048365592956543
1789033786073592800,8.7135927734375,0.10170898586511612,0.22678354382514954,0.3724747896194458
1789033786083518500,8.7235185546875,0.3069595396518707,0.2658788859844208,0.3675878942012787
1789033786093443800,8.73344384765625,0.48044514656066895,0.3000873327255249,0.36392268538475037
1789033786103369200,8.743369140625,0.6331613659858704,0.2842048406600952,0.4017963111400604
1789033786113294800,8.753294921875,0.7834340929985046,0.3306305706501007,0.4653262495994568
1789033786123220200,8.76322021484375,0.9471458196640015,0.4503600597381592,0.5215258002281189
1789033786133145900,8.773145751953125,1.1230748891830444,0.595745861530304,0.5618428587913513
1789033786143071200,8.7830712890625,1.305112600326538,0.6714931130409241,0.6009382009506226
1789033786152996600,8.79299658203125,1.45294189453125,0.7032580971717834,0.6327031850814819
1789033786162922200,8.802922119140625,1.5787800550460815,0.6837103962898254,0.6766854524612427
1789033786172847600,8.81284765625,1.6581923961639404,0.6898190379142761,0.6827940940856934
1789033786182773000,8.82277294921875,1.7070616483688354,0.7057015299797058,0.6595812439918518
1789033786192698600,8.83269873046875,1.7156137228012085,0.6714931130409241,0.6314814686775208
1789033786202624000,8.8426240234375,1.7168354988098145,0.6140718460083008,0.6021599769592285
1789033786212549400,8.85254931640625,1.7376048564910889,0.540768027305603,0.5826122760772705
1789033786222475000,8.86247509765625,1.7705916166305542,0.4845684766769409,0.5606211423873901
1789033786232400400,8.872400390625,1.7876957654953003,0.3966039717197418,0.539851725101471
1789033786242326000,8.882325927734374,1.7803653478622437,0.3013090491294861,0.5227475166320801
1789033786252251400,8.89225146484375,1.785252332687378,0.2952004075050354,0.5288561582565308
1789033786262176800,8.9021767578125,1.8109086751937866,0.37094762921333313,0.5630646347999573
1789033786272102400,8.912102294921874,1.842673659324646,0.4234820008277893,0.6241511106491089
1789033786282027800,8.92202783203125,1.8341214656829834,0.3611738085746765,0.6864593029022217
1789033786291953200,8.931953125,1.7767002582550049,0.19501857459545135,0.7035635113716125
1789033786301878800,8.941878662109374,1.7095050811767578,0.1766926348209381,0.6974548697471619
1789033786311804200,8.95180419921875,1.6740748882293701,0.3770562708377838,0.6962331533432007
1789033786321729500,8.9617294921875,1.6410882472991943,0.615293562412262,0.6998983025550842
1789033786331655000,8.971655029296874,1.5738930702209473,0.6922625303268433,0.6998983025550842
1789033786341580500,8.98158056640625,1.4749330282211304,0.5664243698120117,0.6998983025550842
1789033786351506000,8.991505859375,1.3026691675186157,0.3513999581336975,0.7145590782165527
1789033786361431300,9.001431396484374,1.1291835308074951,0.16447533667087555,0.7451022863388062
1789033786371356700,9.011356689453125,0.9911280870437622,0.05451968312263489,0.7512109875679016
1789033786381282000,9.021281982421876,0.8298597931861877,0.0007635809597559273,0.7695369124412537
1789033786391207400,9.03120751953125,0.693026065826416,-0.018784092739224434,0.8306233882904053
1789033786401132800,9.0411328125,0.5574141144752502,-0.060322895646095276,0.8403972387313843
1789033786411058400,9.051058349609375,0.41935867071151733,-0.15439607203006744,0.7670934200286865
1789033786420983800,9.06098388671875,0.2971857190132141,-0.25579962134361267,0.6742420196533203
1789033786430909200,9.0709091796875,0.1750127524137497,-0.3462076187133789,0.6033816933631897
1789033786440834800,9.080834716796875,0.04062250629067421,-0.4744892120361328,0.5190823674201965
1789033786450760200,9.09076025390625,-0.10231985151767731,-0.6052142977714539,0.4176788032054901
1789033786460685600,9.100685546875,-0.20861032605171204,-0.6772963404655457,0.3052796721458435
1789033786470611200,9.110611083984375,-0.291687935590744,-0.6235402226448059,0.22220206260681152
1789033786480536600,9.12053662109375,-0.34055712819099426,-0.48914995789527893,0.16600249707698822
1789033786490462200,9.130462158203125,-0.3588830530643463,-0.26190826296806335,0.15745039284229279
1789033786500387600,9.1403876953125,-0.3857611119747162,-0.04932733252644539,0.1769980639219284
1789033786510313000,9.15031298828125,-0.4358520209789276,0.0642935186624527,0.16355904936790466
1789033786520238600,9.160238525390625,-0.499381959438324,0.13515383005142212,0.10369429737329483
1789033786530164000,9.1701640625,-0.600785493850708,0.2133445292711258,0.051159925758838654
1789033786540089300,9.18008935546875,-0.7241802215576172,0.19624030590057373,-0.036804601550102234
1789033786550015000,9.190014892578125,-0.7901535630226135,0.10461059212684631,-0.16264274716377258
1789033786559940400,9.1999404296875,-0.7938187718391418,0.09972367435693741,-0.212733656167984
1789033786569865700,9.20986572265625,-0.8280271887779236,0.12782345712184906,-0.191964253783226
1789033786579791400,9.219791259765625,-0.8940005898475647,0.1571449637413025,-0.1663079410791397
1789033786589716700,9.229716796875,-0.9318742156028748,0.19013166427612305,-0.15531237423419952
1789033786599642400,9.239642333984374,-0.9233221411705017,0.19868376851081848,-0.11866047978401184
1789033786609567700,9.249567626953125,-0.8671225309371948,0.13515383005142212,-0.05146535858511925
1789033786619493000,9.2594931640625,-0.8304706811904907,0.020311253145337105,-0.008704823441803455
1789033786629418800,9.269418701171874,-0.8585704565048218,-0.06643154472112656,-0.06001746281981468
1789033786639344000,9.27934423828125,-0.907439649105072,-0.06643154472112656,-0.24816381931304932
1789033786649269500,9.28926953125,-0.9538653492927551,-0.031001387163996696,-0.48762279748916626
1789033786659195100,9.299195068359374,-0.9954041838645935,0.04230238497257233,-0.6061305999755859
1789033786669120500,9.30912060546875,-1.0699297189712524,0.13881902396678925,-0.5853611826896667
1789033786679046000,9.3190458984375,-1.184772253036499,0.22434009611606598,-0.5377137064933777
1789033786688971500,9.328971435546874,-1.3252711296081543,0.25243985652923584,-0.5279398560523987
1789033786698897000,9.33889697265625,-1.4132356643676758,0.17058399319648743,-0.5963567495346069
1789033786708822500,9.348822509765625,-1.4474440813064575,0.020311253145337105,-0.6989820003509521
1789033786718748000,9.358747802734374,-1.4523310661315918,-0.12140937149524689,-0.7673988938331604
1789033786728673300,9.36867333984375,-1.4547744989395142,-0.31322091817855835,-0.8040507435798645
1789033786738599000,9.378598876953125,-1.4669917821884155,-0.5233584046363831,-0.818711519241333
1789033786748524300,9.388524169921874,-1.5195261240005493,-0.6235402226448059,-0.8113811612129211
1789033786758449700,9.39844970703125,-1.5964951515197754,-0.5991056561470032,-0.8150463104248047
1789033786768375300,9.408375244140625,-1.634368658065796,-0.6259836554527283,-0.8101593852043152
1789033786778300700,9.41830078125,-1.6612467765808105,-0.7090612649917603,-0.799163818359375
1789033786788226000,9.42822607421875,-1.701563835144043,-0.6968439817428589,-0.7783944606781006
1789033786798151700,9.438151611328125,-1.6954551935195923,-0.586888313293457,-0.70753413438797
1789033786808077000,9.4480771484375,-1.6319252252578735,-0.5453495383262634,-0.6036871075630188
1789033786818002700,9.458002685546875,-1.5610649585723877,-0.5954404473304749,-0.5426006317138672
1789033786827928000,9.467927978515625,-1.5036436319351196,-0.6736311316490173,-0.5108356475830078
1789033786837853400,9.477853515625,-1.4474440813064575,-0.7567087411880493,-0.44730573892593384
1789033786847779000,9.487779052734375,-1.4107922315597534,-0.7628173828125,-0.35811948776245117
1789033786857704400,9.497704345703125,-1.2299761772155762,-0.5978838801383972,-0.2652680277824402
1789033786867629800,9.5076298828125,-1.0503820180892944,-0.402407169342041,-0.15897755324840546
1789033786877555500,9.517555419921875,-0.8805615901947021,-0.20937390625476837,-0.07101303339004517
1789033786887480800,9.527480712890625,-0.7180715203285217,-0.006566796451807022,-0.03558287397027016
1789033786897406200,9.53740625,-0.572685718536377,0.15592323243618011,0.002290742937475443
1789033786907331800,9.547331787109375,-0.4211912751197815,0.26710063219070435,0.10247256606817245
1789033786917257200,9.55725732421875,-0.25503605604171753,0.3513999581336975,0.19898919761180878
1789033786927182600,9.5671826171875,-0.08277218043804169,0.4283689260482788,0.24174973368644714
1789033786937108200,9.577108154296875,0.1127045527100563,0.5261073112487793,0.26740604639053345
1789033786947033600,9.58703369140625,0.3399462401866913,0.625067412853241,0.3052796721458435
1789033786956959200,9.596959228515624,0.5574141144752502,0.6800451874732971,0.3223838806152344
1789033786966884600,9.606884521484375,0.7406735420227051,0.6568323373794556,0.32360562682151794
1789033786976810000,9.61681005859375,0.878728985786438,0.6104066371917725,0.3113883137702942
1789033786986735600,9.626735595703124,0.9911280870437622,0.5981893539428711,0.2955058515071869
1789033786996661000,9.636660888671875,1.1084141731262207,0.623845636844635,0.30283620953559875
1789033787006586400,9.64658642578125,1.2428044080734253,0.6495019793510437,0.33460119366645813
1789033787016512000,9.656511962890624,1.3784164190292358,0.6751583218574524,0.3761399984359741
1789033787026437400,9.666437255859375,1.4883720874786377,0.6873756051063538,0.4030180275440216
1789033787036362800,9.67636279296875,1.5751148462295532,0.6409498453140259,0.4079049527645111
1789033787046288400,9.686288330078124,1.628870964050293,0.595745861530304,0.37491825222969055
1789033787056213800,9.6962138671875,1.6533055305480957,0.5468766689300537,0.3162752389907837
1789033787066139400,9.706139404296875,1.656970739364624,0.47723811864852905,0.268627792596817
1789033787076064800,9.716064697265624,1.6691880226135254,0.35506516695022583,0.27717989683151245
1789033787085990100,9.725990234375,1.6972877979278564,0.2683223485946655,0.3455967605113983
1789033787095915800,9.735915771484375,1.7339396476745605,0.30375251173973083,0.3981311321258545
1789033787105841200,9.745841064453124,1.7803653478622437,0.4137081801891327,0.3822486400604248
1789033787115766500,9.7557666015625,1.793804407119751,0.48334676027297974,0.3211621642112732
1789033787125692200,9.765692138671875,1.8011348247528076,0.43569931387901306,0.29306238889694214
1789033787135617500,9.775617431640624,1.8072434663772583,0.3929387629032135,0.3309359848499298
1789033787145543000,9.78554296875,1.8573343753814697,0.449138343334198,0.4298960864543915
1789033787155468500,9.795468505859375,1.9587379693984985,0.6360629796981812,0.5203040838241577
1789033787165394000,9.805393798828124,1.9843941926956177,0.6495019793510437,0.4995346665382385
1789033787175319600,9.815319580078125,1.8817689418792725,0.35384342074394226,0.4127918779850006
1789033787185245000,9.825244873046875,1.7632611989974976,0.22189663350582123,0.3871355652809143
1789033787195170300,9.83517041015625,1.7290527820587158,0.3513999581336975,0.39080074429512024
1789033787205096000,9.845095947265625,1.7107268571853638,0.48334676027297974,0.37369653582572937
1789033787215021300,9.855021240234375,1.6777400970458984,0.4283689260482788,0.3627009689807892
1789033787224946700,9.86494677734375,1.5176935195922852,0.19379685819149017,0.31871870160102844
1789033787234872300,9.874872314453125,1.2892301082611084,0.09728021919727325,0.34193155169487
1789033787244797700,9.884797607421875,1.14017915725708,0.12660172581672668,0.3969093859195709
1789033787254723000,9.89472314453125,1.0607666969299316,0.1571449637413025,0.39446592330932617
1789033787264648700,9.904648681640625,0.9654718041419983,0.14248420298099518,0.39446592330932617
1789033787274574000,9.914573974609375,0.8298597931861877,0.07651081681251526,0.4030180275440216
1789033787284499700,9.924499755859374,0.7064651250839233,0.0032070400193333626,0.38591381907463074
1789033787294425000,9.934425048828125,0.5940660238265991,-0.0639880821108818,0.35537058115005493
1789033787304350500,9.9443505859375,0.4682278633117676,-0.14950916171073914,0.31383177638053894
1789033787314276000,9.954276123046874,0.32039856910705566,-0.25702136754989624,0.24663665890693665
1789033787324201500,9.964201416015625,0.16035200655460358,-0.38041603565216064,0.16600249707698822
1789033787334126800,9.974126953125,-0.00946840364485979,-0.4634936451911926,0.07803797721862793
1789033787344052500,9.984052490234374,-0.15241076052188873,-0.48792824149131775,-0.007483093533664942
1789033787353977900,9.993977783203125,-0.2525925934314728,-0.4903717041015625,-0.08811724185943604
1789033787363903200,10.0039033203125,-0.34055712819099426,-0.4964803457260132,-0.1614210158586502
1789033787373828900,10.013828857421874,-0.4468475878238678,-0.44150251150131226,-0.212733656167984
1789033787383754200,10.023754150390625,-0.5812378525733948,-0.35353797674179077,-0.24327689409255981
1789033787393680000,10.033679931640625,-0.7095194458961487,-0.21670427918434143,-0.27626359462738037
1789033787403605200,10.043605224609376,-0.78648841381073,-0.04566214233636856,-0.3068068325519562
1789033787413530600,10.053530517578125,-0.82436203956604,0.14248420298099518,-0.2945895493030548
1789033787423456300,10.063456298828125,-0.8646790981292725,0.3367392122745514,-0.23961171507835388
1789033787433381600,10.073381591796876,-0.9123265743255615,0.3929387629032135,-0.2078467458486557
1789033787443307000,10.08330712890625,-0.9416480660438538,0.31841325759887695,-0.23594652116298676
1789033787453232600,10.093232666015625,-0.9379828572273254,0.2536616027355194,-0.2811505198478699
1789033787463158000,10.103157958984376,-0.8940005898475647,0.21945317089557648,-0.2994764447212219
1789033787473083400,10.11308349609375,-0.8341358304023743,0.08750637620687485,-0.29825472831726074
1789033787483009000,10.123009033203125,-0.8158099055290222,-0.0847574844956398,-0.3104720115661621
1789033787492934400,10.132934326171876,-0.8622356653213501,-0.1568395346403122,-0.34345871210098267
1789033787502860000,10.142860107421875,-0.9355394244194031,-0.1568395346403122,-0.33857181668281555
1789033787512785400,10.152785400390625,-0.9966259002685547,-0.16539163887500763,-0.3068068325519562
1789033787522710800,10.162710693359376,-1.0406081676483154,-0.13729186356067657,-0.3019199073314667
1789033787532636400,10.172636474609375,-1.0735948085784912,-0.03955349326133728,-0.3043633699417114
1789033787542561800,10.182561767578125,-1.13712477684021,0.023976443335413933,-0.3666715919971466
1789033787552487200,10.192487060546876,-1.2067633867263794,-0.06520981341600418,-0.49861836433410645
1789033787562412800,10.202412841796875,-1.3057234287261963,-0.23625195026397705,-0.6024653911590576
1789033787572338200,10.212338134765625,-1.4511092901229858,-0.35353797674179077,-0.6183478832244873
1789033787582263600,10.222263671875,-1.564730167388916,-0.33765551447868347,-0.6183478832244873
1789033787592189200,10.232189208984375,-1.6111558675765991,-0.09819651395082474,-0.6501128673553467
1789033787602114600,10.242114501953125,-1.6038254499435425,0.21700970828533173,-0.6586649417877197
1789033787612040000,10.2520400390625,-1.5696170330047607,0.2646571695804596,-0.6647735834121704
1789033787621965600,10.261965576171875,-1.554956316947937,-0.0383317656815052,-0.7087558507919312
1789033787631891000,10.271890869140625,-1.5854995250701904,-0.44638943672180176,-0.7698423266410828
1789033787641816600,10.281816650390626,-1.6319252252578735,-0.7933606505393982,-0.8407026529312134
1789033787651742000,10.291741943359375,-1.6844596862792969,-0.9216422438621521,-0.9127846956253052
1789033787661667300,10.301667236328125,-1.7321070432662964,-0.7701478004455566,-0.9408844709396362
1789033787671593000,10.311593017578126,-1.728441834449768,-0.5160280466079712,-0.8834632039070129
1789033787681518300,10.321518310546875,-1.682016134262085,-0.3315468728542328,-0.7869465351104736
1789033787691443700,10.331443603515625,-1.602603793144226,-0.29367324709892273,-0.6733257174491882
1789033787701369300,10.341369384765626,-1.4816524982452393,-0.40118545293807983,-0.5878046154975891
1789033787711294700,10.351294677734375,-1.352149248123169,-0.4390590488910675,-0.5535961985588074
1789033787721220000,10.36122021484375,-1.222645878791809,-0.35964664816856384,-0.49250972270965576
1789033787731145700,10.371145751953126,-1.0833686590194702,-0.25702136754989624,-0.3666715919971466
1789033787741071000,10.381071044921875,-0.9453132748603821,-0.23503021895885468,-0.2078467458486557
1789033787750996700,10.390996826171875,-0.8072578310966492,-0.24236060678958893,-0.10888664424419403
1789033787760922000,10.400922119140626,-0.6704241037368774,-0.22036947309970856,-0.10888664424419403
1789033787770847500,10.410847412109375,-0.5665770769119263,-0.2130390852689743,-0.11866047978401184
1789033787780773000,10.420773193359375,-0.47372564673423767,-0.1311832070350647,-0.030695954337716103
1789033787790698500,10.430698486328126,-0.3185659945011139,0.061850059777498245,0.07681624591350555
1789033787800623900,10.440623779296875,-0.14019346237182617,0.2536616027355194,0.19165882468223572
1789033787810549500,10.450549560546875,0.06750056147575378,0.4027126133441925,0.3162752389907837
1789033787820475000,10.460474853515626,0.26542073488235474,0.49800750613212585,0.39080074429512024
1789033787830400300,10.470400146484375,0.43279770016670227,0.4430296719074249,0.3712530732154846
1789033787840326000,10.480325927734375,0.5647444725036621,0.30375251173973083,0.30283620953559875
1789033787850251300,10.490251220703126,0.6979129910469055,0.2023489624261856,0.24785839021205902
1789033787860177000,10.500177001953125,0.8542944192886353,0.17547090351581573,0.2503018379211426
1789033787870102300,10.510102294921875,1.0045671463012695,0.2292270064353943,0.29672756791114807
1789033787880027600,10.520027587890626,1.1426225900650024,0.3685041666030884,0.36392268538475037
1789033787889953300,10.529953369140625,1.277012825012207,0.5285507440567017,0.425009161233902
1789033787899878700,10.539878662109375,1.3930771350860596,0.6861538887023926,0.45799586176872253
1789033787909804000,10.549803955078126,1.5079196691513062,0.7594576478004456,0.46166107058525085
1789033787919729700,10.559729736328125,1.6056580543518066,0.7472403645515442,0.43722647428512573
1789033787929655000,10.569655029296875,1.6704097986221313,0.625067412853241,0.4286743700504303
1789033787939580400,10.579580322265626,1.7021746635437012,0.5077813267707825,0.43233954906463623
1789033787949505800,10.589505859375,1.6972877979278564,0.397825688123703,0.4335612654685974
1789033787959431200,10.59943115234375,1.704618215560913,0.3477347791194916,0.46166107058525085
1789033787969356800,10.609356689453126,1.7351614236831665,0.4650208055973053,0.4702131748199463
1789033787979282200,10.6192822265625,1.7644829750061035,0.6116283535957336,0.44089165329933167
1789033787989207600,10.62920751953125,1.7681480646133423,0.6128500699996948,0.3871355652809143
1789033787999133000,10.6391328125,1.7718132734298706,0.5395463109016418,0.3223838806152344
1789033788009058300,10.649058349609374,1.784030556678772,0.47235119342803955,0.29306238889694214
1789033788018983700,10.658983642578125,1.785252332687378,0.4124864339828491,0.3174969553947449
1789033788028909300,10.668909423828126,1.804800033569336,0.39416050910949707,0.32360562682151794
1789033788038834700,10.678834716796874,1.8084651231765747,0.37583455443382263,0.2955058515071869
1789033788048760000,10.688760009765625,1.793804407119751,0.3416261374950409,0.29184064269065857
1789033788058685700,10.698685791015626,1.7583742141723633,0.34406960010528564,0.310166597366333
1789033788068611000,10.708611083984374,1.7082833051681519,0.36972591280937195,0.3113883137702942
1789033788078536400,10.718536376953125,1.676518440246582,0.4381427764892578,0.33337944746017456
1789033788088462000,10.728462158203126,1.5775582790374756,0.4686860144138336,0.31871870160102844
1789033788098387500,10.738387451171874,1.4566071033477783,0.388051837682724,0.2857320010662079
1789033788108313000,10.74831298828125,1.3552035093307495,0.30253079533576965,0.28206682205200195
1789033788118238500,10.758238525390626,1.2000439167022705,0.13881902396678925,0.25274530053138733
1789033788128163800,10.768163818359374,1.0412189960479736,0.039858926087617874,0.2283107042312622
1789033788138089500,10.77808935546875,0.9056070446968079,-0.02611446939408779,0.268627792596817
1789033788148014800,10.788014892578126,0.7602212429046631,-0.08597921580076218,0.3040579557418823
1789033788157940200,10.797940185546874,0.6185005903244019,-0.10186170041561127,0.29672756791114807
1789033788167865900,10.807865966796875,0.49510589241981506,-0.1360701322555542,0.2649625837802887
1789033788177791200,10.817791259765626,0.3753764033317566,-0.2435823380947113,0.19532401859760284
1789033788187716600,10.827716552734374,0.2519817352294922,-0.402407169342041,0.11468986421823502
1789033788197642200,10.837642333984375,0.12247838824987411,-0.5025889873504639,0.051159925758838654
1789033788207567600,10.847567626953126,0.012522728182375431,-0.5209149122238159,0.0206166859716177
1789033788217493200,10.8574931640625,-0.06811141967773438,-0.5306887626647949,-0.0062613640911877155
1789033788227418600,10.867418701171875,-0.14263692498207092,-0.6308705806732178,-0.05635227635502815
1789033788237344000,10.877343994140626,-0.23426663875579834,-0.7762564420700073,-0.13332124054431915
1789033788247269600,10.88726953125,-0.33078327775001526,-0.8019127249717712,-0.19929464161396027
1789033788257195000,10.897195068359375,-0.4211912751197815,-0.5991056561470032,-0.2029598206281662
1789033788267120400,10.907120361328126,-0.4981602132320404,-0.3205513060092926,-0.1821904182434082
1789033788277046000,10.9170458984375,-0.5763509273529053,-0.12263110280036926,-0.19074252247810364
1789033788286971400,10.926971435546875,-0.6692023873329163,0.09361502528190613,-0.2029598206281662
1789033788296896800,10.936896728515626,-0.7657189965248108,0.28298309445381165,-0.20173808932304382
1789033788306822400,10.946822509765624,-0.8439096808433533,0.3061959743499756,-0.24327689409255981
1789033788316747800,10.956747802734375,-0.8463531732559204,0.2964221239089966,-0.27259841561317444
1789033788326673400,10.96667333984375,-0.8072578310966492,0.2854265570640564,-0.22006404399871826
1789033788336598800,10.976598876953124,-0.7938187718391418,0.21090106666088104,-0.13942988216876984
1789033788346524200,10.986524169921875,-0.8280271887779236,0.06307178735733032,-0.10766492038965225
1789033788356449800,10.99644970703125,-0.8842267394065857,-0.11774418503046036,-0.1357647031545639
1789033788366375200,11.006375244140624,-0.9538653492927551,-0.22159120440483093,-0.21639885008335114
1789033788376300500,11.016300537109375,-1.0406081676483154,-0.2655734717845917,-0.2945895493030548
1789033788386226200,11.02622607421875,-1.13712477684021,-0.24236060678958893,-0.2897026240825653
1789033788396151600,11.036151611328124,-1.2250893115997314,-0.17883066833019257,-0.2176205813884735
1789033788406077000,11.046076904296875,-1.2825106382369995,-0.11163553595542908,-0.17119485139846802
1789033788416002600,11.05600244140625,-1.3167190551757812,-0.02611446939408779,-0.19074252247810364
1789033788425928000,11.065927978515624,-1.3167190551757812,0.05940660089254379,-0.2493855506181717
1789033788435853600,11.075853515625,-1.2800670862197876,0.141262486577034,-0.28725916147232056
1789033788445779000,11.085779052734376,-1.2556325197219849,0.21456626057624817,-0.30802857875823975
1789033788455704300,11.095704345703124,-1.293506145477295,0.11438442766666412,-0.35445427894592285
1789033788465630000,11.1056298828125,-1.3619229793548584,-0.04199695214629173,-0.44119709730148315
1789033788475555300,11.115555419921876,-1.4046835899353027,-0.145843967795372,-0.4656316637992859
1789033788485480700,11.125480712890624,-1.4401136636734009,-0.23503021895885468,-0.40698865056037903
1789033788495406300,11.13540625,-1.518304467201233,-0.23991714417934418,-0.3715584874153137
1789033788505331700,11.145331787109376,-1.5793908834457397,-0.24236060678958893,-0.3972148299217224
1789033788515257000,11.155257080078124,-1.5989385843276978,-0.2802342176437378,-0.4326449930667877
1789033788525182700,11.1651826171875,-1.6331470012664795,-0.3315468728542328,-0.4546361267566681
1789033788535108000,11.175108154296876,-1.6807944774627686,-0.3975202441215515,-0.46807512640953064
1789033788545033700,11.18503369140625,-1.712559461593628,-0.48670652508735657,-0.49984011054039
1789033788554959000,11.194958984375,-1.7259984016418457,-0.5319104790687561,-0.531605064868927
1789033788564884500,11.204884521484376,-1.6905683279037476,-0.5258018374443054,-0.5450441241264343
1789033788574810000,11.21481005859375,-1.6087124347686768,-0.503810703754425,-0.5206094980239868
1789033788584735500,11.224735595703125,-1.5219695568084717,-0.4292852282524109,-0.43020153045654297
1789033788594660900,11.234660888671876,-1.426674723625183,-0.35964664816856384,-0.30802857875823975
1789033788604586500,11.24458642578125,-1.3069452047348022,-0.3413206934928894,-0.22617268562316895
1789033788614511900,11.254511962890625,-1.1896591186523438,-0.24724751710891724,-0.2176205813884735
1789033788624437200,11.264437255859375,-1.0430516004562378,-0.1568395346403122,-0.21029019355773926
1789033788634363000,11.27436279296875,-0.8610138893127441,-0.14950916171073914,-0.10277800261974335
1789033788644288300,11.284288330078125,-0.7058542370796204,-0.14706569910049438,-0.009926552884280682
1789033788654214000,11.2942138671875,-0.5971203446388245,-0.07620538026094437,-0.020922118797898293
1789033788664139300,11.30413916015625,-0.4712821841239929,-0.046883873641490936,-0.01847865991294384
1789033788674064600,11.314064697265625,-0.31490078568458557,-0.001679878099821508,0.064598947763443
1789033788683990300,11.323990234375,-0.12675444781780243,0.13515383005142212,0.1769980639219284
1789033788693915600,11.33391552734375,0.06505709886550903,0.24510949850082397,0.24052800238132477
1789033788703841000,11.343841064453125,0.22754712402820587,0.27809619903564453,0.24663665890693665
1789033788713766700,11.3537666015625,0.3949240744113922,0.3013090491294861,0.2380845546722412
1789033788723692000,11.363692138671874,0.5647444725036621,0.3575085997581482,0.19532401859760284
1789033788733617400,11.373617431640625,0.7333431839942932,0.4283689260482788,0.15378521382808685
1789033788743543000,11.38354296875,0.9031635522842407,0.45158177614212036,0.13545925915241241
1789033788753468400,11.393468505859374,1.072983980178833,0.44791659712791443,0.15378521382808685
1789033788763393800,11.403393798828125,1.2159262895584106,0.4503600597381592,0.17577634751796722
1789033788773319400,11.4133193359375,1.3283255100250244,0.4943423271179199,0.17455461621284485
1789033788783244800,11.423244873046874,1.4126248359680176,0.5261073112487793,0.16966769099235535
1789033788793170400,11.43317041015625,1.489593744277954,0.5896372199058533,0.18921536207199097
1789033788803095800,11.443095703125,1.5677844285964966,0.6519454121589661,0.22220206260681152
1789033788813021200,11.453021240234374,1.6325361728668213,0.708145022392273,0.2539670467376709
1789033788822946800,11.46294677734375,1.6814053058624268,0.6885973215103149,0.29306238889694214
1789033788832872200,11.4728720703125,1.6985095739364624,0.6104066371917725,0.3113883137702942
1789033788842797600,11.482797607421874,1.7253875732421875,0.5823068618774414,0.3016144931316376
1789033788852723200,11.49272314453125,1.7595959901809692,0.585972011089325,0.268627792596817
1789033788862648600,11.502648681640625,1.80357825756073,0.5138899683952332,0.2649625837802887
1789033788872574000,11.512573974609374,1.8377866744995117,0.4699077308177948,0.2600756883621216
1789033788882499600,11.52249951171875,1.8463387489318848,0.4430296719074249,0.23564109206199646
1789033788892425000,11.532425048828125,1.8463387489318848,0.4027126133441925,0.2136499583721161
1789033788902350600,11.5423505859375,1.8487823009490967,0.31230461597442627,0.19410228729248047
1789033788912276000,11.55227587890625,1.8536691665649414,0.2438877671957016,0.17088942229747772
1789033788922201300,11.562201416015625,1.8243476152420044,0.18646647036075592,0.14401137828826904
1789033788932126700,11.572126708984374,1.7583742141723633,0.1718057245016098,0.14278964698314667
1789033788942052000,11.582052001953125,1.6826270818710327,0.22678354382514954,0.1611155867576599
1789033788951977700,11.591977783203125,1.647196888923645,0.356286883354187,0.20631958544254303
1789033788961903000,11.601903076171874,1.6142101287841797,0.4344775676727295,0.2331976294517517
1789033788971828500,11.611828369140625,1.489593744277954,0.3257436454296112,0.19898919761180878
1789033788981753900,11.62175390625,1.3380992412567139,0.13271036744117737,0.17088942229747772
1789033788991679200,11.63167919921875,1.2330305576324463,0.09728021919727325,0.20387612283229828
1789033789001604600,11.6416044921875,1.1609485149383545,0.12782345712184906,0.22953243553638458
1789033789011530200,11.6515302734375,1.0619884729385376,0.06795870512723923,0.2283107042312622
1789033789021455600,11.66145556640625,0.9398154616355896,0.010537417605519295,0.26740604639053345
1789033789031381000,11.671381103515625,0.8139773011207581,-0.04566214233636856,0.3113883137702942
1789033789041306600,11.681306640625,0.6722567081451416,-0.14462223649024963,0.310166597366333
1789033789051232000,11.69123193359375,0.5451968312263489,-0.23258677124977112,0.27717989683151245
1789033789061157400,11.701157470703125,0.42791077494621277,-0.28267768025398254,0.22586725652217865
1789033789071083000,11.7110830078125,0.31062474846839905,-0.3205513060092926,0.18432845175266266
1789033789081008400,11.72100830078125,0.1640172004699707,-0.3681987524032593,0.15745039284229279
1789033789090933800,11.730933837890625,0.019853105768561363,-0.4696022868156433,0.11957678198814392
1789033789100859400,11.740859375,-0.09987638890743256,-0.5856665968894958,0.07315105944871902
1789033789110784800,11.75078466796875,-0.18417572975158691,-0.6626355648040771,0.030390523374080658
1789033789120710100,11.760710205078125,-0.24770566821098328,-0.6919570565223694,-0.0038179049734026194
1789033789130635800,11.7706357421875,-0.3026835024356842,-0.689513623714447,-0.04413498193025589
1789033789140561200,11.78056103515625,-0.3637699782848358,-0.6320923566818237,-0.09300415962934494
1789033789150486800,11.79048681640625,-0.45051276683807373,-0.5539016127586365,-0.13820815086364746
1789033789160412200,11.800412109375,-0.5763509273529053,-0.4134027361869812,-0.1663079410791397
1789033789170337500,11.810337646484374,-0.6997455954551697,-0.187382772564888,-0.18952079117298126
1789033789180263200,11.82026318359375,-0.7925970554351807,0.09972367435693741,-0.20906847715377808
1789033789190188500,11.8301884765625,-0.8805615901947021,0.3208567202091217,-0.20051635801792145
1789033789200114000,11.840114013671876,-0.9367611408233643,0.34895649552345276,-0.20418155193328857
1789033789210039600,11.85003955078125,-0.9428697824478149,0.2964221239089966,-0.1980729103088379
1789033789219965000,11.85996484375,-0.9318742156028748,0.2438877671957016,-0.12476912885904312
1789033789229890300,11.869890380859376,-0.9208786487579346,0.1718057245016098,-0.03802633285522461
1789033789239816000,11.87981591796875,-0.9343177080154419,0.02519817277789116,0.004734201822429895
1789033789249741300,11.8897412109375,-0.9746347665786743,-0.13484840095043182,-0.0013744457392022014
1789033789259667000,11.8996669921875,-1.0137300491333008,-0.24113887548446655,-0.04657844081521034
1789033789269592300,11.90959228515625,-1.0613775253295898,-0.33765551447868347,-0.09422589093446732
1789033789279517700,11.919517578125,-1.1114684343338013,-0.38652467727661133,-0.11499529331922531
1789033789289443300,11.929443359375,-1.1578941345214844,-0.35353797674179077,-0.10399972647428513
1789033789299368700,11.93936865234375,-1.21287202835083,-0.3046688139438629,-0.1052214577794075
1789033789309294000,11.949294189453125,-1.2983931303024292,-0.27656903862953186,-0.17974695563316345
1789033789319219700,11.9592197265625,-1.3154972791671753,-0.17516547441482544,-0.2493855506181717
1789033789329145000,11.96914501953125,-1.2446370124816895,0.03375028073787689,-0.2176205813884735
1789033789339070500,11.979070556640625,-1.2287545204162598,0.24510949850082397,-0.17363831400871277
1789033789348996000,11.98899609375,-1.3362667560577393,0.25610506534576416,-0.19074252247810364
1789033789358921500,11.99892138671875,-1.426674723625183,0.08017600327730179,-0.27748534083366394
1789033789368847000,12.00884716796875,-1.4278963804244995,-0.1055268943309784,-0.3165806829929352
1789033789378772500,12.0187724609375,-1.3814706802368164,-0.2790125012397766,-0.2994764447212219
1789033789388697900,12.02869775390625,-1.3826924562454224,-0.3572031855583191,-0.2860374450683594
1789033789398623500,12.03862353515625,-1.4156790971755981,-0.29856017231941223,-0.3116937577724457
1789033789408548900,12.048548828125,-1.4608831405639648,-0.20937390625476837,-0.36911505460739136
1789033789418474200,12.05847412109375,-1.5854995250701904,-0.17638720571994781,-0.4033234715461731
1789033789428399900,12.06839990234375,-1.69301176071167,-0.16783510148525238,-0.4045451879501343
1789033789438325200,12.0783251953125,-1.7174463272094727,-0.14217877388000488,-0.3764454126358032
1789033789448250600,12.088250732421875,-1.673464059829712,-0.17027856409549713,-0.33001968264579773
1789033789458176300,12.09817626953125,-1.592829942703247,-0.2582430839538574,-0.28725916147232056
1789033789468101600,12.1081015625,-1.517082691192627,-0.27168211340904236,-0.2530507445335388
1789033789478027300,12.11802734375,-1.4413354396820068,-0.12263110280036926,-0.19929464161396027
1789033789487952600,12.12795263671875,-1.341153621673584,0.05329795181751251,-0.1259908676147461
1789033789497878000,12.1378779296875,-1.1921026706695557,0.061850059777498245,-0.049021899700164795
1789033789507803600,12.1478037109375,-0.9917389750480652,-0.14340050518512726,0.031612250953912735
1789033789517729000,12.15772900390625,-0.8573487401008606,-0.20937390625476837,0.04993819445371628
1789033789527654400,12.167654296875,-0.7620537877082825,-0.09453132748603821,-0.0013744457392022014
1789033789537580000,12.177580078125,-0.6618719696998596,-0.15073087811470032,0.05971203371882439
1789033789547505400,12.18750537109375,-0.5506945848464966,-0.22769984602928162,0.18677189946174622
1789033789557430800,12.1974306640625,-0.406530499458313,-0.11163553595542908,0.2600756883621216
1789033789567356400,12.2073564453125,-0.23548837006092072,0.004428769461810589,0.3150535225868225
1789033789577281800,12.21728173828125,-0.05345066636800766,0.06795870512723923,0.37491825222969055
1789033789587207400,12.22720751953125,0.13713914155960083,0.13881902396678925,0.38102689385414124
1789033789597132800,12.2371328125,0.324063777923584,0.21212279796600342,0.33826637268066406
1789033789607058200,12.24705810546875,0.5048797130584717,0.2805396616458893,0.29672756791114807
1789033789616983800,12.25698388671875,0.6710349321365356,0.3220784664154053,0.25763222575187683
1789033789626909200,12.2669091796875,0.8139773011207581,0.30863943696022034,0.24297146499156952
1789033789636834600,12.27683447265625,0.9508110284805298,0.31841325759887695,0.24297146499156952
1789033789646760200,12.28676025390625,1.0900882482528687,0.36483898758888245,0.24052800238132477
1789033789656685600,12.296685546875,1.2366957664489746,0.39538222551345825,0.24663665890693665
1789033789666611000,12.30661083984375,1.3674207925796509,0.41615164279937744,0.2539670467376709
1789033789676536600,12.31653662109375,1.4602723121643066,0.388051837682724,0.24663665890693665
1789033789686462000,12.3264619140625,1.5323543548583984,0.366060733795166,0.24297146499156952
1789033789696387600,12.3363876953125,1.589775562286377,0.3782780170440674,0.23075416684150696
1789033789706313000,12.34631298828125,1.6313143968582153,0.35873034596443176,0.21609342098236084
1789033789716238300,12.35623828125,1.6581923961639404,0.3721693754196167,0.20631958544254303
1789033789726164000,12.3661640625,1.694844365119934,0.4088212549686432,0.20387612283229828
1789033789736089300,12.37608935546875,1.7376048564910889,0.5212203860282898,0.1879936307668686
1789033789746014700,12.3860146484375,1.7522655725479126,0.5664243698120117,0.15989385545253754
1789033789755940400,12.3959404296875,1.7486004829406738,0.550541877746582,0.16966769099235535
1789033789765865700,12.40586572265625,1.7473787069320679,0.5138899683952332,0.19532401859760284
1789033789775791000,12.415791015625,1.7424918413162231,0.4699077308177948,0.23686282336711884
1789033789785716700,12.425716796875,1.7486004829406738,0.4955640435218811,0.2441931962966919
1789033789795642000,12.43564208984375,1.7767002582550049,0.5627591609954834,0.20143266022205353
1789033789805567500,12.4455673828125,1.7913609743118286,0.5981893539428711,0.14523309469223022
1789033789815493000,12.4554931640625,1.7767002582550049,0.5798633694648743,0.15500694513320923
1789033789825418500,12.46541845703125,1.7266093492507935,0.5456549525260925,0.2026543915271759
1789033789835344100,12.47534423828125,1.6447534561157227,0.5102248191833496,0.21120649576187134
1789033789845269500,12.48526953125,1.5482367277145386,0.5212203860282898,0.1928805559873581
1789033789855195000,12.49519482421875,1.4504984617233276,0.5835285782814026,0.19043709337711334
1789033789865120500,12.50512060546875,1.3576469421386719,0.6519454121589661,0.20021092891693115
1789033789875046000,12.5150458984375,1.2525782585144043,0.5688678026199341,0.17333288490772247
1789033789884971300,12.52497119140625,1.1536180973052979,0.40515607595443726,0.16355904936790466
1789033789894897000,12.53489697265625,1.043662428855896,0.20967933535575867,0.1623373180627823
1789033789904822300,12.544822265625,0.9141591191291809,0.05451968312263489,0.16478078067302704
1789033789914747600,12.55474755859375,0.7834340929985046,0.03375028073787689,0.16844595968723297
1789033789924673300,12.56467333984375,0.6795870661735535,0.07040216773748398,0.1721111536026001
