time,seconds_elapsed,z,y,x
1789033777516654800,0.15665478515625,9.640682220458984,2.495713949203491,0.7657032608985901
1789033777526580500,0.16658056640625,9.875179290771484,2.5698914527893066,0.760917603969574
1789033777536505900,0.176505859375,10.320243835449219,2.510071039199829,0.7680960893630981
1789033777546431500,0.186431396484375,10.827522277832031,2.392822742462158,0.7537391185760498
1789033777556356900,0.19635693359375,11.0835542678833,2.3162522315979004,0.7728816866874695
1789033777566282200,0.2062822265625,10.978270530700684,2.2707886695861816,0.7968099117279053
1789033777576208000,0.216207763671875,10.72702407836914,2.3306093215942383,0.7250252366065979
1789033777586133500,0.226133544921875,10.470992088317871,2.407179594039917,0.6891329288482666
1789033777596059000,0.236058837890625,10.191031455993652,2.4598217010498047,0.6604190468788147
1789033777605984300,0.245984375,9.899106979370117,2.4502503871917725,0.6245267391204834
1789033777615910000,0.255909912109375,9.628718376159668,2.359323024749756,0.5359922647476196
1789033777625835300,0.265835205078125,9.497113227844238,2.249253273010254,0.44027936458587646
1789033777635761000,0.275760986328125,9.592825889587402,2.1535403728485107,0.34217363595962524
1789033777645686300,0.285686279296875,9.774680137634277,2.0817556381225586,0.3278166949748993
1789033777655612000,0.29561181640625,9.846465110778809,1.97407865524292,0.38763725757598877
1789033777665537300,0.305537353515625,9.879964828491211,1.8448662757873535,0.397208571434021
1789033777675462700,0.315462646484375,9.915857315063477,1.794616937637329,0.3732803463935852
1789033777685388300,0.32538818359375,9.997213363647461,1.765903115272522,0.2799602448940277
1789033777695313700,0.335313720703125,10.021141052246094,1.7419748306274414,0.2225325107574463
1789033777705239300,0.3452392578125,10.107282638549805,1.7635103464126587,0.2105683982372284
1789033777715164700,0.35516455078125,10.080962181091309,1.8448662757873535,0.18424734473228455
1789033777725090000,0.365090087890625,10.030712127685547,1.8807586431503296,0.23688943684101105
1789033777735015700,0.375015625,10.076175689697266,1.9310078620910645,0.21774685382843018
1789033777744941300,0.38494140625,10.246066093444824,1.9573289155960083,0.2392822653055191
1789033777754866700,0.39486669921875,10.17428207397461,1.8951154947280884,0.34217363595962524
1789033777764792000,0.4047919921875,10.083354949951172,1.9357935190200806,0.4163511395454407
1789033777774717700,0.4147177734375,10.068997383117676,2.0243279933929443,0.5024927258491516
1789033777784643000,0.42464306640625,10.202995300292969,2.170290231704712,0.5718846321105957
1789033777794568700,0.434568603515625,10.540383338928223,2.289931297302246,0.5407779216766357
1789033777804494000,0.444494140625,10.882556915283203,2.311466693878174,0.5623133182525635
1789033777814419500,0.45441943359375,11.306086540222168,2.1774685382843018,0.5670989751815796
1789033777824345000,0.464344970703125,11.672188758850098,2.029113531112671,0.5527420043945312
1789033777834270700,0.474270751953125,11.794222831726074,2.0985054969787598,0.4378865361213684
1789033777844196000,0.484196044921875,11.274980545043945,2.1367905139923096,0.42352959513664246
1789033777854121500,0.49412158203125,10.497312545776367,2.053041934967041,0.7202396392822266
1789033777864047000,0.504047119140625,9.722038269042969,2.1056840419769287,0.9379864931106567
1789033777873972500,0.513972412109375,9.09990406036377,2.352144718170166,0.9547362327575684
1789033777883898000,0.523898193359375,8.551948547363281,2.589034080505371,0.9810572862625122
1789033777893823500,0.533823486328125,8.142775535583496,2.713460922241211,1.0791629552841187
1789033777903748900,0.543748779296875,8.10688304901123,2.823530673980713,1.074377417564392
1789033777913674500,0.553674560546875,8.441878318786621,2.8115665912628174,1.1509476900100708
1789033777923600000,0.563599853515625,8.86780071258545,2.691925525665283,1.1222338676452637
1789033777933525500,0.573525390625,9.231510162353516,2.4981069564819336,1.093519926071167
1789033777943451000,0.583450927734375,9.616754531860352,2.100898265838623,1.0241280794143677
1789033777953376500,0.59337646484375,10.202995300292969,1.7132610082626343,0.9403793215751648
1789033777963302000,0.603302001953125,10.162318229675293,1.9692929983139038,1.3950155973434448
1789033777973227300,0.613227294921875,9.509077072143555,2.0650060176849365,1.612762451171875
1789033777983153000,0.62315283203125,9.061619758605957,2.1918256282806396,1.2586246728897095
1789033777993078300,0.633078369140625,8.831908226013184,2.3306093215942383,0.885344386100769
1789033778003004000,0.64300390625,8.176275253295898,2.0099709033966064,1.1748759746551514
1789033778012929300,0.65292919921875,8.135597229003906,2.148754835128784,0.8614161610603333
1789033778022854700,0.662854736328125,8.21695327758789,2.0243279933929443,0.14835500717163086
1789033778032780300,0.6727802734375,7.8077802658081055,1.8233308792114258,0.18903298676013947
1789033778042705700,0.68270556640625,7.3292155265808105,2.060220241546631,0.4019941985607147
1789033778052631300,0.69263134765625,7.070790767669678,2.6847469806671143,0.4211367964744568
1789033778062556700,0.702556640625,6.826723098754883,3.3308091163635254,0.25363919138908386
1789033778072482000,0.71248193359375,6.8410797119140625,3.3619158267974854,0.04546362906694412
1789033778082407700,0.72240771484375,7.22871732711792,2.926422119140625,-0.20338992774486542
1789033778092333300,0.732333251953125,7.817351341247559,2.4670002460479736,-0.4019941985607147
1789033778102258700,0.7422587890625,8.417949676513672,2.335394859313965,-0.5742774605751038
1789033778112184000,0.75218408203125,9.06401252746582,2.5531418323516846,-0.5144568681716919
1789033778122109700,0.762109619140625,8.958727836608887,2.9718856811523438,-0.15553347766399384
1789033778132035000,0.77203515625,8.702695846557617,3.297309637069702,-0.04546362906694412
1789033778141960700,0.781960693359375,9.131011009216309,3.1800613403320312,-0.33020952343940735
1789033778151886000,0.791885986328125,10.023533821105957,2.641676187515259,-0.6436693072319031
1789033778161811500,0.8018115234375,10.868200302124023,2.2229323387145996,-0.8446664214134216
1789033778171737000,0.811737060546875,11.152946472167969,2.0315065383911133,-0.9834501147270203
1789033778181662500,0.821662353515625,10.971092224121094,2.256431818008423,-0.8973084688186646
1789033778191588000,0.831588134765625,10.346565246582031,2.6608188152313232,-0.729810893535614
1789033778201513500,0.841513427734375,9.714859962463379,2.854637384414673,-0.6699903607368469
1789033778211438800,0.85143896484375,9.226723670959473,2.8522446155548096,-0.6245267391204834
1789033778221364500,0.861364501953125,9.056833267211914,3.0340991020202637,-0.46420758962631226
1789033778231289900,0.871289794921875,9.104690551757812,3.2350962162017822,-0.05742774158716202
1789033778241215500,0.881215576171875,8.85344409942627,3.4552359580993652,0.4737788736820221
1789033778251140900,0.891140869140625,8.827122688293457,3.596412420272827,0.6699903607368469
1789033778261066200,0.901066162109375,9.157332420349121,3.5270206928253174,0.7202396392822266
1789033778270992000,0.910991943359375,9.396614074707031,3.3930225372314453,0.6532405614852905
1789033778280917200,0.920917236328125,9.353543281555176,3.3475589752197266,0.4091726839542389
1789033778290843000,0.9308427734375,9.358329772949219,3.290131092071533,0.17706887423992157
1789033778300768300,0.940768310546875,9.34157943725586,3.421736478805542,0.2560320198535919
1789033778310693600,0.950693603515625,9.377471923828125,3.4648072719573975,0.3756731450557709
1789033778320619300,0.960619384765625,9.45882797241211,3.469592809677124,0.5096712112426758
1789033778330544600,0.970544677734375,9.580862045288086,3.5916268825531006,0.7369893789291382
1789033778340470300,0.98047021484375,10.138389587402344,3.5509488582611084,0.9690931439399719
1789033778350395600,0.990395751953125,10.255638122558594,3.390629768371582,1.1078768968582153
1789033778360321000,1.000321044921875,9.968499183654785,3.493520975112915,1.3280165195465088
1789033778370246700,1.01024658203125,9.80817985534668,3.2303106784820557,0.8111668825149536
1789033778380172000,1.020172119140625,9.358329772949219,3.452843189239502,-0.8709874153137207
1789033778390097700,1.03009765625,8.941978454589844,3.462414264678955,-0.7250252366065979
1789033778400023000,1.04002294921875,8.858229637145996,2.9001009464263916,0.7393822073936462
1789033778409948400,1.049948486328125,8.865407943725586,3.1034910678863525,1.9381862878799438
1789033778419874000,1.0598740234375,8.717052459716797,3.1250264644622803,2.715853691101074
1789033778429799400,1.06979931640625,9.119047164916992,3.4672000408172607,2.746960401535034
1789033778439725000,1.07972509765625,8.757730484008789,3.38105845451355,2.7014968395233154
1789033778449650400,1.089650390625,8.358129501342773,2.9455647468566895,2.447857618331909
1789033778459575800,1.099575927734375,7.802994728088379,2.550748825073242,1.9645073413848877
1789033778469501400,1.10950146484375,6.7932233810424805,2.251646041870117,1.6079767942428589
1789033778479427000,1.119427001953125,5.912664890289307,2.1272194385528564,1.6654045581817627
1789033778489352400,1.1293525390625,5.675775527954102,2.194218397140503,1.9142581224441528
1789033778499277800,1.13927783203125,5.084748268127441,2.768495798110962,2.390429735183716
1789033778509203200,1.149203125,4.2281174659729,3.208775281906128,3.0867412090301514
1789033778519128800,1.15912890625,3.4815568923950195,3.4815568923950195,3.2709884643554688
1789033778529054500,1.169054443359375,3.2207393646240234,3.3164522647857666,3.6083765029907227
1789033778538979800,1.178979736328125,3.407379388809204,3.376272678375244,3.8883368968963623
1789033778548905200,1.1889052734375,3.397808074951172,3.4480574131011963,4.256831645965576
1789033778558830600,1.19883056640625,3.5916268825531006,3.2829527854919434,4.3070807456970215
1789033778568756200,1.208756103515625,4.120440483093262,2.6775684356689453,3.9792640209198
1789033778578681900,1.218681884765625,4.453042984008789,1.9621145725250244,3.6849467754364014
1789033778588607200,1.228607177734375,4.776073932647705,1.3950155973434448,3.445664644241333
1789033778598532600,1.23853271484375,4.9363932609558105,0.9906286001205444,3.342773199081421
1789033778608458000,1.2484580078125,4.1659040451049805,1.2203395366668701,4.036691665649414
1789033778618383600,1.258383544921875,2.5363919734954834,1.7754744291305542,5.472385406494141
1789033778628309200,1.268309326171875,1.2059825658798218,2.830709218978882,7.255038261413574
1789033778638234600,1.278234619140625,0.8207381963729858,2.830709218978882,8.193024635314941
1789033778648160000,1.288159912109375,1.94297194480896,2.589034080505371,8.755337715148926
1789033778658085400,1.29808544921875,3.720839262008667,1.9621145725250244,8.61176872253418
1789033778668011000,1.308010986328125,5.266602516174316,1.454836130142212,8.439485549926758
1789033778677936400,1.317936279296875,5.8719868659973145,1.0408778190612793,7.920242786407471
1789033778687862000,1.327862060546875,6.372086524963379,-0.8327022790908813,5.391029357910156
1789033778697787400,1.337787353515625,6.197410583496094,-1.4979069232940674,4.955535888671875
1789033778707712800,1.347712646484375,3.146561861038208,-4.232903480529785,3.981656789779663
1789033778717638400,1.357638427734375,4.2592244148254395,-2.68953275680542,6.020341873168945
1789033778727563800,1.367563720703125,4.596612453460693,-0.6245267391204834,7.621140003204346
1789033778737489400,1.377489501953125,4.907679080963135,0.550349235534668,9.339186668395996
1789033778747414800,1.387414794921875,4.548755645751953,0.7034898400306702,9.956535339355469
1789033778757340200,1.397340087890625,4.402793884277344,-0.0526420995593071,9.573683738708496
1789033778767265800,1.407265869140625,4.316651821136475,-0.8757730722427368,8.874979019165039
1789033778777191200,1.417191162109375,4.1970109939575195,-1.7874385118484497,8.260024070739746
1789033778787116800,1.42711669921875,3.869194269180298,-2.840280532836914,8.276773452758789
1789033778797042200,1.437042236328125,3.900300979614258,-3.5844483375549316,8.86062240600586
1789033778806967600,1.446967529296875,4.613361835479736,-3.436093330383301,9.973284721374512
1789033778816893200,1.45689306640625,5.630311489105225,-3.438486099243164,11.054841041564941
1789033778826818600,1.466818603515625,6.034698486328125,-3.926621913909912,11.46401309967041
1789033778836744200,1.476744140625,6.3361945152282715,-4.01754903793335,11.68893814086914
1789033778846669600,1.486669677734375,5.66620397567749,-3.304488182067871,12.844672203063965
1789033778856595000,1.496594970703125,4.543970108032227,-2.9862427711486816,13.653446197509766
1789033778866520600,1.5065205078125,3.4480574131011963,-2.9455647468566895,14.0051908493042
1789033778876446000,1.516446044921875,2.1104695796966553,-3.2757742404937744,13.75633716583252
1789033778886371600,1.52637158203125,1.2490534782409668,-4.041477680206299,13.588839530944824
1789033778896297000,1.536296875,1.124626636505127,-4.591826438903809,13.469198226928711
1789033778906222300,1.546222412109375,1.3519448041915894,-4.9363932609558105,12.997812271118164
1789033778916148000,1.55614794921875,1.923829436302185,-4.847858905792236,13.03370475769043
1789033778926073300,1.5660732421875,2.170290231704712,-5.364708423614502,12.88774299621582
1789033778935998700,1.575998779296875,1.8544375896453857,-5.458028316497803,12.88056468963623
1789033778945924400,1.58592431640625,2.2444677352905273,-3.2757742404937744,14.249258995056152
1789033778955850000,1.59585009765625,2.6153552532196045,-2.0267207622528076,15.261423110961914
1789033778965775400,1.605775390625,2.9623143672943115,-2.4095723628997803,15.146567344665527
1789033778975700700,1.61570068359375,2.967100143432617,-3.5844483375549316,14.58186149597168
1789033778985626000,1.625626220703125,3.483949661254883,-3.85483717918396,13.806586265563965
1789033778995551700,1.6355517578125,4.060619831085205,-3.218346357345581,13.476377487182617
1789033779005477000,1.64547705078125,3.4648072719573975,-3.1824541091918945,13.584053993225098
1789033779015402800,1.65540283203125,2.895315408706665,-2.9862427711486816,13.351950645446777
1789033779025328000,1.665328125,2.2325034141540527,-3.177668571472168,13.270594596862793
1789033779035253500,1.67525341796875,1.4093725681304932,-3.067598581314087,12.77049446105957
1789033779045179100,1.68517919921875,-0.6843472719192505,-4.070191383361816,12.244073867797852
1789033779055105300,1.695105224609375,-0.7968099117279053,-3.10109806060791,11.679367065429688
1789033779065030100,1.705030029296875,-0.5575276613235474,-2.297109842300415,11.519047737121582
1789033779074955500,1.71495556640625,-0.28235307335853577,-2.1439690589904785,10.990234375
1789033779084881000,1.724880859375,-0.22013968229293823,-1.8113667964935303,10.686346054077148
1789033779094806500,1.734806640625,-0.6675975322723389,-2.0338993072509766,10.50209903717041
1789033779104732000,1.74473193359375,-1.0600204467773438,-2.445464849472046,10.186245918273926
1789033779114657300,1.7546572265625,-1.2203395366668701,-2.56510591506958,10.023533821105957
1789033779124583000,1.7645830078125,-1.7132610082626343,-2.7326035499572754,9.798608779907227
1789033779134508300,1.77450830078125,-2.060220241546631,-3.067598581314087,9.638289451599121
1789033779144434000,1.784433837890625,-2.2995026111602783,-3.081955671310425,9.674181938171387
1789033779154359300,1.794359375,-2.6009981632232666,-2.861815929412842,9.810572624206543
1789033779164284700,1.80428466796875,-3.2685956954956055,-2.9240293502807617,10.198209762573242
1789033779174210300,1.814210205078125,-3.483949661254883,-2.823530673980713,10.454241752624512
1789033779184135700,1.8241357421875,-3.34995174407959,-3.098705291748047,10.49252700805664
1789033779194061300,1.834061279296875,-2.9527430534362793,-3.5365917682647705,10.425528526306152
1789033779203986700,1.843986572265625,-2.2085752487182617,-3.8428730964660645,10.171889305114746
1789033779213912000,1.853912109375,-1.9142581224441528,-4.086941242218018,9.91825008392334
1789033779223837700,1.863837646484375,-2.0793628692626953,-4.689932346343994,9.324830055236816
1789033779237531100,1.87753125,-2.1296122074127197,-6.096911907196045,8.14516830444336
1789033779247456000,1.8874560546875,-1.6366907358169556,-6.020341873168945,7.891529083251953
1789033779257381600,1.897381591796875,-1.1150553226470947,-6.4319071769714355,7.877171993255615
1789033779267307000,1.90730712890625,-0.2392822653055191,-6.872186660766602,7.69531774520874
1789033779277232600,1.917232666015625,0.363709032535553,-6.857829570770264,7.479963779449463
1789033779287158000,1.927157958984375,0.8039883971214294,-6.996613502502441,7.197610378265381
1789033779297083400,1.93708349609375,0.9475577473640442,-6.900900363922119,6.977470874786377
1789033779307009000,1.947009033203125,0.8183453679084778,-6.503692150115967,6.939185619354248
1789033779316934400,1.956934326171875,0.16749759018421173,-6.556334018707275,6.809973239898682
1789033779326860000,1.966860107421875,0.6843472719192505,-6.096911907196045,7.125825881958008
1789033779336785400,1.976785400390625,0.5742774605751038,-5.91505765914917,7.087540626525879
1789033779346710800,1.986710693359375,0.13878370821475983,-5.752345561981201,7.183253765106201
1789033779356636400,1.996636474609375,-0.14356936514377594,-5.7858452796936035,7.144968509674072
1789033779366561800,2.006561767578125,-1.7802600860595703,-5.91505765914917,6.551548480987549
1789033779376487200,2.016487060546875,-4.015156269073486,-5.752345561981201,5.958128452301025
1789033779386412800,2.026412841796875,-4.828716278076172,-5.359922885894775,5.876772403717041
1789033779396338200,2.036338134765625,-4.206582069396973,-7.202396392822266,5.120640277862549
1789033779406263600,2.046263671875,-3.627519130706787,-4.7712883949279785,7.350750923156738
1789033779416189200,2.056189208984375,-3.895515203475952,-4.3788652420043945,7.829315662384033
1789033779426114600,2.066114501953125,-3.1202406883239746,-6.068198204040527,7.920242786407471
1789033779436040200,2.076040283203125,-2.148754835128784,-5.374279499053955,9.403793334960938
1789033779445965600,2.085965576171875,-2.321038007736206,-4.8574299812316895,10.810772895812988
1789033779455891000,2.095890869140625,-1.8951154947280884,-4.350151538848877,11.466405868530273
1789033779465816600,2.105816650390625,-2.50289249420166,-5.4795637130737305,10.882556915283203
1789033779475742000,2.115741943359375,2.0482561588287354,-7.207181930541992,13.323236465454102
1789033779485667300,2.125667236328125,-1.6031911373138428,-3.4408788681030273,14.060225486755371
1789033779495593000,2.135593017578125,-2.909672260284424,-4.986642360687256,13.911870956420898
1789033779505518300,2.145518310546875,1.7276179790496826,-6.240481376647949,13.730016708374023
1789033779515443700,2.155443603515625,4.374079704284668,-6.561119556427002,13.27538013458252
1789033779525369300,2.165369384765625,0.9427721500396729,-7.250252723693848,11.772686958312988
1789033779535294700,2.175294677734375,-2.5603201389312744,-8.561519622802734,10.643275260925293
1789033779545220400,2.185220458984375,-1.0911271572113037,-7.618747234344482,11.586047172546387
1789033779555145700,2.195145751953125,-4.709074974060059,-6.771687984466553,9.90149974822998
1789033779565071000,2.205071044921875,-0.4977070987224579,-8.001599311828613,10.561919212341309
1789033779574996700,2.214996826171875,0.885344386100769,-7.872386455535889,12.19382381439209
1789033779584922000,2.224922119140625,-5.723631858825684,-6.618547439575195,11.073983192443848
1789033779594847500,2.234847412109375,-6.211767673492432,-6.781259536743164,11.743973731994629
1789033779604773000,2.244773193359375,-3.3690943717956543,-6.51326322555542,11.638689041137695
1789033779614698500,2.254698486328125,-4.804787635803223,-2.2540390491485596,6.364908218383789
1789033779624623900,2.264623779296875,-3.4983067512512207,-12.739387512207031,15.366706848144531
1789033779634549500,2.274549560546875,4.53200626373291,-5.173282623291016,9.762716293334961
1789033779644475000,2.284474853515625,-3.115455150604248,-3.656233072280884,9.317651748657227
1789033779654400300,2.294400146484375,-5.828916072845459,-4.517649173736572,2.651247501373291
1789033779664326000,2.304325927734375,6.896114826202393,-2.9383862018585205,3.053241729736328
1789033779674251300,2.314251220703125,-8.025527000427246,-0.40677985548973083,0.7896314859390259
1789033779684177000,2.324177001953125,-0.12921242415905,0.07657032459974289,2.1104695796966553
1789033779694102300,2.334102294921875,1.4213366508483887,1.1724830865859985,4.814359188079834
1789033779704027600,2.344027587890625,2.5842485427856445,2.3784656524658203,5.111069202423096
1789033779713953300,2.353953369140625,-6.245266914367676,3.78544545173645,2.043470621109009
1789033779723878700,2.363878662109375,-3.90987229347229,3.321237802505493,0.8709874153137207
1789033779733804000,2.373803955078125,-4.326223373413086,3.761517286300659,2.7038896083831787
1789033779743729700,2.383729736328125,-1.5840486288070679,3.6705899238586426,5.383851051330566
1789033779753655000,2.393655029296875,-2.258824586868286,5.938985824584961,7.872386455535889
1789033779763580400,2.403580322265625,-0.3732803463935852,5.690132141113281,8.642875671386719
1789033779773506000,2.413506103515625,1.1485549211502075,4.599005222320557,6.192625045776367
1789033779783431400,2.423431396484375,0.07657032459974289,3.3164522647857666,6.786045074462891
1789033779793357000,2.433357177734375,-2.1774685382843018,4.919643402099609,7.566105365753174
1789033779803282400,2.443282470703125,-0.019142581149935722,5.484349727630615,9.556933403015137
1789033779813207800,2.453207763671875,1.0911271572113037,5.029713153839111,9.958928108215332
1789033779823133400,2.463133544921875,0.4307080805301666,3.335594654083252,9.509077072143555
1789033779833058800,2.473058837890625,-2.148754835128784,1.856830358505249,3.6849467754364014
1789033779842984200,2.482984130859375,-2.124826431274414,2.8761727809906006,0.009571290574967861
1789033779852909800,2.492909912109375,-7.9968132972717285,-6.087340831756592,0.4785645306110382
1789033779862835200,2.502835205078125,2.306680917739868,1.5840486288070679,8.944371223449707
1789033779872760600,2.512760498046875,2.172683000564575,-9.729216575622559,3.704089403152466
1789033779882686200,2.522686279296875,-3.1345977783203125,-10.533205032348633,4.8191447257995605
1789033779892611600,2.532611572265625,-7.259823799133301,-12.351750373840332,9.820143699645996
1789033779902537200,2.542537109375,-9.868000984191895,-7.81974458694458,12.447463035583496
1789033779912462600,2.552462646484375,-14.20858097076416,-7.121040344238281,13.241880416870117
1789033779922388000,2.562387939453125,5.077569484710693,-16.601404190063477,-7.073183536529541
1789033779932313600,2.572313720703125,7.020541667938232,-18.582660675048828,9.111868858337402
1789033779942239000,2.582239013671875,1.7754744291305542,-11.672188758850098,15.658631324768066
1789033779952164400,2.592164306640625,6.369693756103516,-16.969898223876953,15.883556365966797
1789033779962090000,2.602090087890625,1.306481122970581,-14.9072847366333,15.448062896728516
1789033779972015400,2.612015380859375,-5.139782905578613,-12.811172485351562,16.32862091064453
1789033779981940700,2.621940673828125,-7.704888820648193,-12.720245361328125,14.299508094787598
1789033779991866400,2.631866455078125,-5.843272686004639,-11.643474578857422,13.686945915222168
1789033780001791700,2.641791748046875,-4.350151538848877,-13.045668601989746,10.657631874084473
1789033780011717400,2.65171728515625,-3.651447296142578,-11.7056884765625,9.906285285949707
1789033780021642800,2.661642822265625,-3.94815731048584,-10.408778190612793,11.33240795135498
1789033780031568100,2.671568115234375,-5.010570526123047,-10.557133674621582,10.403992652893066
1789033780041493800,2.68149365234375,-6.666403770446777,-10.877771377563477,8.662017822265625
1789033780051419100,2.691419189453125,-4.503292083740234,-12.050254821777344,9.485149383544922
1789033780061344500,2.701344482421875,-4.3788652420043945,-9.748359680175781,8.34138011932373
1789033780071270100,2.711270263671875,-5.527420520782471,-6.57547664642334,10.212567329406738
1789033780081195500,2.721195556640625,-3.4408788681030273,-7.901100158691406,11.294122695922852
1789033780091121000,2.731120849609375,-2.612962245941162,-6.446264266967773,13.428520202636719
1789033780101046500,2.741046630859375,-1.852044701576233,-2.8139593601226807,12.930813789367676
1789033780110972000,2.750971923828125,9.083154678344727,-7.015756130218506,10.595418930053711
1789033780120897500,2.7608974609375,-20.50649070739746,2.799602508544922,11.743973731994629
1789033780130823000,2.770822998046875,-10.437492370605469,-0.4307080805301666,12.145967483520508
1789033780140748300,2.780748291015625,34.992637634277344,-6.398407936096191,8.063812255859375
1789033780150673700,2.790673583984375,-31.52304458618164,8.523234367370605,8.327022552490234
1789033780160599000,2.80059912109375,-1.0719845294952393,1.4404792785644531,4.517649173736572
1789033780170524400,2.8105244140625,6.498906135559082,-0.9284151792526245,4.53200626373291
1789033780180449800,2.82044970703125,-6.441478729248047,5.54177713394165,8.09252643585205
1789033780190375400,2.83037548828125,-9.805787086486816,7.671389579772949,-2.9144580364227295
1789033780200300800,2.84030078125,-9.379864692687988,9.379864692687988,1.454836130142212
1789033780210226200,2.85022607421875,-0.8757730722427368,10.021141052246094,8.532805442810059
1789033780220151600,2.860151611328125,-4.503292083740234,11.638689041137695,6.283552169799805
1789033780230077000,2.870076904296875,-2.5938198566436768,8.489734649658203,2.4885356426239014
1789033780240002600,2.88000244140625,-4.579862594604492,7.188039302825928,1.8185452222824097
1789033780249928000,2.889927978515625,-6.096911907196045,10.269994735717773,4.388436794281006
1789033780259853600,2.899853515625,-1.94297194480896,11.428120613098145,7.192824840545654
1789033780269779000,2.909779052734375,0.7465606927871704,6.116054534912109,11.241480827331543
1789033780279704300,2.919704345703125,-6.900900363922119,13.701302528381348,8.422736167907715
1789033780289630000,2.9296298828125,-0.6317051649093628,3.493520975112915,10.6624174118042
1789033780299555300,2.939555419921875,0.37806597352027893,3.84765887260437,9.619147300720215
1789033780309480700,2.949480712890625,1.0719845294952393,-7.015756130218506,4.790431022644043
1789033780319406300,2.95940625,-0.5072783827781677,-17.85045623779297,-2.981456995010376
1789033780329331700,2.969331787109375,-1.1054840087890625,-13.911870956420898,9.748359680175781
1789033780339257000,2.979257080078125,0.363709032535553,-17.29532241821289,20.219350814819336
1789033780349182700,2.9891826171875,1.368694543838501,-17.89352798461914,17.97966957092285
1789033780359108000,2.999108154296875,-0.4833501875400543,-17.151752471923828,16.189838409423828
1789033780369033700,3.00903369140625,0.6508477330207825,-17.08953857421875,15.735201835632324
1789033780378959000,3.018958984375,0.914058268070221,-14.304293632507324,15.395421028137207
1789033780388884500,3.028884521484375,-0.04307080805301666,-10.820343971252441,13.490734100341797
1789033780398810000,3.03881005859375,-0.7561319470405579,-8.786444664001465,12.265608787536621
1789033780408735500,3.048735595703125,-1.1676974296569824,-7.781459331512451,11.56690502166748
1789033780418660900,3.058660888671875,-0.16271193325519562,-6.92482852935791,11.274980545043945
1789033780428586500,3.06858642578125,-0.9858429431915283,-6.068198204040527,10.26042366027832
1789033780438511900,3.078511962890625,-1.3351950645446777,-5.618347644805908,9.111868858337402
1789033780448437200,3.088437255859375,-1.4644074440002441,-4.46979284286499,8.528019905090332
1789033780458363000,3.09836279296875,-2.172683000564575,-5.532206058502197,5.053641319274902
1789033780468288300,3.108288330078125,-1.3304094076156616,-3.5270206928253174,7.1162543296813965
1789033780478214000,3.1182138671875,-1.7324036359786987,-2.8522446155548096,8.910871505737305
1789033780488139300,3.12813916015625,-1.4691931009292603,-3.129812002182007,8.537590980529785
1789033780498064600,3.138064697265625,-1.9334007501602173,-3.187239646911621,8.95394229888916
1789033780507990300,3.147990234375,-2.5220351219177246,-3.88594388961792,8.331808090209961
1789033780517915600,3.15791552734375,-2.7038896083831787,-4.335794448852539,8.135597229003906
1789033780527841000,3.167841064453125,-1.852044701576233,-3.656233072280884,10.576275825500488
1789033780537766700,3.1777666015625,-1.34476637840271,-3.2063822746276855,11.34676456451416
1789033780547692000,3.187692138671875,-1.2346965074539185,-3.7471601963043213,11.140982627868652
1789033780557617400,3.197617431640625,-1.698904037475586,-2.991028308868408,12.212966918945312
1789033780567543000,3.20754296875,-1.612762451171875,-2.0865414142608643,12.447463035583496
1789033780577468400,3.217468505859375,-2.163111686706543,-4.359723091125488,9.030512809753418
1789033780587394000,3.22739404296875,-2.7326035499572754,-3.3020951747894287,9.681360244750977
1789033780597319400,3.2373193359375,-2.9144580364227295,-4.048655986785889,8.523234367370605
1789033780607244800,3.247244873046875,-2.541177749633789,-3.4408788681030273,9.193224906921387
1789033780617170400,3.25717041015625,-2.4263222217559814,-4.096512317657471,8.551948547363281
1789033780627095800,3.267095703125,-4.584648132324219,-3.6705899238586426,9.41336441040039
1789033780637021200,3.277021240234375,-3.9433717727661133,-2.847458839416504,13.993227005004883
1789033780646946800,3.28694677734375,-4.6995038986206055,-1.9669002294540405,16.529619216918945
1789033780656872200,3.2968720703125,-2.431107759475708,-3.7710886001586914,11.389835357666016
1789033780666797600,3.306797607421875,1.368694543838501,-6.0538411140441895,7.652246952056885
1789033780676723200,3.31672314453125,-7.0683979988098145,-2.919243574142456,15.534204483032227
1789033780686648600,3.326648681640625,-16.266408920288086,-1.6654045581817627,12.768101692199707
1789033780696574200,3.33657421875,-5.594419479370117,-5.2354960441589355,9.78664493560791
1789033780706499600,3.34649951171875,-2.68953275680542,-6.570691108703613,6.010770320892334
1789033780716425000,3.356425048828125,-2.8761727809906006,-5.642275810241699,7.451249599456787
1789033780726350600,3.3663505859375,-3.0245277881622314,-4.766502857208252,8.575876235961914
1789033780736276000,3.37627587890625,-4.790431022644043,-4.536791801452637,8.484949111938477
1789033780746201300,3.386201416015625,-5.163711071014404,-4.536791801452637,8.12123966217041
1789033780756127000,3.396126953125,-4.555934429168701,-4.957928657531738,6.685546398162842
1789033780766052400,3.40605224609375,-3.4025938510894775,-5.560919761657715,3.8045880794525146
1789033780775977700,3.415977783203125,-0.2105683982372284,-5.412564754486084,1.6271194219589233
1789033780785903400,3.4259033203125,2.321038007736206,-4.584648132324219,1.4452649354934692
1789033780795828700,3.435828857421875,4.694717884063721,-3.689732551574707,1.459621787071228
1789033780805754000,3.445754150390625,6.867401123046875,-3.1345977783203125,0.19621145725250244
1789033780815679700,3.4556796875,8.4562349319458,-2.7278177738189697,-1.7611174583435059
1789033780825605000,3.465605224609375,10.17428207397461,-2.579462766647339,-2.847458839416504
1789033780835530800,3.47553076171875,10.939985275268555,-1.765903115272522,-0.9044869542121887
1789033780845456100,3.4854560546875,10.226923942565918,-2.1918256282806396,2.0817556381225586
1789033780855381500,3.495381591796875,11.313265800476074,-4.101297855377197,4.321437835693359
1789033780865307100,3.50530712890625,10.98305606842041,-5.694917678833008,6.675975322723389
1789033780875232500,3.515232421875,9.844072341918945,-7.09711217880249,9.164510726928711
1789033780885158000,3.525157958984375,6.192625045776367,-6.857829570770264,12.40439224243164
1789033780895083500,3.53508349609375,-22.37767791748047,-2.9766714572906494,23.487947463989258
1789033780905009000,3.5450087890625,-45.865623474121094,3.90987229347229,26.143980026245117
1789033780914934300,3.554934326171875,-22.24367904663086,-2.7517459392547607,18.486948013305664
1789033780924860000,3.56485986328125,-3.728017568588257,-7.010970115661621,15.524633407592773
1789033780934785300,3.574785400390625,-4.622933387756348,-6.613761901855469,14.802000999450684
1789033780944711000,3.5847109375,-1.0528420209884644,-7.527820110321045,13.146167755126953
1789033780954636300,3.59463623046875,-0.2392822653055191,-6.087340831756592,9.767501831054688
1789033780964561700,3.604561767578125,-0.37806597352027893,-4.460221290588379,8.140382766723633
1789033780974487300,3.6144873046875,-0.3684946894645691,-1.5074782371520996,8.063812255859375
1789033780984412700,3.62441259765625,-0.9379864931106567,0.4163511395454407,6.680760860443115
1789033780994338000,3.634338134765625,-1.1389836072921753,1.765903115272522,5.60399055480957
1789033781004263700,3.644263671875,-2.100898265838623,3.345165967941284,6.369693756103516
1789033781014189000,3.65418896484375,-4.110869407653809,3.9912281036376953,6.297909259796143
1789033781024114400,3.664114501953125,-4.9052863121032715,4.584648132324219,6.173482418060303
1789033781034040000,3.6740400390625,-4.297509670257568,4.005585193634033,6.345765590667725
1789033781043965400,3.68396533203125,-0.9044869542121887,6.474977970123291,6.4319071769714355
1789033781053891000,3.69389111328125,-7.494320392608643,0.3684946894645691,3.335594654083252
1789033781063816400,3.70381640625,-6.714260101318359,5.077569484710693,6.647261142730713
1789033781073741800,3.713741943359375,-5.422136306762695,0.7848458290100098,8.882157325744629
1789033781083667500,3.72366748046875,-4.685146808624268,-1.1772687435150146,7.704888820648193
1789033781093592800,3.7335927734375,-5.31685209274292,-1.7515461444854736,10.408778190612793
1789033781103518200,3.743518310546875,-0.7992027401924133,-5.407779216766357,11.327622413635254
1789033781113443800,3.75344384765625,2.5842485427856445,-9.934999465942383,14.763715744018555
1789033781123369200,3.763369140625,-2.0243279933929443,-9.370293617248535,12.658031463623047
1789033781133294600,3.773294677734375,-4.6995038986206055,-11.839686393737793,9.944570541381836
1789033781143220200,3.78322021484375,-13.189238548278809,-4.211368083953857,0.22013968229293823
1789033781153145600,3.7931455078125,-1.7276179790496826,-28.761728286743164,8.484949111938477
1789033781163071200,3.8030712890625,7.326822757720947,-3.2207393646240234,16.204195022583008
1789033781172996600,3.81299658203125,1.6941183805465698,-14.529218673706055,16.22812271118164
1789033781182922000,3.822921875,-0.8087740540504456,-13.217952728271484,15.77827262878418
1789033781192847600,3.83284765625,-2.3784656524658203,-15.787843704223633,12.806386947631836
1789033781202773000,3.84277294921875,-5.225924491882324,-12.787243843078613,11.289337158203125
1789033781212698400,3.852698486328125,-5.527420520782471,-13.045668601989746,12.30389404296875
1789033781222624000,3.8626240234375,-5.446064472198486,-10.98305606842041,14.093725204467773
1789033781232549400,3.87254931640625,-6.613761901855469,-10.715060234069824,12.902099609375
1789033781242474800,3.882474853515625,-7.905886173248291,-11.303693771362305,11.935399055480957
1789033781252400400,3.892400390625,-3.627519130706787,-13.390235900878906,10.638489723205566
1789033781262325800,3.90232568359375,-1.2059825658798218,-12.715459823608398,9.968499183654785
1789033781272251400,3.91225146484375,-2.321038007736206,-11.327622413635254,11.672188758850098
1789033781282176800,3.9221767578125,-1.3112667798995972,-7.657032489776611,13.098311424255371
1789033781292102100,3.93210205078125,-2.0482561588287354,-10.246066093444824,9.647860527038574
1789033781302027800,3.94202783203125,-0.6843472719192505,-8.207381248474121,7.470392227172852
1789033781311953200,3.951953125,1.459621787071228,-5.704489231109619,14.141581535339355
1789033781321878500,3.96187841796875,10.202995300292969,-5.733202934265137,14.199009895324707
1789033781331804200,3.97180419921875,-21.391834259033203,2.5076780319213867,16.543975830078125
1789033781341729500,3.9817294921875,-11.006983757019043,3.7663028240203857,11.499905586242676
1789033781351655000,3.991655029296875,-10.13599681854248,1.430907964706421,11.68175983428955
1789033781361580500,4.00158056640625,-0.17228323221206665,2.287538528442383,13.552947044372559
1789033781371506000,4.011505859375,24.531217575073242,-3.201596736907959,5.5034918785095215
1789033781381431600,4.021431640625,-20.396419525146484,7.733603000640869,1.8185452222824097
1789033781391357000,4.03135693359375,-0.062213387340307236,5.623133182525635,6.144768714904785
1789033781401282300,4.0412822265625,0.5742774605751038,3.436093330383301,6.398407936096191
1789033781411208000,4.0512080078125,-3.7423746585845947,8.987442016601562,4.704289436340332
1789033781421133300,4.06113330078125,-4.6995038986206055,7.814958572387695,2.50289249420166
1789033781431058700,4.07105859375,-6.345765590667725,5.8719868659973145,3.1441688537597656
1789033781440984300,4.080984375,-2.909672260284424,5.06799840927124,3.0723843574523926
1789033781450909700,4.09090966796875,-2.2779672145843506,4.3788652420043945,1.277767300605774
1789033781460835000,4.1008349609375,-3.211168050765991,4.139583110809326,-0.43549370765686035
1789033781470760700,4.1107607421875,-4.106083869934082,4.876572608947754,-0.6843472719192505
1789033781480686000,4.12068603515625,-2.981456995010376,4.536791801452637,-1.3495519161224365
1789033781490611500,4.130611572265625,-3.3786656856536865,5.7858452796936035,-1.6462619304656982
1789033781500537000,4.140537109375,-2.124826431274414,6.441478729248047,2.1918256282806396
1789033781510462500,4.15046240234375,-4.924428939819336,5.723631858825684,2.2301106452941895
1789033781520388000,4.16038818359375,-7.752745151519775,2.4981069564819336,7.082755088806152
1789033781530313500,4.1703134765625,-9.298508644104004,3.8907296657562256,9.322437286376953
1789033781540238800,4.18023876953125,-3.972085475921631,-1.8089739084243774,20.559131622314453
1789033781550164500,4.19016455078125,-1.5840486288070679,-2.201396942138672,24.033510208129883
1789033781560089900,4.20008984375,1.8424733877182007,-13.270594596862793,19.807785034179688
1789033781570015200,4.21001513671875,-0.38285163044929504,-16.54876136779785,11.49512004852295
1789033781579940900,4.21994091796875,-0.8327022790908813,-18.644874572753906,10.691131591796875
1789033781589866200,4.2298662109375,-2.1535403728485107,-19.707286834716797,12.265608787536621
1789033781599791600,4.23979150390625,-2.445464849472046,-19.36750602722168,15.62991714477539
1789033781609717200,4.24971728515625,-2.100898265838623,-15.63948917388916,17.639888763427734
1789033781619642600,4.259642578125,-3.8668015003204346,-13.830514907836914,14.280365943908691
1789033781629568300,4.269568359375,-3.7471601963043213,-11.748759269714355,12.217752456665039
1789033781639493600,4.27949365234375,-3.5748770236968994,-10.317851066589355,9.408578872680664
1789033781649419000,4.2894189453125,-2.9862427711486816,-10.169496536254883,7.125825881958008
1789033781659344600,4.2993447265625,-3.775874137878418,-8.35573673248291,7.0061845779418945
1789033781669270000,4.30927001953125,-4.9052863121032715,-7.36032247543335,7.03489875793457
1789033781679195400,4.3191953125,-5.398207664489746,-6.4319071769714355,7.302894592285156
1789033781689121000,4.32912109375,-4.53200626373291,-5.723631858825684,6.446264266967773
1789033781699046400,4.33904638671875,-4.53200626373291,-5.723631858825684,6.446264266967773
1789033781710167000,4.3501669921875,-4.278367042541504,-10.39202880859375,1.674975872039795
1789033781720092400,4.360092529296875,-2.909672260284424,-13.246665954589844,-4.01037073135376
1789033781730017800,4.370017822265625,4.144368648529053,-19.312471389770508,-14.062618255615234
1789033781739943400,4.379943359375,11.219944953918457,-21.741186141967773,-13.426127433776855
1789033781749868800,4.389868896484375,7.377072334289551,-19.006189346313477,4.548755645751953
1789033781759794400,4.39979443359375,0.2847459018230438,-10.825129508972168,17.02971839904785
1789033781769719800,4.4097197265625,2.3234307765960693,-8.523234367370605,14.593825340270996
1789033781779645200,4.419645263671875,-0.8398807644844055,-7.247859954833984,13.25145149230957
1789033781789570800,4.42957080078125,-19.32443618774414,17.304893493652344,56.3701171875
1789033781799496200,4.43949609375,-12.263216018676758,4.78803825378418,30.384061813354492
1789033781809421600,4.449421630859375,-4.625326156616211,0.1339980661869049,12.710674285888672
1789033781819346700,4.4593466796875,-0.6939185857772827,5.127819061279297,15.524633407592773
1789033781829272300,4.469272216796875,-3.902693748474121,7.767102241516113,13.615160942077637
1789033781839197700,4.47919775390625,-5.663811206817627,8.508877754211426,10.411170959472656
1789033781849123000,4.489123046875,-5.546562671661377,8.193024635314941,10.054640769958496
1789033781859048700,4.499048583984375,-3.4719855785369873,6.240481376647949,7.152146816253662
1789033781868974000,4.50897412109375,-2.155933141708374,5.37906551361084,7.334001541137695
1789033781878899500,4.5188994140625,-1.9884356260299683,1.2969099283218384,4.319045066833496
1789033781888825000,4.5288251953125,-9.674181938171387,3.84765887260437,12.476177215576172
1789033781898750500,4.53875048828125,-8.702695846557617,1.2969099283218384,12.947563171386719
1789033781908675800,4.54867578125,-0.9810572862625122,-7.501499176025391,10.423135757446289
1789033781918601500,4.5586015625,0.8973084688186646,-12.117254257202148,6.673582553863525
1789033781928526800,4.56852685546875,-4.206582069396973,-13.612768173217773,7.8795647621154785
1789033781938452500,4.578452392578125,-2.785245656967163,-16.71147346496582,3.8572301864624023
1789033781948377900,4.5883779296875,-1.34476637840271,-18.979869842529297,0.9332008361816406
1789033781958303200,4.59830322265625,-3.452843189239502,-18.84108543395996,1.8352949619293213
1789033781968228600,4.608228515625,-7.015756130218506,-15.500704765319824,2.9838497638702393
1789033781978154200,4.618154296875,-1.5672988891601562,7.405786037445068,16.936399459838867
1789033781988079600,4.62807958984375,0.6340979933738708,-35.253456115722656,4.249652862548828
1789033781998005000,4.6380048828125,-4.785645484924316,-20.628524780273438,-8.93240737915039
1789033782007930600,4.6479306640625,-4.467400074005127,-15.945770263671875,3.981656789779663
1789033782017856000,4.65785595703125,-3.620340585708618,-12.52164077758789,7.0995049476623535
1789033782027781600,4.66778173828125,-4.297509670257568,-12.131610870361328,7.654639720916748
1789033782037707000,4.67770703125,-3.7088751792907715,-11.265409469604492,9.446864128112793
1789033782047632400,4.68763232421875,-3.1968109607696533,-9.970891952514648,9.21715259552002
1789033782057558000,4.69755810546875,-3.649054527282715,-8.248059272766113,9.755537986755371
1789033782067483400,4.7074833984375,-4.244867324829102,-6.647261142730713,5.726024627685547
1789033782077408800,4.71740869140625,-4.584648132324219,-3.4193434715270996,4.536791801452637
1789033782087334400,4.72733447265625,-5.340780258178711,-2.981456995010376,5.3934221267700195
1789033782097259800,4.737259765625,-4.9986066818237305,-3.9290146827697754,6.001199245452881
1789033782107185200,4.74718505859375,-3.562912940979004,-1.5984054803848267,7.7216386795043945
1789033782117110800,4.75711083984375,-0.08135596662759781,-3.996013879776001,8.030312538146973
1789033782127036200,4.7670361328125,-5.474778175354004,-3.4241292476654053,6.9104719161987305
1789033782136961500,4.77696142578125,-3.7495529651641846,-3.6370904445648193,7.015756130218506
1789033782146887200,4.78688720703125,-3.029313564300537,-3.830909013748169,7.685746192932129
1789033782156812500,4.7968125,-3.146561861038208,-4.42193603515625,7.3292155265808105
1789033782166738000,4.806738037109375,-2.9048867225646973,-4.634897232055664,6.975078105926514
1789033782176663600,4.81666357421875,-3.0891339778900146,-5.0703911781311035,6.118447303771973
1789033782186589000,4.8265888671875,-2.943171739578247,-5.398207664489746,5.699703693389893
1789033782196514300,4.836514404296875,-2.0650060176849365,-2.2779672145843506,6.374479293823242
1789033782206440000,4.84643994140625,-1.9597218036651611,-4.292723655700684,4.914857864379883
1789033782216365300,4.856365234375,-2.242074728012085,-4.278367042541504,5.8719868659973145
1789033782226290700,4.866290771484375,-3.452843189239502,-3.6849467754364014,5.824130535125732
1789033782236216300,4.87621630859375,-3.672982692718506,-3.814159393310547,6.400800704956055
1789033782246141700,4.8861416015625,-2.2325034141540527,-1.5601203441619873,5.79063081741333
1789033782256067000,4.896067138671875,-3.1202406883239746,5.979663848876953,6.072983741760254
1789033782265992700,4.90599267578125,-5.0225348472595215,11.126625061035156,4.555934429168701
1789033782275918000,4.91591796875,-4.563112735748291,13.586446762084961,4.371686935424805
1789033782285843500,4.925843505859375,-7.523034572601318,13.72523021697998,5.795416355133057
1789033782295769000,4.93576904296875,-16.15633773803711,-0.20099709928035736,3.201596736907959
1789033782305694500,4.945694580078125,-4.761716842651367,12.212966918945312,5.178068161010742
1789033782315619800,4.955619873046875,2.950350284576416,12.473784446716309,4.871787071228027
1789033782325545500,4.96554541015625,14.632110595703125,-32.96113204956055,4.460221290588379
1789033782335470800,4.975470947265625,-4.4721856117248535,-18.003597259521484,2.2396819591522217
1789033782345396500,4.985396484375,-8.889336585998535,29.27857780456543,4.043870449066162
1789033782355321900,4.99532177734375,-11.145768165588379,10.683953285217285,0.8662018179893494
1789033782365247200,5.005247314453125,1.9357935190200806,-17.32403564453125,2.7589244842529297
1789033782375172600,5.015172607421875,1.1988041400909424,-48.6269416809082,12.167503356933594
1789033782385098200,5.02509814453125,-15.017354965209961,-53.01777267456055,24.0670108795166
1789033782395023600,5.035023681640625,-3.34995174407959,-14.44068431854248,17.941383361816406
1789033782404949200,5.04494921875,-0.12203395366668701,-17.02971839904785,13.581661224365234
1789033782414874600,5.05487451171875,-1.100698471069336,-16.965112686157227,9.221938133239746
1789033782424800000,5.064800048828125,-4.541577339172363,-18.381664276123047,7.652246952056885
1789033782434725600,5.0747255859375,-5.726024627685547,-14.758930206298828,5.898307800292969
1789033782444651000,5.084651123046875,-4.615755081176758,-12.693923950195312,6.3529438972473145
1789033782454589700,5.094589599609375,-2.6081767082214355,-11.078768730163574,7.300501823425293
1789033782464515300,5.104515380859375,-0.5910272002220154,-9.726823806762695,6.589833736419678
1789033782474427400,5.114427490234375,1.765903115272522,-7.202396392822266,6.874579429626465
1789033782484352800,5.124352783203125,-3.0867412090301514,-6.3601226806640625,6.939185619354248
1789033782494278100,5.134278076171875,-3.5581271648406982,-5.371886730194092,6.671189308166504
1789033782504203800,5.144203857421875,-7.054041385650635,-4.6540398597717285,7.4847493171691895
1789033782514129200,5.154129150390625,-6.278766632080078,-2.4717857837677,7.427321434020996
1789033782524054800,5.1640546875,-4.500899314880371,-2.579462766647339,7.922635555267334
1789033782533980200,5.173980224609375,-2.9359934329986572,-3.744767427444458,8.197810173034668
1789033782543905500,5.183905517578125,-2.3736801147460938,-4.48414945602417,8.018348693847656
1789033782553831200,5.1938310546875,-2.7972097396850586,-4.981856822967529,7.762316703796387
1789033782563756500,5.203756591796875,-3.1345977783203125,-5.706881999969482,7.668996810913086
1789033782573682000,5.213681884765625,-2.9359934329986572,-6.175875186920166,7.726424217224121
1789033782583607600,5.223607666015625,-2.9048867225646973,-6.245266914367676,7.788637638092041
1789033782593533000,5.233532958984375,-3.0245277881622314,-6.369693756103516,7.82692289352417
1789033782603458300,5.243458251953125,-2.909672260284424,-6.230910301208496,7.7838521003723145
1789033782613384000,5.253384033203125,-2.416750907897949,-5.931807518005371,7.365108013153076
1789033782623309300,5.263309326171875,-1.9094724655151367,-5.6925249099731445,6.436692714691162
1789033782633234700,5.273234619140625,-2.2707886695861816,-5.795416355133057,6.154339790344238
1789033782643160000,5.28316015625,-2.988635540008545,-6.032305717468262,6.790830612182617
1789033782653085700,5.293085693359375,-3.656233072280884,-6.460621356964111,7.987242221832275
1789033782663011000,5.303010986328125,-2.940778970718384,-6.544369697570801,8.489734649658203
1789033782672936400,5.3129365234375,-2.1655044555664062,-6.896114826202393,7.9585280418396
1789033782682862000,5.322862060546875,-2.1128623485565186,-6.967899322509766,6.805187702178955
1789033782692787500,5.332787353515625,-2.902493953704834,-6.592226505279541,6.113661766052246
1789033782702713000,5.342713134765625,-2.9718856811523438,-6.080162525177002,6.173482418060303
1789033782712638500,5.352638427734375,-2.7804598808288574,-5.86002254486084,6.376872539520264
1789033782722564000,5.362564208984375,-2.6177480220794678,-5.764309883117676,6.860222339630127
1789033782732489500,5.372489501953125,-2.445464849472046,-5.836094379425049,7.1162543296813965
1789033782742414800,5.382414794921875,-2.3545374870300293,-6.068198204040527,7.238288402557373
1789033782752340200,5.39234033203125,-2.770888566970825,-6.276373863220215,7.300501823425293
1789033782762265900,5.402265869140625,-3.0340991020202637,-6.589833736419678,7.338787078857422
1789033782772191200,5.412191162109375,-3.046063184738159,-6.625725746154785,7.592426300048828
1789033782782116600,5.42211669921875,-2.65842604637146,-6.953542709350586,7.211967468261719
1789033782792042200,5.432042236328125,-2.4670002460479736,-6.965506553649902,6.618547439575195
1789033782801967600,5.441967529296875,-2.9838497638702393,-6.7310099601745605,6.295516490936279
1789033782811893200,5.451893310546875,-3.0939197540283203,-6.38883638381958,6.364908218383789
1789033782821818600,5.461818603515625,-2.675175666809082,-6.245266914367676,6.546762943267822
1789033782831744000,5.471743896484375,-2.5531418323516846,-6.159125328063965,6.996613502502441
1789033782841669400,5.48166943359375,-2.3952155113220215,-6.175875186920166,7.424928665161133
1789033782851595000,5.491594970703125,-2.7661030292510986,-6.369693756103516,7.314858913421631
1789033782861520400,5.501520263671875,-3.1657042503356934,-6.314659118652344,7.408178806304932
1789033782871446000,5.511446044921875,-3.1752755641937256,-6.197410583496094,7.369893550872803
1789033782881371400,5.521371337890625,-3.160918712615967,-5.874379634857178,7.501499176025391
1789033782891296800,5.531296875,-3.2518460750579834,-5.551348686218262,7.688138961791992
1789033782901222400,5.541222412109375,-3.266202926635742,-5.553741455078125,7.573283672332764
1789033782911147800,5.551147705078125,-3.2207393646240234,-5.592026710510254,7.331608772277832
1789033782921073200,5.5610732421875,-3.5150563716888428,-5.6925249099731445,7.417750358581543
1789033782930998800,5.570998779296875,-3.4911282062530518,-5.970092296600342,7.680960655212402
1789033782940924200,5.580924072265625,-3.218346357345581,-6.403193473815918,7.843672752380371
1789033782950849500,5.590849609375,-3.1824541091918945,-6.7621169090271,7.704888820648193
1789033782960775200,5.600775146484375,-3.13220477104187,-6.812366008758545,7.460821151733398
1789033782970700500,5.610700439453125,-4.206582069396973,-6.5874409675598145,7.8556365966796875
1789033782980626000,5.6206259765625,-4.785645484924316,-6.632904529571533,8.839086532592773
1789033782990551600,5.630551513671875,-3.8763725757598877,-6.757331371307373,9.643074989318848
1789033783000477000,5.640476806640625,-3.730410575866699,-6.953542709350586,9.868000984191895
1789033783010402300,5.65040234375,-3.0340991020202637,-7.101897716522217,8.461020469665527
1789033783020328000,5.660327880859375,-3.3332018852233887,-6.69990348815918,7.207181930541992
1789033783030253300,5.67025341796875,-3.9074792861938477,-5.881557941436768,7.03489875793457
1789033783040178700,5.6801787109375,-3.8261234760284424,-5.7858452796936035,6.960721015930176
1789033783050104300,5.690104248046875,-3.239881753921509,-5.831308841705322,6.857829570770264
1789033783060029700,5.70002978515625,-2.526820659637451,-5.670989513397217,6.52044153213501
1789033783069955000,5.709955078125,-2.407179594039917,-5.216353416442871,6.233303070068359
1789033783079880700,5.719880615234375,-2.5124638080596924,-5.053641319274902,6.089733600616455
1789033783089806000,5.72980615234375,-2.6177480220794678,-5.1876397132873535,6.5491557121276855
1789033783099731500,5.7397314453125,-2.6871397495269775,-5.723631858825684,6.960721015930176
1789033783109657000,5.749656982421875,-2.3018953800201416,-6.168696880340576,7.250252723693848
1789033783119582500,5.75958251953125,-2.2540390491485596,-6.446264266967773,7.1234331130981445
1789033783129508000,5.769508056640625,-2.6225335597991943,-6.491727828979492,6.807580471038818
1789033783139433500,5.77943359375,-2.775674343109131,-6.369693756103516,6.8482584953308105
1789033783149358800,5.78935888671875,-2.8283164501190186,-6.151947021484375,7.094718933105469
1789033783159284500,5.799284423828125,-3.136990547180176,-6.199803352355957,6.991827964782715
1789033783169209900,5.8092099609375,-3.108276605606079,-6.369693756103516,7.003791809082031
1789033783179135200,5.81913525390625,-3.428914785385132,-7.546962738037109,7.223931789398193
1789033783189060900,5.829060791015625,-3.7232320308685303,-8.549555778503418,8.063812255859375
1789033783198986200,5.838986328125,-3.9385859966278076,-8.908478736877441,9.207581520080566
1789033783208911600,5.84891162109375,-3.3930225372314453,-8.300702095031738,9.753145217895508
1789033783218837200,5.858837158203125,-2.6153552532196045,-7.3914289474487305,9.030512809753418
1789033783228762600,5.8687626953125,-3.4648072719573975,-6.297909259796143,7.814958572387695
1789033783238688000,5.87868798828125,-4.7712883949279785,-5.216353416442871,7.609176158905029
1789033783248613600,5.888613525390625,-4.6995038986206055,-4.634897232055664,8.001599311828613
1789033783258539000,5.8985390625,-3.5365917682647705,-4.890929698944092,8.118846893310547
1789033783268464400,5.90846435546875,-2.823530673980713,-5.352744102478027,7.994420528411865
1789033783278390000,5.91839013671875,-2.7828526496887207,-5.78345251083374,7.17368221282959
1789033783288315400,5.9283154296875,-3.9314076900482178,-6.104090690612793,6.345765590667725
1789033783298241000,5.938240966796875,-4.572684288024902,-6.238088607788086,6.190232276916504
1789033783308166400,5.94816650390625,-4.486542224884033,-5.941378593444824,6.585047721862793
1789033783318091800,5.958091796875,-3.335594654083252,-5.544169902801514,6.616154670715332
1789033783328017400,5.968017333984375,-2.3976082801818848,-5.546562671661377,6.238088607788086
1789033783337942800,5.97794287109375,-3.5341989994049072,-5.874379634857178,6.776473522186279
1789033783347868200,5.9878681640625,-5.1804609298706055,-6.166304111480713,9.09990406036377
1789033783357793500,5.99779345703125,-6.7621169090271,-7.668996810913086,12.79442310333252
1789033783367719200,6.00771923828125,-5.079962253570557,-9.53061294555664,14.423934936523438
1789033783377644500,6.01764453125,-3.656233072280884,-10.305887222290039,11.72004508972168
1789033783387570200,6.027570068359375,-3.9361932277679443,-10.535597801208496,7.561319351196289
1789033783397495600,6.03749560546875,-4.718646049499512,-9.805787086486816,5.312066078186035
1789033783407421000,6.0474208984375,-5.938985824584961,-8.549555778503418,5.489135265350342
1789033783417346600,6.0573466796875,-5.051248550415039,-7.338787078857422,7.130611419677734
1789033783427272000,6.06727197265625,-3.4719855785369873,-6.865008354187012,8.47298526763916
1789033783437197300,6.077197265625,-2.4430718421936035,-6.539584159851074,8.745766639709473
1789033783447123000,6.087123046875,-2.2707886695861816,-6.307480335235596,7.989634990692139
1789033783457048300,6.09704833984375,-1.97407865524292,-5.867201328277588,6.865008354187012
1789033783466973700,6.1069736328125,-2.4646072387695312,-5.443671703338623,5.283352375030518
1789033783476899300,6.1168994140625,-2.5124638080596924,-4.910071849822998,3.7567315101623535
1789033783486824700,6.12682470703125,-2.282752752304077,-4.316651821136475,2.706282377243042
1789033783496750300,6.136750244140625,-1.832902193069458,-3.2590243816375732,2.6368906497955322
1789033783506675700,6.14667578125,-2.0267207622528076,-2.2947168350219727,2.857030153274536
1789033783516601000,6.15660107421875,-2.981456995010376,-2.287538528442383,3.4432718753814697
1789033783526526700,6.166526611328125,-3.4002010822296143,-2.8522446155548096,4.529613494873047
1789033783536452000,6.1764521484375,-2.723032236099243,-3.452843189239502,5.795416355133057
1789033783546377500,6.18637744140625,-2.00518536567688,-3.2590243816375732,7.133004188537598
1789033783556303000,6.19630322265625,-2.321038007736206,-3.5126636028289795,7.223931789398193
1789033783566228500,6.206228515625,-1.7587246894836426,-5.020142078399658,6.664011001586914
1789033783576153900,6.21615380859375,-2.940778970718384,-5.709274768829346,7.769495010375977
1789033783586079500,6.22607958984375,-5.651846885681152,-5.185246467590332,10.52363395690918
1789033783596004900,6.2360048828125,-6.6831536293029785,-6.463014125823975,12.44985580444336
1789033783605930500,6.245930419921875,-4.488935470581055,-8.346165657043457,11.69133186340332
1789033783615855900,6.25585595703125,-2.7661030292510986,-8.149953842163086,9.018548965454102
1789033783625781200,6.26578125,-4.41475772857666,-5.862415313720703,7.592426300048828
1789033783635707000,6.275706787109375,-7.324429988861084,-4.589433670043945,7.688138961791992
1789033783645632300,6.28563232421875,-7.082755088806152,-4.402793884277344,8.568697929382324
1789033783655557600,6.2955576171875,-3.1489546298980713,-5.876772403717041,8.338987350463867
1789033783665483300,6.305483154296875,-1.0600204467773438,-7.408178806304932,7.719245910644531
1789033783675408600,6.31540869140625,-2.053041934967041,-7.9489569664001465,7.070790767669678
1789033783685334000,6.325333984375,-4.328616142272949,-7.731209754943848,7.087540626525879
1789033783695259600,6.335259765625,-6.400800704956055,-7.51585578918457,6.946363925933838
1789033783705185000,6.34518505859375,-6.455835342407227,-8.173882484436035,6.8410797119140625
1789033783715110700,6.355110595703125,-3.737588882446289,-8.965906143188477,6.515655994415283
1789033783725036000,6.3650361328125,-1.0049854516983032,-8.3629150390625,5.058426856994629
1789033783734961400,6.37496142578125,-1.3519448041915894,-6.254838466644287,3.9601213932037354
1789033783744887000,6.384886962890625,-4.108476638793945,-4.845465660095215,4.350151538848877
1789033783754812400,6.3948125,-6.0610198974609375,-4.60139799118042,6.69990348815918
1789033783764737800,6.40473779296875,-4.405186653137207,-5.441278457641602,9.377471923828125
1789033783774663400,6.414663330078125,-0.20338992774486542,-7.525427341461182,9.56889820098877
1789033783784588800,6.4245888671875,0.019142581149935722,-8.664410591125488,7.027719974517822
1789033783794514200,6.43451416015625,-3.077169895172119,-8.260024070739746,4.175475597381592
1789033783804439800,6.444439697265625,-5.166104316711426,-6.786045074462891,3.1345977783203125
1789033783814365200,6.454365234375,-2.5196423530578613,-5.97727108001709,1.7850457429885864
1789033783824290800,6.464290771484375,-0.760917603969574,-5.240281581878662,0.6939185857772827
1789033783834216200,6.47421630859375,-2.416750907897949,-4.287938117980957,1.0001999139785767
1789033783844141600,6.4841416015625,-3.689732551574707,-3.924229145050049,2.706282377243042
1789033783854067200,6.494067138671875,-4.163511276245117,-4.374079704284668,6.175875186920166
1789033783863992600,6.50399267578125,-4.575077056884766,-5.623133182525635,9.69093132019043
1789033783873918000,6.51391796875,-4.218546390533447,-6.948757171630859,12.483355522155762
1789033783883843600,6.523843505859375,-3.3236305713653564,-7.5637125968933105,12.744173049926758
1789033783893769000,6.53376904296875,-4.426722049713135,-8.030312538146973,11.133803367614746
1789033783903694300,6.5436943359375,-5.656632900238037,-8.02791976928711,9.824930191040039
1789033783913620000,6.553619873046875,-6.4079790115356445,-7.456035137176514,10.585846900939941
1789033783923545300,6.56354541015625,-6.056233882904053,-6.876972198486328,10.14317512512207
1789033783933470700,6.573470703125,-6.120840549468994,-6.300302028656006,10.047462463378906
1789033783943396400,6.583396240234375,-5.759523868560791,-5.9437713623046875,9.279366493225098
1789033783953321700,6.59332177734375,-4.986642360687256,-5.953342914581299,7.642675399780273
1789033783963247400,6.603247314453125,-4.216153621673584,-6.338587284088135,6.551548480987549
1789033783973172700,6.6131728515625,-3.814159393310547,-6.829115867614746,6.424728870391846
1789033783983098000,6.62309814453125,-3.9146578311920166,-7.171289443969727,7.288537979125977
1789033783993023700,6.633023681640625,-4.515256404876709,-7.575676441192627,8.599804878234863
1789033784002949000,6.64294921875,-5.134997367858887,-7.83410120010376,9.779465675354004
1789033784012874500,6.65287451171875,-5.101497650146484,-7.970492362976074,9.695717811584473
1789033784022800100,6.662800048828125,-6.049055576324463,-8.719446182250977,9.274580955505371
1789033784032725500,6.6727255859375,-5.941378593444824,-8.774480819702148,8.367700576782227
1789033784042651000,6.68265087890625,-4.790431022644043,-8.331808090209961,7.551748275756836
1789033784052576500,6.692576416015625,-4.163511276245117,-7.441678524017334,7.905886173248291
1789033784062502000,6.702501953125,-3.792623996734619,-6.4941205978393555,8.82233715057373
1789033784072427500,6.712427490234375,-3.5748770236968994,-5.960521221160889,9.992427825927734
1789033784082353000,6.722352783203125,-3.9672999382019043,-5.898307800292969,11.028519630432129
1789033784092278300,6.7322783203125,-4.591826438903809,-6.089733600616455,10.861021995544434
1789033784102204000,6.742203857421875,-4.661218643188477,-6.187839508056641,9.994820594787598
1789033784112129300,6.75212939453125,-4.125226020812988,-6.317051887512207,9.221938133239746
1789033784122055000,6.762054931640625,-3.830909013748169,-6.123233318328857,8.858229637145996
1789033784131980300,6.771980224609375,-4.051048755645752,-5.838487148284912,8.894122123718262
1789033784141905700,6.78190576171875,-4.680361270904541,-5.493920803070068,8.973084449768066
1789033784151831300,6.791831298828125,-5.276174068450928,-5.395814895629883,9.315258979797363
1789033784161756700,6.801756591796875,-5.6685967445373535,-5.38624382019043,9.58325481414795
1789033784171682000,6.81168212890625,-5.584847927093506,-5.678168296813965,9.506684303283691
1789033784181607700,6.821607666015625,-4.845465660095215,-5.60399055480957,9.128618240356445
1789033784191533000,6.831532958984375,-4.192225456237793,-5.627918720245361,8.207381248474121
1789033784201458400,6.84145849609375,-3.046063184738159,-5.5345988273620605,7.109076023101807
1789033784211384000,6.851384033203125,-2.3306093215942383,-4.876572608947754,6.3529438972473145
1789033784221309400,6.861309326171875,-2.3545374870300293,-4.053441524505615,5.642275810241699
1789033784231235000,6.871235107421875,-2.7349963188171387,-2.8833513259887695,5.304887771606445
1789033784241160400,6.881160400390625,-3.2829527854919434,-2.9862427711486816,4.534399032592773
1789033784251085800,6.8910859375,-3.4911282062530518,-2.9551360607147217,4.388436794281006
1789033784261011500,6.901011474609375,-4.12761926651001,-2.847458839416504,4.299902439117432
1789033784270936800,6.910936767578125,-3.2757742404937744,-2.6081767082214355,4.084548473358154
1789033784280862200,6.9208623046875,-2.2468605041503906,-1.246660590171814,4.646861553192139
1789033784290787800,6.930787841796875,-2.6057839393615723,-2.912065267562866,3.077169895172119
1789033784300713200,6.940713134765625,-4.216153621673584,-2.4047868251800537,4.3310089111328125
1789033784310638600,6.950638671875,-5.264209747314453,-1.4141582250595093,5.714060306549072
1789033784320564200,6.960564208984375,-4.579862594604492,-1.4117653369903564,6.142375946044922
1789033784330489600,6.970489501953125,-3.3714871406555176,-1.9166508913040161,5.838487148284912
1789033784340415200,6.980415283203125,-3.077169895172119,-2.4191436767578125,4.914857864379883
1789033784350340600,6.990340576171875,-3.366701364517212,-2.5076780319213867,3.9696927070617676
1789033784360266000,7.000265869140625,-3.9936211109161377,-2.3497519493103027,3.493520975112915
1789033784370191600,7.010191650390625,-4.297509670257568,-1.643869161605835,3.314059257507324
1789033784380117000,7.020116943359375,-4.264009952545166,-1.031306505203247,3.3882367610931396
1789033784390042600,7.030042724609375,-3.7184464931488037,-0.9020941257476807,3.641875982284546
1789033784399968000,7.039968017578125,-2.3856441974639893,-1.4141582250595093,3.517449378967285
1789033784409893400,7.049893310546875,-2.2851455211639404,-1.8496519327163696,3.783052682876587
1789033784419818800,7.05981884765625,-3.5198421478271484,-1.7539390325546265,4.926821708679199
1789033784429744400,7.069744384765625,-4.4243292808532715,-1.490728497505188,6.1710896492004395
1789033784439669800,7.079669677734375,-4.261617183685303,-1.466800332069397,6.340980052947998
1789033784449595400,7.089595458984375,-3.8811583518981934,-1.7994025945663452,5.661418437957764
1789033784459520800,7.099520751953125,-3.3403804302215576,-2.337787628173828,4.941178798675537
1789033784469446100,7.109446044921875,-3.139383316040039,-2.8450660705566406,4.730610370635986
1789033784479371800,7.119371826171875,-3.713660717010498,-3.005385160446167,5.474778175354004
1789033784489297200,7.129297119140625,-4.144368648529053,-2.902493953704834,6.996613502502441
1789033784499222800,7.139222900390625,-4.060619831085205,-3.311666488647461,8.047062873840332
1789033784509148200,7.149148193359375,-4.398007869720459,-4.199403762817383,8.585447311401367
1789033784519073500,7.159073486328125,-4.680361270904541,-5.091926574707031,9.09990406036377
1789033784528999200,7.168999267578125,-4.534399032592773,-6.025127410888672,9.521040916442871
1789033784538924500,7.178924560546875,-4.529613494873047,-6.721438884735107,9.734002113342285
1789033784548850200,7.18885009765625,-4.374079704284668,-7.133004188537598,9.609575271606445
1789033784558775600,7.198775634765625,-4.2281174659729,-7.085147857666016,9.343972206115723
1789033784568701000,7.208700927734375,-3.452843189239502,-7.219145774841309,9.030512809753418
1789033784578626600,7.21862646484375,-3.2829527854919434,-7.386643409729004,8.666803359985352
1789033784588552000,7.228552001953125,-4.132404804229736,-7.3292155265808105,8.824729919433594
1789033784598477300,7.238477294921875,-5.1876397132873535,-6.781259536743164,10.023533821105957
1789033784608403000,7.24840283203125,-4.886143684387207,-6.661618232727051,10.77248764038086
1789033784618328300,7.258328369140625,-3.1824541091918945,-7.015756130218506,9.994820594787598
1789033784628253700,7.268253662109375,-2.368894338607788,-7.513463020324707,8.35573673248291
1789033784638179300,7.278179443359375,-3.2135608196258545,-7.22871732711792,6.948757171630859
1789033784648104700,7.288104736328125,-4.989035129547119,-6.0777692794799805,7.152146816253662
1789033784658030300,7.2980302734375,-5.812166213989258,-5.223531723022461,7.850851058959961
1789033784667955700,7.307955810546875,-4.8574299812316895,-5.146961688995361,9.097511291503906
1789033784677881000,7.317881103515625,-4.177868366241455,-6.111268997192383,10.420742988586426
1789033784687806700,7.327806640625,-4.876572608947754,-7.025327205657959,11.011770248413086
1789033784697732000,7.337732177734375,-4.649254322052002,-7.322037220001221,11.236695289611816
1789033784707657700,7.34765771484375,-4.060619831085205,-7.331608772277832,10.870593070983887
1789033784717583000,7.3575830078125,-3.7160534858703613,-7.314858913421631,9.418149948120117
1789033784727508500,7.367508544921875,-3.845266103744507,-6.922435760498047,8.470592498779297
1789033784737434000,7.37743408203125,-4.840680122375488,-6.376872539520264,8.279166221618652
1789033784747359500,7.387359375,-5.814558982849121,-5.962913990020752,8.831908226013184
1789033784757284900,7.397284912109375,-6.032305717468262,-6.3601226806640625,9.281759262084961
1789033784767210500,7.40721044921875,-5.757131099700928,-6.905686378479004,9.157332420349121
1789033784777135900,7.417135986328125,-5.917450428009033,-6.9822564125061035,8.719446182250977
1789033784787061500,7.4270615234375,-7.365108013153076,-6.4510498046875,9.243474006652832
1789033784796987000,7.43698681640625,-5.781059741973877,-6.223731517791748,9.667003631591797
1789033784806912300,7.446912353515625,-2.6249263286590576,-5.757131099700928,10.470992088317871
1789033784816838000,7.456837890625,0.45942193269729614,-5.680561065673828,9.774680137634277
1789033784826763300,7.46676318359375,1.7204394340515137,-6.654439926147461,7.250252723693848
1789033784836688600,7.476688720703125,0.5312066078186035,-7.8388872146606445,5.2043890953063965
1789033784846614300,7.4866142578125,-2.3976082801818848,-7.597211837768555,5.374279499053955
1789033784856539600,7.49653955078125,-4.902893543243408,-6.7932233810424805,6.331408500671387
1789033784866465300,7.50646533203125,-5.903093338012695,-5.982056617736816,7.085147857666016
1789033784876390700,7.516390625,-6.185446739196777,-5.4556355476379395,7.917850017547607
1789033784886316000,7.52631591796875,-5.66620397567749,-5.362315654754639,8.71226692199707
1789033784896241700,7.53624169921875,-4.515256404876709,-5.374279499053955,9.078369140625
1789033784906167000,7.5461669921875,-3.7782669067382812,-5.8097734451293945,9.597611427307129
1789033784916092700,7.5560927734375,-2.5076780319213867,-6.3529438972473145,10.6624174118042
1789033784926018000,7.56601806640625,-1.5170495510101318,-6.515655994415283,11.880364418029785
1789033784935943400,7.575943359375,-0.6125625967979431,-6.3361945152282715,11.753544807434082
1789033784945869000,7.585869140625,-0.727418065071106,-6.252445697784424,10.935199737548828
1789033784955794400,7.59579443359375,-3.761517286300659,-6.527620315551758,8.707481384277344
1789033784965719800,7.6057197265625,-5.32403039932251,-5.764309883117676,7.869993686676025
1789033784975645400,7.6156455078125,-6.235695838928223,-5.017749309539795,7.444071292877197
1789033784985570800,7.62557080078125,-6.922435760498047,-4.460221290588379,7.317251682281494
1789033784995496200,7.63549609375,-7.070790767669678,-4.247260093688965,7.618747234344482
1789033785005421800,7.645421875,-6.288337707519531,-4.278367042541504,8.441878318786621
1789033785015347200,7.65534716796875,-5.099104881286621,-4.388436794281006,9.580862045288086
1789033785025272800,7.66527294921875,-3.4576287269592285,-4.764110088348389,10.614561080932617
1789033785035198200,7.6751982421875,-2.2779672145843506,-5.065605640411377,11.382657051086426
1789033785045123600,7.68512353515625,-2.3401806354522705,-5.8337016105651855,10.64088249206543
1789033785055049200,7.69504931640625,-3.1896326541900635,-6.130411624908447,9.260223388671875
1789033785064974600,7.704974609375,-4.285545349121094,-5.883950710296631,8.073383331298828
1789033785074900200,7.714900146484375,-4.7401814460754395,-5.280959606170654,6.570691108703613
1789033785084825600,7.72482568359375,-3.3954153060913086,-4.505684852600098,5.589633464813232
1789033785094751000,7.7347509765625,-1.2610175609588623,-3.9601213932037354,5.0225348472595215
1789033785104676600,7.744676513671875,-0.5288137793540955,-3.603590965270996,5.077569484710693
1789033785114602000,7.75460205078125,-1.9716858863830566,-3.2925238609313965,5.132604598999023
1789033785124527400,7.76452734375,-3.7567315101623535,-3.077169895172119,4.718646049499512
1789033785134453000,7.774452880859375,-3.8021950721740723,-2.423929452896118,4.35254430770874
1789033785144378400,7.78437841796875,-2.8283164501190186,-3.0412776470184326,3.3403804302215576
1789033785154303700,7.7943037109375,-2.833101987838745,-2.510071039199829,4.383651256561279
1789033785164229400,7.8042294921875,-2.6009981632232666,-2.833101987838745,4.304687976837158
1789033785174154800,7.81415478515625,-2.4670002460479736,-2.7804598808288574,3.950550079345703
1789033785184080400,7.824080322265625,-3.043670415878296,-2.3473589420318604,3.4719855785369873
1789033785194005800,7.834005859375,-2.7517459392547607,-2.5076780319213867,3.0652058124542236
1789033785203931100,7.84393115234375,-3.5605201721191406,-1.155733346939087,3.8763725757598877
1789033785213856800,7.853856689453125,-3.081955671310425,-1.459621787071228,4.0797624588012695
1789033785223782100,7.8637822265625,-2.801995277404785,-1.5361921787261963,4.4482574462890625
1789033785233707800,7.873707763671875,-3.431307554244995,-1.6558332443237305,4.73300313949585
1789033785243633200,7.883633056640625,-4.0079779624938965,-1.7012969255447388,4.965106964111328
1789033785253558500,7.89355859375,-3.5198421478271484,-2.1296122074127197,5.142175674438477
1789033785263484200,7.903484130859375,-3.211168050765991,-2.4502503871917725,5.436492919921875
1789033785273409500,7.913409423828125,-3.3858439922332764,-2.7804598808288574,5.599205017089844
1789033785283335000,7.9233349609375,-4.232903480529785,-2.816352367401123,5.764309883117676
1789033785293260500,7.933260498046875,-4.661218643188477,-2.8737800121307373,5.79780912399292
1789033785303186000,7.94318603515625,-4.505684852600098,-2.9551360607147217,6.013163089752197
1789033785313111300,7.953111328125,-4.3549370765686035,-3.1250264644622803,6.3122663497924805
1789033785323037000,7.963036865234375,-4.01037073135376,-3.469592809677124,6.594619274139404
1789033785332962300,7.97296240234375,-3.3714871406555176,-4.182653903961182,6.5491557121276855
1789033785342888000,7.982887939453125,-3.3643085956573486,-4.680361270904541,6.788437843322754
1789033785352813300,7.992813232421875,-4.323830604553223,-4.9363932609558105,7.439285755157471
1789033785362738700,8.00273876953125,-5.4867424964904785,-5.087141036987305,8.214560508728027
1789033785372664300,8.012664306640625,-5.9437713623046875,-5.335994720458984,8.817551612854004
1789033785382589700,8.022589599609375,-5.271388053894043,-5.888736724853516,9.128618240356445
1789033785392515000,8.03251513671875,-4.529613494873047,-6.419943332672119,9.241081237792969
1789033785402440700,8.042440673828125,-3.25663161277771,-6.781259536743164,9.157332420349121
1789033785412366000,8.052365966796875,-2.801995277404785,-7.231110095977783,8.918049812316895
1789033785422291500,8.06229150390625,-2.9934210777282715,-7.45364236831665,8.669196128845215
1789033785432217000,8.072217041015625,-3.6370904445648193,-7.542177200317383,8.738588333129883
1789033785442142500,8.082142578125,-4.180261135101318,-7.133004188537598,9.008976936340332
1789033785452068000,8.092068115234374,-4.309473514556885,-6.685546398162842,9.248259544372559
1789033785461993500,8.101993408203125,-3.8835511207580566,-6.412764549255371,9.09272575378418
1789033785471918800,8.1119189453125,-3.7878382205963135,-6.259624004364014,9.030512809753418
1789033785481844500,8.121844482421874,-3.893122434616089,-6.309873104095459,8.915657043457031
1789033785491769900,8.131769775390625,-3.586841106414795,-6.740581512451172,8.542376518249512
1789033785501695500,8.141695556640625,-4.153940200805664,-6.604190349578857,8.516056060791016
1789033785511620900,8.151620849609374,-4.508078098297119,-6.290730953216553,9.09272575378418
1789033785521546200,8.161546142578125,-4.086941242218018,-6.498906135559082,9.56650447845459
1789033785531472000,8.171471923828125,-4.084548473358154,-7.135396957397461,9.549755096435547
1789033785541397200,8.181397216796874,-3.9601213932037354,-7.499105930328369,9.492327690124512
1789033785551322600,8.191322509765625,-3.809373617172241,-7.585247993469238,9.789037704467773
1789033785561248300,8.201248291015625,-3.8907296657562256,-7.456035137176514,10.109675407409668
1789033785571173600,8.211173583984374,-3.9529430866241455,-7.0923261642456055,10.119247436523438
1789033785581099000,8.22109912109375,-3.8979079723358154,-6.774080753326416,10.00439167022705
1789033785591024600,8.231024658203125,-3.9625144004821777,-6.5252275466918945,9.592825889587402
1789033785600950000,8.240949951171874,-4.319045066833496,-6.295516490936279,9.329615592956543
1789033785610875600,8.250875732421875,-4.089334011077881,-6.2189459800720215,9.042476654052734
1789033785620801000,8.260801025390625,-4.039084434509277,-6.2428741455078125,8.784051895141602
1789033785630726400,8.270726318359374,-4.455435752868652,-6.3122663497924805,8.6907320022583
1789033785640652000,8.280652099609375,-4.9531426429748535,-6.654439926147461,8.707481384277344
1789033785650577400,8.290577392578125,-4.852644443511963,-6.915257453918457,8.295916557312012
1789033785660502800,8.300502685546874,-4.333401679992676,-6.58265495300293,7.858029365539551
1789033785670428400,8.310428466796875,-3.579662561416626,-6.175875186920166,7.307680130004883
1789033785680353800,8.320353759765625,-2.4981069564819336,-5.9676995277404785,6.965506553649902
1789033785690279200,8.330279052734374,-1.770688772201538,-5.905486106872559,6.8482584953308105
1789033785708935700,8.348935791015625,-2.5220351219177246,-5.551348686218262,7.503891944885254
1789033785718861000,8.358861083984374,-2.9766714572906494,-5.556134223937988,7.848458290100098
1789033785728786400,8.368786376953125,-3.9146578311920166,-6.015556335449219,8.475378036499023
1789033785738712000,8.378712158203125,-3.895515203475952,-6.226124286651611,9.016156196594238
1789033785748637400,8.388637451171874,-3.445664644241333,-6.350551128387451,9.355937004089355
1789033785758562800,8.398562744140625,-3.0628130435943604,-6.551548480987549,9.781859397888184
1789033785768488400,8.408488525390625,-3.0484559535980225,-6.776473522186279,10.461421012878418
1789033785778413800,8.418413818359374,-3.081955671310425,-6.809973239898682,10.494919776916504
1789033785788339500,8.42833935546875,-2.770888566970825,-6.508477687835693,10.164710998535156
1789033785798264800,8.438264892578125,-2.7278177738189697,-6.211767673492432,9.485149383544922
1789033785808190200,8.448190185546874,-2.775674343109131,-5.733202934265137,9.42772102355957
1789033785818115800,8.45811572265625,-3.9625144004821777,-5.675775527954102,8.695517539978027
1789033785828041200,8.468041259765625,-5.312066078186035,-5.996413707733154,8.37966537475586
1789033785837966600,8.477966552734374,-5.97727108001709,-6.178267955780029,8.537590980529785
1789033785847892200,8.487892333984375,-5.3694939613342285,-6.297909259796143,8.63330364227295
1789033785857817600,8.497817626953125,-4.455435752868652,-6.340980052947998,8.666803359985352
1789033785867743000,8.507742919921874,-4.048655986785889,-6.197410583496094,8.609375953674316
1789033785877668600,8.517668701171875,-3.8811583518981934,-5.8959150314331055,8.556734085083008
1789033785887594000,8.527593994140625,-3.78544545173645,-5.752345561981201,8.236095428466797
1789033785897519600,8.53751953125,-3.5844483375549316,-5.608776092529297,7.269395351409912
1789033785907445000,8.547445068359375,-3.201596736907959,-5.029713153839111,7.240681171417236
1789033785917370400,8.557370361328125,-3.211168050765991,-4.59421968460083,7.690532207489014
1789033785927296000,8.5672958984375,-3.2829527854919434,-4.3788652420043945,7.776673793792725
1789033785937221400,8.577221435546875,-3.4552359580993652,-3.9433717727661133,7.542177200317383
1789033785947146800,8.587146728515625,-3.407379388809204,-3.407379388809204,6.685546398162842
1789033785957072400,8.597072265625,-3.10109806060791,-3.4743785858154297,5.876772403717041
1789033785966997800,8.606997802734375,-2.053041934967041,-3.627519130706787,4.785645484924316
1789033785976923100,8.616923095703125,-0.8997012972831726,-3.187239646911621,4.393222332000732
1789033785986848800,8.626848876953124,-1.2251251935958862,-2.517249345779419,4.479363918304443
1789033785996774100,8.636774169921875,-2.794816732406616,-2.196611166000366,4.6995038986206055
1789033786006699500,8.646699462890625,-3.8428730964660645,-2.5124638080596924,4.3788652420043945
1789033786016625200,8.656625244140624,-3.263810157775879,-2.56510591506958,4.948357105255127
1789033786026550500,8.666550537109375,-2.210968017578125,-2.9718856811523438,4.498506546020508
1789033786036476200,8.67647607421875,-2.0721843242645264,-2.416750907897949,4.498506546020508
1789033786046401500,8.686401611328124,-2.0673987865448,-2.1056840419769287,4.077369689941406
1789033786056327000,8.696326904296875,-2.799602508544922,-1.8472590446472168,3.4025938510894775
1789033786066252500,8.70625244140625,-3.3403804302215576,-1.679761528968811,3.3068809509277344
1789033786076178000,8.716177978515624,-3.862015724182129,-1.5026925802230835,4.374079704284668
1789033786086103300,8.726103271484375,-4.058227062225342,-1.430907964706421,5.2354960441589355
1789033786096029000,8.73602880859375,-3.6610186100006104,-1.679761528968811,5.584847927093506
1789033786105954300,8.745954345703124,-2.775674343109131,-2.053041934967041,5.010570526123047
1789033786115879700,8.755879638671875,-2.699103832244873,-2.3306093215942383,4.54636287689209
1789033786125805300,8.765805419921875,-3.1202406883239746,-2.6847469806671143,4.268795490264893
1789033786135730700,8.775730712890624,-3.8189449310302734,-2.761317253112793,4.60857629776001
1789033786145656300,8.78565625,-4.077369689941406,-2.9383862018585205,5.015356063842773
1789033786155581700,8.795581787109375,-3.8907296657562256,-2.909672260284424,5.680561065673828
1789033786165507000,8.805507080078126,-3.8524444103240967,-2.967100143432617,6.211767673492432
1789033786175432700,8.8154326171875,-4.106083869934082,-3.1106693744659424,6.92482852935791
1789033786185358000,8.825358154296875,-4.6372904777526855,-3.2303106784820557,7.901100158691406
1789033786195283500,8.835283447265626,-4.814359188079834,-3.8907296657562256,8.461020469665527
1789033786205209000,8.845208984375,-4.512863636016846,-4.804787635803223,8.858229637145996
1789033786215134500,8.855134521484375,-4.249652862548828,-5.742774486541748,8.973084449768066
1789033786225059800,8.865059814453126,-4.273581027984619,-6.221338748931885,9.21715259552002
1789033786234985500,8.8749853515625,-4.321437835693359,-6.608976364135742,8.786444664001465
1789033786244910800,8.884910888671875,-4.158725738525391,-6.891329288482666,8.446663856506348
1789033786254836500,8.89483642578125,-3.9050865173339844,-6.867401123046875,8.374878883361816
1789033786264761900,8.904761962890625,-3.8428730964660645,-6.671189308166504,8.394021987915039
1789033786274687200,8.914687255859375,-3.4121651649475098,-6.594619274139404,8.906085968017578
1789033786284612900,8.92461279296875,-2.919243574142456,-6.7621169090271,9.126225471496582
1789033786294538200,8.934538330078125,-2.493321180343628,-6.872186660766602,9.049654960632324
1789033786304463600,8.944463623046875,-2.1678972244262695,-6.671189308166504,8.475378036499023
1789033786314389200,8.95438916015625,-2.809173822402954,-6.278766632080078,8.303094863891602
1789033786324314600,8.964314697265625,-3.7950167655944824,-5.8337016105651855,8.537590980529785
1789033786334240000,8.974239990234375,-4.565505504608154,-5.335994720458984,8.724231719970703
1789033786344165400,8.984165283203126,-3.82373046875,-5.283352375030518,9.298508644104004
1789033786354090800,8.9940908203125,-3.3786656856536865,-6.029912948608398,9.140582084655762
1789033786364016400,9.004016357421875,-3.3403804302215576,-6.733402729034424,9.159725189208984
1789033786373941800,9.013941650390626,-2.68953275680542,-7.025327205657959,9.494720458984375
1789033786383867100,9.0238671875,-3.0245277881622314,-7.288537979125977,9.461220741271973
1789033786393792500,9.03379248046875,-3.88594388961792,-7.221538543701172,9.55214786529541
1789033786403718000,9.0437177734375,-4.613361835479736,-6.86261510848999,9.446864128112793
1789033786413643300,9.053643310546875,-4.603790760040283,-6.704689025878906,9.150154113769531
1789033786423569000,9.06356884765625,-4.364508628845215,-6.522834300994873,9.198010444641113
1789033786433494300,9.073494384765626,-4.67078971862793,-6.551548480987549,9.839286804199219
1789033786443419600,9.083419677734375,-4.402793884277344,-7.154539585113525,10.432706832885742
1789033786453345300,9.09334521484375,-3.8907296657562256,-7.781459331512451,10.265209197998047
1789033786463270700,9.103270751953126,-3.3882367610931396,-7.934599876403809,9.69093132019043
1789033786473196000,9.113196044921875,-3.3643085956573486,-7.676175117492676,8.762516975402832
1789033786483121700,9.12312158203125,-3.1680972576141357,-7.331608772277832,8.02074146270752
1789033786493047000,9.133047119140626,-3.5844483375549316,-7.178467750549316,7.618747234344482
1789033786502972700,9.14297265625,-4.4410786628723145,-7.527820110321045,7.714460372924805
1789033786512898000,9.15289794921875,-4.551148891448975,-7.4225358963012695,7.848458290100098
1789033786522823400,9.162823486328126,-4.297509670257568,-7.269395351409912,8.049455642700195
1789033786532749000,9.1727490234375,-4.393222332000732,-7.168896675109863,7.762316703796387
1789033786542674400,9.18267431640625,-3.656233072280884,-7.073183536529541,6.963113784790039
1789033786552599800,9.192599853515626,-2.526820659637451,-6.8865437507629395,7.312466144561768
1789033786562525400,9.202525390625,-1.9812572002410889,-6.283552169799805,8.059026718139648
1789033786572450800,9.212450927734375,-1.698904037475586,-6.120840549468994,7.9250288009643555
1789033786582376200,9.222376220703126,-1.7419748306274414,-6.269195556640625,7.1162543296813965
1789033786592301800,9.2323017578125,-1.8664016723632812,-6.374479293823242,6.489335060119629
1789033786602227200,9.242227294921875,-2.187039852142334,-6.331408500671387,6.072983741760254
1789033786612152800,9.25215283203125,-2.6464617252349854,-5.953342914581299,6.226124286651611
1789033786622078200,9.262078125,-3.201596736907959,-5.412564754486084,7.0683979988098145
1789033786632003600,9.272003662109375,-4.153940200805664,-5.536991596221924,7.628318786621094
1789033786641929200,9.28192919921875,-4.508078098297119,-5.881557941436768,8.188239097595215
1789033786651854600,9.2918544921875,-3.594019651412964,-5.862415313720703,8.207381248474121
1789033786661780000,9.301780029296875,-3.311666488647461,-5.355136871337891,8.657232284545898
1789033786671705600,9.31170556640625,-3.4025938510894775,-5.173282623291016,9.025727272033691
1789033786681631000,9.321630859375,-3.7184464931488037,-4.9435715675354,9.442078590393066
1789033786691556400,9.331556396484375,-4.54636287689209,-5.230710506439209,9.322437286376953
1789033786701482000,9.34148193359375,-4.938786029815674,-5.608776092529297,9.135796546936035
1789033786711407400,9.351407470703125,-4.742574691772461,-6.029912948608398,8.82951545715332
1789033786721333000,9.3613330078125,-4.7952165603637695,-6.044270038604736,9.312865257263184
1789033786731258400,9.37125830078125,-4.742574691772461,-6.116054534912109,10.021141052246094
1789033786741183700,9.381183837890624,-4.292723655700684,-6.20219612121582,10.925628662109375
1789033786751109400,9.391109375,-3.900300979614258,-6.355337142944336,11.212766647338867
1789033786761034800,9.40103466796875,-3.7806596755981445,-6.561119556427002,10.96869945526123
1789033786770960100,9.410960205078124,-3.579662561416626,-6.26440954208374,10.542776107788086
1789033786780885800,9.4208857421875,-3.2063822746276855,-5.9437713623046875,9.796216011047363
1789033786790811100,9.43081103515625,-2.8666014671325684,-5.723631858825684,9.073583602905273
1789033786800736500,9.440736572265624,-3.1106693744659424,-5.565705299377441,8.413164138793945
1789033786810662100,9.450662109375,-3.493520975112915,-5.106283664703369,7.4847493171691895
1789033786820587500,9.46058740234375,-3.6705899238586426,-4.412364959716797,6.183053493499756
1789033786830513200,9.47051318359375,-2.9144580364227295,-3.871587038040161,4.570291042327881
1789033786840438500,9.4804384765625,-2.249253273010254,-2.861815929412842,3.814159393310547
1789033786850364000,9.490364013671876,-1.5409778356552124,-3.3068809509277344,2.579462766647339
1789033786860289500,9.50028955078125,-1.8472590446472168,-2.282752752304077,3.617947816848755
1789033786870215000,9.51021484375,-2.550748825073242,-1.8185452222824097,4.431507587432861
1789033786880140300,9.520140380859376,-3.2063822746276855,-2.0865414142608643,4.555934429168701
1789033786890066000,9.53006591796875,-3.0340991020202637,-2.7038896083831787,4.125226020812988
1789033786899991300,9.5399912109375,-2.3018953800201416,-2.7661030292510986,3.8907296657562256
1789033786909916700,9.549916748046876,-2.675175666809082,-2.4119651317596436,3.7710886001586914
1789033786919842300,9.55984228515625,-3.4983067512512207,-1.789831280708313,4.07258415222168
1789033786929767700,9.569767578125,-3.177668571472168,-2.1822543144226074,3.6370904445648193
1789033786939693300,9.579693359375,-2.56510591506958,-2.493321180343628,3.2446675300598145
1789033786949618700,9.58961865234375,-2.7900311946868896,-2.4885356426239014,3.0963125228881836
1789033786959544000,9.5995439453125,-3.3164522647857666,-2.076970100402832,3.728017568588257
1789033786969469700,9.6094697265625,-3.8285162448883057,-1.545763373374939,4.823930263519287
1789033786979395000,9.61939501953125,-3.7710886001586914,-1.5984054803848267,5.575276851654053
1789033786989320400,9.629320556640625,-3.2303106784820557,-2.2205393314361572,5.637490272521973
1789033786999246000,9.63924609375,-2.943171739578247,-2.9718856811523438,5.513063430786133
1789033787009171500,9.64917138671875,-2.8187451362609863,-3.445664644241333,5.575276851654053
1789033787019096800,9.659096923828125,-3.297309637069702,-3.4791641235351562,5.953342914581299
1789033787029022500,9.6690224609375,-3.8572301864624023,-3.2207393646240234,6.254838466644287
1789033787038947800,9.67894775390625,-4.249652862548828,-3.005385160446167,6.5419769287109375
1789033787048873500,9.68887353515625,-4.627718925476074,-2.6560330390930176,7.149754047393799
1789033787058798800,9.698798828125,-4.618147850036621,-2.775674343109131,7.905886173248291
1789033787068724200,9.70872412109375,-3.8285162448883057,-3.4743785858154297,8.346165657043457
1789033787078649900,9.71864990234375,-2.6560330390930176,-4.3070807456970215,8.484949111938477
1789033787088575200,9.7285751953125,-2.335394859313965,-5.2737812995910645,8.346165657043457
1789033787098500600,9.73850048828125,-3.091526746749878,-5.9198431968688965,8.432307243347168
1789033787108426200,9.74842626953125,-3.996013879776001,-6.374479293823242,8.542376518249512
1789033787118351600,9.7583515625,-4.651647090911865,-6.709474563598633,8.34138011932373
1789033787128277000,9.768277099609374,-4.039084434509277,-6.695117950439453,7.8388872146606445
1789033787138202600,9.77820263671875,-3.019742250442505,-6.8865437507629395,7.456035137176514
1789033787148128000,9.7881279296875,-2.770888566970825,-6.920042991638184,7.489534854888916
1789033787158053400,9.798053466796874,-4.1347975730896,-7.149754047393799,9.030512809753418
1789033787167979000,9.80797900390625,-5.06799840927124,-7.6043901443481445,11.12183952331543
1789033787177904400,9.817904296875,-3.0005996227264404,-8.470592498779297,11.241480827331543
1789033787187830000,9.827830078125,-2.5986053943634033,-8.982656478881836,10.26042366027832
1789033787197755400,9.83775537109375,-3.617947816848755,-8.551948547363281,9.91107177734375
1789033787207680800,9.8476806640625,-4.541577339172363,-7.810173034667969,9.164510726928711
1789033787217606400,9.8576064453125,-5.000999450683594,-6.3840508460998535,9.820143699645996
1789033787227531800,9.86753173828125,-2.5938198566436768,-5.752345561981201,9.121439933776855
1789033787237457200,9.87745703125,-2.2396819591522217,-5.699703693389893,7.5326056480407715
1789033787247382800,9.8873828125,-2.6943182945251465,-5.905486106872559,6.608976364135742
1789033787257308200,9.89730810546875,-2.56510591506958,-5.8337016105651855,6.5419769287109375
1789033787267233500,9.907233642578126,-2.5220351219177246,-6.10169792175293,7.288537979125977
1789033787277159200,9.9171591796875,-2.9766714572906494,-6.345765590667725,7.216753005981445
1789033787287084500,9.92708447265625,-3.239881753921509,-6.5419769287109375,7.436892986297607
1789033787297010200,9.93701025390625,-3.5126636028289795,-6.618547439575195,8.169096946716309
1789033787306935600,9.946935546875,-3.728017568588257,-6.455835342407227,9.332008361816406
1789033787316861000,9.95686083984375,-3.680161237716675,-6.072983741760254,10.107282638549805
1789033787326786600,9.96678662109375,-3.4025938510894775,-5.905486106872559,10.71984577178955
1789033787336712000,9.9767119140625,-3.1345977783203125,-6.020341873168945,10.317851066589355
1789033787346637300,9.98663720703125,-3.28773832321167,-6.16391134262085,10.06421184539795
1789033787356563000,9.99656298828125,-3.5461630821228027,-6.26440954208374,9.997213363647461
1789033787366488300,10.00648828125,-3.737588882446289,-6.455835342407227,9.997213363647461
1789033787376413700,10.01641357421875,-4.029513359069824,-6.69990348815918,9.55214786529541
1789033787386339300,10.02633935546875,-4.019941806793213,-6.963113784790039,8.70508861541748
1789033787396264700,10.0362646484375,-3.680161237716675,-7.183253765106201,7.326822757720947
1789033787406190300,10.0461904296875,-3.28773832321167,-7.17368221282959,6.9344000816345215
1789033787416115700,10.05611572265625,-2.60339093208313,-7.0061845779418945,7.039684295654297
1789033787426041000,10.066041015625,-2.7804598808288574,-6.623332977294922,7.164111137390137
1789033787435966700,10.075966796875,-2.56510591506958,-6.403193473815918,7.1162543296813965
1789033787445892000,10.08589208984375,-2.115255117416382,-6.3361945152282715,7.451249599456787
1789033787455817500,10.0958173828125,-2.445464849472046,-6.833901405334473,7.944170951843262
1789033787465743000,10.1057431640625,-3.421736478805542,-7.073183536529541,8.700303077697754
1789033787475668500,10.11566845703125,-3.641875982284546,-7.240681171417236,9.499505996704102
1789033787485593900,10.12559375,-3.1250264644622803,-7.269395351409912,9.90149974822998
1789033787495519500,10.13551953125,-2.526820659637451,-7.288537979125977,10.078569412231445
1789033787505444900,10.14544482421875,-2.6368906497955322,-7.240681171417236,9.77707290649414
1789033787515370500,10.15537060546875,-2.943171739578247,-7.11146879196167,9.422935485839844
1789033787525295900,10.1652958984375,-3.201596736907959,-6.819544315338135,9.18843936920166
1789033787535221200,10.17522119140625,-4.211368083953857,-6.178267955780029,9.035298347473145
1789033787545147000,10.18514697265625,-5.13021183013916,-5.828916072845459,9.073583602905273
1789033787555072300,10.195072265625,-4.589433670043945,-5.642275810241699,9.399007797241211
1789033787564997600,10.20499755859375,-3.4983067512512207,-5.465207099914551,9.638289451599121
1789033787574923300,10.21492333984375,-2.7517459392547607,-5.623133182525635,9.17886734008789
1789033787584848600,10.2248486328125,-2.053041934967041,-6.010770320892334,8.427521705627441
1789033787594774000,10.23477392578125,-2.1535403728485107,-6.369693756103516,7.786244869232178
1789033787604699600,10.24469970703125,-3.8572301864624023,-6.690331935882568,7.795815944671631
1789033787614625000,10.254625,-5.958128452301025,-6.5180487632751465,8.652446746826172
1789033787624550700,10.264550537109375,-6.116054534912109,-6.010770320892334,9.250652313232422
1789033787634476000,10.27447607421875,-5.225924491882324,-5.513063430786133,9.781859397888184
1789033787644401400,10.2844013671875,-3.5270206928253174,-5.149354457855225,9.829715728759766
1789033787654327000,10.2943271484375,-2.234896421432495,-5.063212871551514,9.236295700073242
1789033787664252400,10.30425244140625,-1.521835207939148,-4.962714195251465,8.446663856506348
1789033787674177800,10.314177734375,-1.9764715433120728,-4.651647090911865,7.877171993255615
1789033787684103400,10.324103515625,-2.5220351219177246,-4.091726779937744,7.302894592285156
1789033787694028800,10.33402880859375,-3.1345977783203125,-3.589233875274658,6.647261142730713
1789033787703954200,10.3439541015625,-2.785245656967163,-3.4169507026672363,6.183053493499756
1789033787713879800,10.3538798828125,-1.923829436302185,-3.326023578643799,5.532206058502197
1789033787723805200,10.36380517578125,-1.459621787071228,-3.1441688537597656,4.938786029815674
1789033787733730800,10.373730712890625,-1.4165509939193726,-3.014956474304199,4.2592244148254395
1789033787743656200,10.38365625,-2.282752752304077,-3.029313564300537,3.651447296142578
1789033787753581600,10.39358154296875,-3.751945972442627,-2.5603201389312744,3.7232320308685303
1789033787763507200,10.403507080078125,-3.775874137878418,-1.7419748306274414,3.90987229347229
1789033787773432600,10.4134326171875,-2.335394859313965,-1.6175481081008911,4.709074974060059
1789033787783358000,10.42335791015625,-2.187039852142334,-1.698904037475586,5.230710506439209
1789033787793283600,10.43328369140625,-2.014756679534912,-2.5363919734954834,5.651846885681152
1789033787803209000,10.443208984375,-1.8711873292922974,-3.579662561416626,5.517848968505859
1789033787813134300,10.45313427734375,-2.517249345779419,-4.110869407653809,4.843072891235352
1789033787823060000,10.46306005859375,-4.153940200805664,-3.297309637069702,4.776073932647705
1789033787832985300,10.4729853515625,-5.091926574707031,-2.2779672145843506,4.847858905792236
1789033787842910700,10.48291064453125,-4.800002098083496,-1.947757601737976,4.7234320640563965
1789033787852836400,10.49283642578125,-3.6705899238586426,-1.8616160154342651,4.833501815795898
1789033787862761700,10.50276171875,-2.675175666809082,-1.947757601737976,5.3455657958984375
1789033787872687400,10.512687255859374,-1.923829436302185,-2.5124638080596924,5.867201328277588
1789033787882612700,10.52261279296875,-1.8855443000793457,-3.115455150604248,6.049055576324463
1789033787892538000,10.5325380859375,-2.282752752304077,-3.421736478805542,5.910272121429443
1789033787902463700,10.542463623046874,-3.2542388439178467,-3.5030922889709473,5.723631858825684
1789033787912389000,10.55238916015625,-4.106083869934082,-3.4265220165252686,5.800201892852783
1789033787922314500,10.562314453125,-4.168296813964844,-3.2925238609313965,6.125626087188721
1789033787932240100,10.572240234375,-3.972085475921631,-3.139383316040039,6.460621356964111
1789033787942165500,10.58216552734375,-3.4983067512512207,-3.3690943717956543,6.714260101318359
1789033787952091000,10.5920908203125,-2.5459632873535156,-3.933800458908081,6.939185619354248
1789033787962016300,10.602016357421874,-2.455035924911499,-4.53200626373291,7.216753005981445
1789033787971941600,10.611941650390625,-3.177668571472168,-4.977071285247803,7.886743545532227
1789033787981867000,10.621866943359375,-3.9529430866241455,-5.259424209594727,8.762516975402832
1789033787991792400,10.63179248046875,-4.42193603515625,-5.570491313934326,9.164510726928711
1789033788001718000,10.641718017578125,-3.8572301864624023,-5.972485542297363,9.403793334960938
1789033788011643400,10.651643310546875,-2.9623143672943115,-6.546762943267822,9.370293617248535
1789033788021568800,10.66156884765625,-3.263810157775879,-7.077969551086426,8.973084449768066
1789033788031494100,10.671494140625,-3.7423746585845947,-7.178467750549316,8.595019340515137
1789033788041419800,10.681419677734375,-3.809373617172241,-7.221538543701172,8.599804878234863
1789033788051345200,10.69134521484375,-3.407379388809204,-6.996613502502441,8.93958568572998
1789033788061270500,10.7012705078125,-3.4169507026672363,-7.0301127433776855,9.049654960632324
1789033788071196200,10.711196044921875,-2.5220351219177246,-7.336394309997559,9.087940216064453
1789033788081121500,10.72112158203125,-3.105883836746216,-6.8865437507629395,9.686145782470703
1789033788091047200,10.731047119140625,-3.704089403152466,-7.058826923370361,9.518648147583008
1789033788100972500,10.74097265625,-3.460021495819092,-7.264609336853027,9.475577354431152
1789033788110898000,10.75089794921875,-4.1347975730896,-7.178467750549316,10.236495018005371
1789033788120823600,10.760823486328125,-3.239881753921509,-6.9822564125061035,10.126425743103027
1789033788130749000,10.7707490234375,-2.4358935356140137,-6.69990348815918,9.66221809387207
1789033788140674300,10.78067431640625,-2.895315408706665,-6.661618232727051,9.67657470703125
1789033788150600000,10.790599853515625,-3.4265220165252686,-6.742974281311035,9.619147300720215
1789033788160525300,10.800525390625,-3.7423746585845947,-6.963113784790039,9.399007797241211
1789033788170450700,10.81045068359375,-3.9864425659179688,-7.17368221282959,9.585647583007812
1789033788180376300,10.820376220703125,-3.8189449310302734,-7.278966426849365,9.872786521911621
1789033788190301700,10.8303017578125,-3.1441688537597656,-6.963113784790039,9.623932838439941
1789033788200227000,10.84022705078125,-2.6225335597991943,-6.489335060119629,9.016156196594238
1789033788210152700,10.850152587890625,-2.775674343109131,-6.111268997192383,8.173882484436035
1789033788220078000,10.860078125,-3.421736478805542,-5.85284423828125,8.09252643585205
1789033788230003700,10.870003662109376,-3.814159393310547,-5.85284423828125,8.432307243347168
1789033788239929000,10.87992919921875,-3.565305709838867,-6.422336101531982,8.46580696105957
1789033788249854500,10.8898544921875,-2.957528829574585,-6.843472957611084,8.34138011932373
1789033788259780000,10.899780029296876,-3.5126636028289795,-7.312466144561768,8.283951759338379
1789033788269705500,10.90970556640625,-3.900300979614258,-7.470392227172852,8.432307243347168
1789033788279630800,10.919630859375,-3.507878065109253,-7.3986077308654785,8.46580696105957
1789033788289556500,10.929556396484376,-2.8187451362609863,-7.106683254241943,7.982456207275391
1789033788299481900,10.93948193359375,-2.4741785526275635,-6.929614543914795,7.178467750549316
1789033788309407200,10.9494072265625,-1.301695466041565,-6.604190349578857,6.843472957611084
1789033788319332900,10.959332763671876,-0.8470591902732849,-5.986842155456543,7.202396392822266
1789033788329258200,10.96925830078125,-1.4261223077774048,-5.599205017089844,7.676175117492676
1789033788339183900,10.979183837890625,-2.4023938179016113,-5.580062389373779,8.054241180419922
1789033788349109200,10.989109130859376,-3.177668571472168,-5.752345561981201,8.628518104553223
1789033788359034600,10.99903466796875,-3.2781670093536377,-5.953342914581299,8.96829891204834
1789033788368960300,11.008960205078125,-3.0484559535980225,-6.116054534912109,9.298508644104004
1789033788378885600,11.0188857421875,-2.172683000564575,-6.120840549468994,9.322437286376953
1789033788388811000,11.02881103515625,-1.923829436302185,-6.178267955780029,9.456435203552246
1789033788398736600,11.038736572265625,-2.282752752304077,-6.3601226806640625,9.298508644104004
1789033788408662000,11.048662109375,-2.3258235454559326,-6.427121639251709,9.193224906921387
1789033788418587400,11.05858740234375,-2.4885356426239014,-6.355337142944336,8.767302513122559
1789033788428513000,11.068512939453125,-2.9527430534362793,-6.063412666320801,8.513663291931152
1789033788438438400,11.0784384765625,-3.5461630821228027,-5.608776092529297,8.63330364227295
1789033788448364000,11.088364013671875,-4.8813581466674805,-5.489135265350342,9.513862609863281
1789033788458289400,11.098289306640625,-4.996213912963867,-5.828916072845459,10.169496536254883
1789033788468214800,11.10821484375,-3.713660717010498,-6.111268997192383,9.647860527038574
1789033788478140400,11.118140380859375,-3.10109806060791,-6.293123722076416,9.360722541809082
1789033788488065800,11.128065673828125,-3.153740167617798,-6.125626087188721,9.461220741271973
1789033788497991200,11.1379912109375,-3.713660717010498,-6.259624004364014,9.279366493225098
1789033788507916800,11.147916748046875,-3.5222349166870117,-6.403193473815918,8.82951545715332
1789033788517842200,11.15784228515625,-3.263810157775879,-6.226124286651611,8.906085968017578
1789033788527767600,11.167767578125,-3.005385160446167,-5.962913990020752,8.973084449768066
1789033788537693200,11.177693115234375,-3.2303106784820557,-5.848058700561523,8.647661209106445
1789033788547618600,11.18761865234375,-2.861815929412842,-5.623133182525635,8.154739379882812
1789033788557544200,11.197544189453126,-2.4837498664855957,-5.144568920135498,7.393822193145752
1789033788567469600,11.207469482421875,-2.115255117416382,-4.560719966888428,6.829115867614746
1789033788577395000,11.21739501953125,-1.3782658576965332,-3.7663028240203857,6.297909259796143
1789033788587320600,11.227320556640626,-1.4691931009292603,-2.9527430534362793,5.800201892852783
1789033788597246000,11.237245849609375,-2.148754835128784,-2.3880369663238525,5.292923450469971
1789033788607171300,11.24717138671875,-2.335394859313965,-2.359323024749756,4.967499732971191
1789033788617097000,11.257096923828126,-2.3976082801818848,-2.943171739578247,4.436293125152588
1789033788627022300,11.267022216796875,-1.8664016723632812,-3.2446675300598145,4.144368648529053
1789033788636947700,11.27694775390625,-2.6799614429473877,-2.809173822402954,4.287938117980957
1789033788646873300,11.286873291015626,-3.6227335929870605,-2.6560330390930176,4.828716278076172
1789033788656798700,11.296798828125,-3.5844483375549316,-2.957528829574585,4.957928657531738
1789033788666724400,11.306724365234375,-2.1296122074127197,-3.2590243816375732,4.7712883949279785
1789033788676649700,11.316649658203126,-1.5792629718780518,-3.4408788681030273,4.709074974060059
1789033788686575000,11.3265751953125,-2.249253273010254,-3.0101709365844727,5.000999450683594
1789033788696500700,11.336500732421875,-3.0340991020202637,-2.2205393314361572,5.13021183013916
1789033788706426000,11.346426025390626,-3.0005996227264404,-1.8759729862213135,5.024927616119385
1789033788716351500,11.3563515625,-3.105883836746216,-1.9046868085861206,4.996213912963867
1789033788726277000,11.366277099609375,-2.8761727809906006,-2.1104695796966553,5.048855781555176
1789033788736202500,11.376202392578126,-2.9527430534362793,-2.6703901290893555,5.111069202423096
1789033788746128000,11.3861279296875,-2.967100143432617,-2.9383862018585205,5.245067119598389
1789033788756053500,11.396053466796875,-3.043670415878296,-2.847458839416504,5.560919761657715
1789033788765979000,11.405978759765626,-3.2159535884857178,-2.895315408706665,5.905486106872559
1789033788775904500,11.415904541015625,-3.211168050765991,-2.885744094848633,6.206982135772705
1789033788785830000,11.425829833984375,-2.9958138465881348,-3.16331148147583,6.063412666320801
1789033788795755300,11.43575537109375,-3.105883836746216,-3.3308091163635254,6.116054534912109
1789033788805681000,11.445680908203125,-3.10109806060791,-3.493520975112915,6.522834300994873
1789033788815606300,11.455606201171875,-3.16331148147583,-3.651447296142578,7.054041385650635
1789033788825531600,11.46553173828125,-2.9623143672943115,-4.019941806793213,7.36032247543335
1789033788835457300,11.475457275390625,-2.9144580364227295,-4.603790760040283,7.503891944885254
1789033788845382700,11.485382568359375,-3.249453067779541,-5.015356063842773,7.791030406951904
1789033788855308000,11.49530810546875,-3.4791641235351562,-5.355136871337891,8.528019905090332
1789033788865233700,11.505233642578125,-3.4887354373931885,-5.407779216766357,9.322437286376953
1789033788875159000,11.515158935546875,-3.0245277881622314,-5.699703693389893,9.810572624206543
1789033788885084400,11.52508447265625,-3.105883836746216,-5.929414749145508,9.997213363647461
1789033788895010000,11.535010009765625,-3.139383316040039,-6.455835342407227,9.734002113342285
1789033788904935400,11.544935302734375,-3.129812002182007,-6.814758777618408,9.796216011047363
1789033788914861000,11.554861083984376,-3.1920254230499268,-6.829115867614746,9.781859397888184
1789033788924786400,11.564786376953125,-2.7326035499572754,-6.8004021644592285,9.585647583007812
1789033788934711800,11.5747119140625,-2.6608188152313232,-6.556334018707275,9.336793899536133
1789033788944637200,11.58463720703125,-2.0195422172546387,-6.527620315551758,9.09272575378418
1789033788954562600,11.5945625,-2.3401806354522705,-6.187839508056641,9.489934921264648
1789033788964488000,11.604488037109375,-3.2446675300598145,-5.594419479370117,10.327422142028809
1789033788974413600,11.61441357421875,-3.3930225372314453,-6.0538411140441895,9.91107177734375
1789033788984339000,11.6243388671875,-2.282752752304077,-6.781259536743164,9.116654396057129
1789033788994264300,11.634264404296875,-2.675175666809082,-7.269395351409912,8.877371788024902
1789033789004189700,11.644189697265626,-3.1728827953338623,-7.336394309997559,9.561718940734863
1789033789014115000,11.654114990234374,-2.172683000564575,-7.073183536529541,9.714859962463379
1789033789024040700,11.664040771484375,-2.2683959007263184,-6.9104719161987305,9.628718376159668
1789033789033966000,11.673966064453126,-2.8761727809906006,-6.891329288482666,9.633503913879395
1789033789043891500,11.683891357421874,-3.029313564300537,-6.728617191314697,9.580862045288086
1789033789053817000,11.693817138671875,-3.0484559535980225,-6.398407936096191,9.523433685302734
1789033789063742500,11.703742431640626,-2.6943182945251465,-6.273981094360352,9.418149948120117
1789033789073667800,11.713667724609374,-2.770888566970825,-5.905486106872559,9.442078590393066
1789033789083593500,11.723593505859375,-2.9144580364227295,-5.958128452301025,9.078369140625
1789033789093518800,11.733518798828126,-3.0005996227264404,-6.116054534912109,8.4562349319458
1789033789103444200,11.7434443359375,-2.9001009464263916,-6.4079790115356445,7.70967435836792
1789033789113369900,11.753369873046875,-2.8761727809906006,-6.302694797515869,7.3746795654296875
1789033789123295200,11.763295166015626,-3.311666488647461,-6.144768714904785,7.183253765106201
1789033789133220900,11.773220947265624,-3.517449378967285,-6.144768714904785,7.436892986297607
1789033789143146200,11.783146240234375,-3.8189449310302734,-6.269195556640625,8.25523853302002
1789033789153071600,11.793071533203126,-3.862015724182129,-6.757331371307373,9.523433685302734
1789033789162997200,11.802997314453124,-3.483949661254883,-7.221538543701172,10.346565246582031
1789033789172922600,11.812922607421875,-2.493321180343628,-7.36032247543335,10.217352867126465
1789033789182848000,11.822847900390625,-1.5553346872329712,-7.039684295654297,9.284152030944824
1789033789192773600,11.832773681640624,-1.3304094076156616,-6.8243303298950195,8.37966537475586
1789033789202699000,11.842698974609375,-0.6269195079803467,-6.675975322723389,7.6666035652160645
1789033789212624400,11.852624267578125,-0.46420758962631226,-6.3122663497924805,7.489534854888916
1789033789222550000,11.862550048828124,-1.2634103298187256,-6.068198204040527,7.3986077308654785
1789033789232475400,11.872475341796875,-2.3976082801818848,-6.159125328063965,7.609176158905029
1789033789242400800,11.88240087890625,-3.0388846397399902,-6.20219612121582,8.044670104980469
1789033789252326400,11.892326416015624,-3.1345977783203125,-6.049055576324463,8.331808090209961
1789033789262251800,11.902251708984375,-3.029313564300537,-5.757131099700928,8.958727836608887
1789033789272177400,11.912177490234376,-2.713460922241211,-5.694917678833008,9.30329418182373
1789033789282102800,11.922102783203124,-2.2683959007263184,-6.082555294036865,9.882357597351074
1789033789292028200,11.932028076171875,-2.311466693878174,-6.5180487632751465,10.097711563110352
1789033789301953800,11.941953857421876,-2.3880369663238525,-6.3601226806640625,10.29870891571045
1789033789311879200,11.951879150390624,-1.9860427379608154,-6.269195556640625,9.753145217895508
1789033789321804500,11.961804443359375,-1.679761528968811,-6.192625045776367,9.279366493225098
1789033789331730200,11.971730224609376,-3.10109806060791,-5.737988471984863,9.17886734008789
1789033789341655600,11.981655517578124,-4.216153621673584,-5.335994720458984,9.504291534423828
1789033789351581000,11.991580810546875,-4.445864677429199,-5.4556355476379395,8.776873588562012
1789033789361506600,12.001506591796876,-3.239881753921509,-5.891129493713379,7.6474609375
1789033789371432000,12.011431884765624,-2.6560330390930176,-5.848058700561523,7.197610378265381
1789033789381357600,12.021357666015625,-2.5076780319213867,-5.436492919921875,7.858029365539551
1789033789391283000,12.031282958984375,-2.68953275680542,-5.245067119598389,8.365307807922363
1789033789401208300,12.041208251953124,-2.943171739578247,-5.106283664703369,8.963513374328613
1789033789411134000,12.051134033203125,-2.8043880462646484,-5.2354960441589355,10.102497100830078
1789033789421059300,12.061059326171875,-2.6943182945251465,-5.637490272521973,9.930213928222656
1789033789430984700,12.070984619140624,-2.407179594039917,-5.637490272521973,9.049654960632324
1789033789440910300,12.080910400390625,-2.493321180343628,-5.422136306762695,8.169096946716309
1789033789450835700,12.090835693359375,-2.5363919734954834,-4.828716278076172,7.585247993469238
1789033789460761000,12.100760986328124,-2.0243279933929443,-4.187439441680908,7.23589563369751
1789033789470686700,12.110686767578125,-1.4787644147872925,-3.8763725757598877,6.9344000816345215
1789033789480612000,12.120612060546875,-1.8711873292922974,-3.8907296657562256,6.690331935882568
1789033789490537700,12.130537841796874,-2.6943182945251465,-4.000799655914307,6.235695838928223
1789033789500463000,12.140463134765625,-2.809173822402954,-3.8189449310302734,5.690132141113281
1789033789510388500,12.150388427734375,-2.7421748638153076,-3.263810157775879,5.584847927093506
1789033789520314000,12.160314208984374,-3.201596736907959,-3.0628130435943604,5.249852657318115
1789033789530239500,12.170239501953125,-2.8187451362609863,-2.8761727809906006,5.134997367858887
1789033789540164900,12.180164794921875,-1.6845471858978271,-2.799602508544922,4.713860511779785
1789033789550090500,12.190090576171874,-1.4213366508483887,-2.909672260284424,4.163511276245117
1789033789560016000,12.200015869140625,-1.5409778356552124,-2.770888566970825,3.814159393310547
1789033789569941200,12.209941162109375,-1.6414763927459717,-2.3976082801818848,3.933800458908081
1789033789579867000,12.219866943359374,-2.4837498664855957,-1.8855443000793457,4.4410786628723145
1789033789589792300,12.229792236328125,-2.6799614429473877,-1.8089739084243774,4.589433670043945
1789033789599718000,12.2397177734375,-2.6703901290893555,-1.8807586431503296,4.9292144775390625
1789033789609643300,12.249643310546874,-2.770888566970825,-2.0578274726867676,4.814359188079834
1789033789619568600,12.259568603515625,-2.823530673980713,-2.0099709033966064,5.221138954162598
1789033789629494300,12.269494384765625,-2.56510591506958,-2.3258235454559326,5.111069202423096
1789033789639419600,12.279419677734374,-2.675175666809082,-2.5938198566436768,5.1876397132873535
1789033789649345000,12.289344970703125,-2.833101987838745,-2.809173822402954,5.484349727630615
1789033789659270700,12.299270751953125,-3.311666488647461,-2.8187451362609863,5.9676995277404785
1789033789669196000,12.309196044921874,-3.5844483375549316,-2.823530673980713,6.604190349578857
1789033789679121400,12.319121337890625,-3.273381471633911,-3.029313564300537,6.97268533706665
1789033789689047000,12.329047119140625,-3.1920254230499268,-3.4025938510894775,7.470392227172852
1789033789698972400,12.338972412109374,-3.129812002182007,-3.775874137878418,7.752745151519775
1789033789708898000,12.34889794921875,-2.9048867225646973,-4.388436794281006,7.810173034667969
1789033789718823400,12.358823486328125,-2.7900311946868896,-4.991427898406982,7.618747234344482
1789033789728748800,12.368748779296874,-2.761317253112793,-5.350351333618164,7.652246952056885
1789033789738674400,12.37867431640625,-3.0580272674560547,-5.546562671661377,8.09252643585205
1789033789748599800,12.388599853515625,-3.029313564300537,-5.513063430786133,8.504091262817383
1789033789758525200,12.398525146484374,-2.991028308868408,-5.795416355133057,8.63330364227295
1789033789768450800,12.408450927734375,-2.5124638080596924,-5.9437713623046875,8.901300430297852
1789033789778376200,12.418376220703125,-2.5076780319213867,-6.211767673492432,8.791230201721191
1789033789788301600,12.428301513671874,-2.857030153274536,-6.345765590667725,8.523234367370605
1789033789798227200,12.438227294921875,-3.297309637069702,-6.412764549255371,8.819944381713867
1789033789808152600,12.448152587890625,-2.761317253112793,-6.537191390991211,9.193224906921387
1789033789818078200,12.458078125,-2.5746772289276123,-6.628118515014648,9.743574142456055
1789033789828003600,12.468003662109375,-2.4263222217559814,-6.771687984466553,9.796216011047363
1789033789837929000,12.477928955078125,-2.201396942138672,-6.977470874786377,9.78664493560791
1789033789847854600,12.4878544921875,-2.2205393314361572,-7.020541667938232,10.001998901367188
1789033789857780000,12.497780029296875,-2.311466693878174,-7.020541667938232,9.4660062789917
1789033789867705300,12.507705322265625,-3.4025938510894775,-7.0301127433776855,9.609575271606445
1789033789877631000,12.517630859375,-2.9144580364227295,-7.29810905456543,9.619147300720215
1789033789887556400,12.527556396484375,-2.579462766647339,-7.283751964569092,10.542776107788086
1789033789897481700,12.537481689453125,-1.588834285736084,-7.140182971954346,11.002198219299316
1789033789907407400,12.547407470703124,-1.28255295753479,-7.0301127433776855,10.571490287780762
1789033789917332700,12.557332763671875,-1.5026925802230835,-7.039684295654297,9.7005033493042
1789033789927258000,12.567258056640625,-2.062613010406494,-6.9822564125061035,9.10229778289795
1789033789937183700,12.577183837890624,-3.0723843574523926,-6.532405853271484,8.982656478881836
1789033789947109000,12.587109130859375,-3.1824541091918945,-6.144768714904785,9.030512809753418
1789033789957034800,12.59703466796875,-2.555534601211548,-6.154339790344238,8.767302513122559
1789033789966960000,12.606960205078124,-2.3641088008880615,-6.417550563812256,8.642875671386719
1789033789976885500,12.616885498046875,-2.3880369663238525,-6.532405853271484,8.61894702911377
1789033789986811100,12.62681103515625,-2.699103832244873,-6.441478729248047,8.676374435424805
1789033789996736500,12.636736572265624,-3.139383316040039,-6.20219612121582,8.714659690856934
1789033790006662000,12.646661865234375,-3.3068809509277344,-5.962913990020752,8.508877754211426
1789033790016587500,12.65658740234375,-3.067598581314087,-6.068198204040527,8.140382766723633
1789033790026513000,12.666512939453124,-2.9527430534362793,-6.393621921539307,8.236095428466797
1789033790036438300,12.676438232421875,-3.16331148147583,-6.709474563598633,9.159725189208984
1789033790046364000,12.686364013671875,-3.589233875274658,-6.939185619354248,10.456634521484375
1789033790056289300,12.696289306640624,-3.2207393646240234,-6.881757736206055,10.978270530700684
1789033790066215000,12.70621484375,-1.770688772201538,-6.546762943267822,10.470992088317871
1789033790076140300,12.716140380859375,-1.0145567655563354,-6.417550563812256,9.030512809753418
1789033790086065700,12.726065673828124,-0.12442677468061447,-6.8243303298950195,7.365108013153076
1789033790095991300,12.7359912109375,-0.3397808074951172,-6.8004021644592285,6.752545356750488
1789033790105916700,12.745916748046875,-0.3924229145050049,-6.63769006729126,6.7621169090271
1789033790115842000,12.755842041015624,-1.526620864868164,-6.269195556640625,7.609176158905029
1789033790125767700,12.765767578125,-2.455035924911499,-6.283552169799805,8.614161491394043
1789033790135693000,12.775693115234375,-3.129812002182007,-6.125626087188721,9.489934921264648
1789033790145618400,12.785618408203124,-2.809173822402954,-5.709274768829346,9.824930191040039
1789033790155543800,12.795543701171875,-2.249253273010254,-5.934200286865234,10.322636604309082
1789033790165469200,12.80546923828125,-2.0099709033966064,-6.144768714904785,10.370492935180664
1789033790175394600,12.81539453125,-2.210968017578125,-6.16391134262085,10.652846336364746
1789033790185320000,12.82531982421875,-2.3880369663238525,-6.3601226806640625,10.801201820373535
1789033790195245600,12.83524560546875,-2.0003998279571533,-6.226124286651611,10.801201820373535
1789033790205171000,12.8451708984375,-1.7324036359786987,-6.10169792175293,9.978070259094238
