time,seconds_elapsed,z,y,x
1789619979232242200,0.0742421875,-0.4474696267336607,0.19537410354018211,0.5391387333884835
1789619979242215200,0.084215087890625,-0.5282359388411044,0.26159604972749945,0.5152297422736883
1789619979252188200,0.094188232421875,-0.587853664457798,0.3442962525069713,0.4507856924790889
1789619979262161200,0.1041611328125,-0.6258464182436466,0.3940504634961486,0.3924610023476183
1789619979272134100,0.114134033203125,-0.630181817099452,0.44695553973168134,0.4101969308506697
1789619979282107100,0.124107177734375,-0.5770534535020589,0.4576622271850705,0.45622890644632275
1789619979292080000,0.134080078125,-0.5075175604611635,0.43293870481699703,0.47881446693763136
1789619979302054100,0.14405419921875,-0.5273235001713037,0.41945261577814813,0.4678423334810883
1789619979312027100,0.154027099609375,-0.7330559161186218,0.33251346025466916,0.28591720183975994
1789619979322000400,0.16400048828125,-1.0096130958735943,0.38784634815901514,-0.08766798125468193
1789619979331973000,0.17397314453125,-1.1099006855309008,0.5675570186212658,-0.4609243707861751
1789619979341946000,0.183946044921875,-0.9277385302633047,0.7278378892093896,-0.6076121848296374
1789619979351919000,0.193919189453125,-0.8070680777907371,0.8309677165552973,-0.49127391634248196
1789619979361892400,0.203892333984375,-0.4716822769701481,0.80429306011945,-0.10444412481486796
1789619979371865600,0.213865478515625,-0.3289297565490007,0.6919841932788491,0.09891520532555878
1789619979381838600,0.223838623046875,-0.7920084558248519,0.47143180934041734,0.2565102708958089
1789619979391811300,0.233811279296875,-0.7276502576828002,0.6442927600383758,0.14984503596536813
1789619979401784300,0.243784423828125,-0.9930810632675886,1.0118523992329835,0.03756875622011721
1789619979411757600,0.253757568359375,-1.3185019349128007,1.2618559185832738,-0.16626922428272664
1789619979421730600,0.26373046875,-1.3205600364863872,1.3654779133602977,-0.3546442627158016
1789619979431703600,0.27370361328125,-1.0229232438236475,1.3637667255282402,-0.45955125580206513
1789619979441676300,0.28367626953125,-0.5803051487743854,1.2852131210342048,-0.5112914529766888
1789619979451649500,0.2936494140625,-0.16164894407093525,1.1684288623452186,-0.533017400963977
1789619979461623600,0.30362353515625,0.22702479482293128,1.0001140306442975,-0.5552709530219435
1789619979471596500,0.313596435546875,0.48895080715715883,0.9040379212021827,-0.5265133528321981
1789619979481569500,0.323569580078125,0.49857028389573094,0.935334099958837,-0.4421488701023161
1789619979491542300,0.333542236328125,0.304991831600666,1.033434993226826,-0.3203659994084388
1789619979501515300,0.343515380859375,0.017450316494703293,1.2068220136255026,-0.25014365847334263
1789619979511488500,0.353488525390625,-0.1937654992997646,1.4217039507120848,-0.3341386503037065
1789619979521461500,0.36346142578125,-0.262810978475213,1.4528835173517465,-0.4738401856563985
1789619979531434500,0.3734345703125,-0.1703039596915245,1.3057076275303958,-0.5420308746334165
1789619979541407200,0.3834072265625,-0.10066343723237514,1.1159390889123082,-0.5373818067185581
1789619979551380500,0.39338037109375,-0.11880173599123954,0.9801245510607958,-0.44855647212229666
1789619979561353500,0.403353515625,-0.22394377994239328,0.8764154625222086,-0.3456576770532876
1789619979571326500,0.413326416015625,-0.3797457515507936,0.8211378119364381,-0.1736537815760821
1789619979581300500,0.423300537109375,-0.5443903703063726,0.8175032548263669,-0.010356120450049638
1789619979591273500,0.4332734375,-0.6559317599058151,0.849553174559772,0.05480199589803814
1789619979601246500,0.44324658203125,-0.6446452267378568,0.9247881560251117,-0.034858182087168094
1789619979611219500,0.453219482421875,-0.6520639785617589,0.9278530965536832,-0.04052848280854523
1789619979621192400,0.4631923828125,-0.6674024174690246,0.7934399499326944,0.029232305029407143
1789619979631165400,0.47316552734375,-0.6211158825904131,0.6122650521367788,0.06995104971304536
1789619979641138400,0.483138427734375,-0.44372342594265934,0.5072232536897063,0.04561185048744082
1789619979651111400,0.493111328125,-0.08606324947178363,0.5212614236533641,0.02005991447120905
1789619979661084400,0.50308447265625,0.27417291496694085,0.528290883898735,0.07938603673018514
1789619979671057400,0.513057373046875,0.51811728040874,0.4784139233127236,0.24536738398224114
1789619979681031400,0.523031494140625,0.6294196005553007,0.36391602199524636,0.4001293450184166
1789619979691004400,0.53300439453125,0.62404959795475,0.2936927312120795,0.45291678622364995
1789619979700977700,0.542977783203125,0.5637117413699626,0.259112708479166,0.37409086759425697
1789619979710950400,0.552950439453125,0.4519885654628277,0.1660989092171192,0.3316881153464317
1789619979720923400,0.56292333984375,0.29127485641539097,0.0857902777493,0.32141835800558327
1789619979730896400,0.572896484375,0.15645137542784213,0.06813479407131671,0.3028026509933173
1789619979740869600,0.58286962890625,0.05915595332384109,0.17014350843280554,0.2738951940041035
1789619979750842600,0.592842529296875,0.0018634557843208311,0.3249707897901535,0.29836671437248585
1789619979760815400,0.6028154296875,-0.08970131371319294,0.505645921370387,0.4215610592994839
1789619979770789400,0.612789306640625,-0.19026129057109356,0.6277656958684324,0.553238789607212
1789619979780762400,0.622762451171875,-0.30539106005132194,0.7208972762912511,0.6528374471522868
1789619979790735400,0.6327353515625,-0.40252047793865203,0.7918176094278693,0.7125612634919584
1789619979800708600,0.64270849609375,-0.4634194755375385,0.8663619782805442,0.7250130410470068
1789619979810681300,0.652681396484375,-0.4979986214876175,0.8498807990789413,0.6179246853336692
1789619979820654300,0.662654296875,-0.4890495913565159,0.8088900325208902,0.42604076199680563
1789619979830627300,0.67262744140625,-0.42566403763890265,0.7460209038928151,0.19648484126105903
1789619979840600600,0.6826005859375,-0.3058434799939394,0.7428726689949631,0.0342249987501651
1789619979850574600,0.69257470703125,-0.10704232461452484,0.6942822410881518,-0.08985482377447188
1789619979860547600,0.702547607421875,0.047539165288209916,0.6324556072503328,-0.20790990611687302
1789619979870520300,0.712520263671875,0.2216810957074165,0.607145224905014,-0.3281127410776913
1789619979880493300,0.722493408203125,0.49113984163403507,0.6186319568201899,-0.4578863913297653
1789619979890466600,0.732466552734375,0.7266945643931627,0.5958090073764324,-0.5055751211564987
1789619979900439600,0.742439453125,0.8015414233237504,0.558218696911633,-0.4267851506233215
1789619979910412500,0.75241259765625,0.7652741781562566,0.5499871674001217,-0.3935360842332244
1789619979920386600,0.762386474609375,0.6578150894343853,0.5803071946009993,-0.3570313770480454
1789619979930359300,0.772359375,0.5095376681119204,0.7161331306293607,-0.3188897893760353
1789619979940332300,0.782332275390625,0.39689913092553614,0.9154188546553254,-0.27324717842414975
1789619979950305500,0.792305419921875,0.3187152365267277,1.107268875722587,-0.1535753085348755
1789619979960278500,0.802278564453125,0.2676519887655973,1.2225438988924027,0.05191964539475739
1789619979970251500,0.81225146484375,0.20938450871407985,1.2396157374635337,0.2473478172097355
1789619979980224300,0.822224365234375,0.1715028140872717,1.2131634916067122,0.31949097013957795
1789619979990198300,0.8321982421875,0.05289280127584934,1.1364791881158947,0.351618485153839
1789619980000171500,0.842171630859375,-0.09051379913985728,1.0438856600925326,0.3099704967960715
1789619980010144500,0.85214453125,-0.27002514763772484,0.9672726682722568,0.25801073858663437
1789619980020117500,0.862117431640625,-0.45217678151130675,0.8713657779172063,0.11424494946971535
1789619980030090500,0.872090576171875,-0.6065016663044691,0.8341530685931444,-0.04160648730359971
1789619980040063500,0.8820634765625,-0.6511293280601501,0.7976566908448934,-0.1703418074838817
1789619980050037500,0.89203759765625,-0.5991226619690656,0.7377233234077691,-0.23266557718887923
1789619980060010500,0.902010498046875,-0.5328811342984437,0.6845572581484913,-0.24928068496845662
1789619980069983500,0.9119833984375,-0.4018015160143375,0.6588987930178641,-0.22785898062475024
1789619980079956500,0.92195654296875,-0.22392332167625426,0.6567474602028727,-0.22226042996533213
1789619980089929200,0.93192919921875,-0.10227437956035136,0.6310846111580729,-0.18048552729226647
1789619980099902500,0.94190234375,-0.03848316765129566,0.5528229753479361,-0.16751937047429383
1789619980109876500,0.95187646484375,0.013066402322053909,0.4591656174853444,-0.24155367091298102
1789619980119849500,0.961849365234375,0.0006248539000749588,0.3326829716026783,-0.3350896674182266
1789619980129822500,0.971822509765625,-0.08470657416582107,0.24478666148483752,-0.46498665178902443
1789619980139795500,0.98179541015625,-0.13740063799917698,0.19951134947538374,-0.598710354841128
1789619980149768400,0.9917685546875,-0.12864099296033382,0.18321107979863882,-0.7354365276448428
1789619980159741400,1.001741455078125,-0.05653846430182457,0.17434797438532113,-0.8471980628009885
1789619980169715500,1.011715576171875,0.03856090906262397,0.17969488837122916,-0.8249407844159752
1789619980179688400,1.0216884765625,0.13151099543869493,0.23165391592830417,-0.6903993352402001
1789619980189661400,1.031661376953125,0.20824352198541163,0.3228700181186199,-0.5216059262420982
1789619980199634400,1.041634521484375,0.25038345857858657,0.3970198346957564,-0.4142906299050897
1789619980209607400,1.051607421875,0.234862064319849,0.368825421346724,-0.3342251595433801
1789619980219580400,1.061580322265625,0.20152911903858184,0.3122013245880604,-0.25604995990768076
1789619980229554400,1.071554443359375,0.16399346137046814,0.328938524377346,-0.20709135627560316
1789619980239527400,1.08152734375,0.10757482405602932,0.4010232251182198,-0.15684563544243574
1789619980249500400,1.09150048828125,0.009923428121209143,0.4422609521746635,-0.0873538007389754
1789619980259473700,1.1014736328125,-0.0647498278081417,0.4759472409382462,0.002296367308869958
1789619980269446400,1.1114462890625,-0.09561725975871085,0.5321349921062588,0.1028376394663006
1789619980279420400,1.12142041015625,-0.04293137923181057,0.5594760034963489,0.18074315531514584
1789619980289393400,1.131393310546875,-0.011924246549606322,0.5717942177996039,0.2526918085861951
1789619980299366400,1.141366455078125,0.011931845334172249,0.5195172103345393,0.2867040413685143
1789619980309339600,1.151339599609375,-0.03012099749743938,0.4328682699292898,0.29604776990562676
1789619980319312400,1.1613125,-0.05780804584622383,0.4060208872750401,0.29885194060616194
1789619980329286400,1.171286376953125,-0.08146832289695739,0.41445962979644535,0.2693775704491883
1789619980339259400,1.18125927734375,-0.16666355736255645,0.4281932638555765,0.24080804017744956
1789619980349232400,1.191232421875,-0.24493863717615602,0.42338820166140795,0.22456578429825602
1789619980359205400,1.201205322265625,-0.268297885453701,0.4254401657551527,0.17455518739521503
1789619980369178400,1.211178466796875,-0.25996318782866,0.4135425149515271,0.1552610696647316
1789619980379152400,1.22115234375,-0.17354279548227786,0.3842185130506754,0.1847913347274065
1789619980389125400,1.23112548828125,-0.019385668471455574,0.34542262618839736,0.22313290195092558
1789619980399098400,1.241098388671875,0.07715572039484977,0.2598909993752837,0.26034568434022365
1789619980409071000,1.251071044921875,0.07292085930407047,0.1574713661253452,0.30410357752405104
1789619980419044400,1.26104443359375,0.0065343702048063276,0.13568506625294685,0.3537417609181255
1789619980429018400,1.271018310546875,-0.11417466071248054,0.23101386445909738,0.4059524251487106
1789619980438991400,1.280991455078125,-0.18852292247116564,0.35281507452726363,0.41431576434634626
1789619980448964400,1.29096435546875,-0.16978665781915186,0.3845043442547321,0.4014727224513888
1789619980458937000,1.30093701171875,-0.14641338101625442,0.2776566654294729,0.35426067022569474
1789619980468910300,1.310910400390625,-0.07213175475299358,0.22153028905987737,0.37467991952858865
1789619980478884000,1.320884033203125,-0.06512216825187206,0.27494243803471324,0.48341450807899233
1789619980488857300,1.330857421875,-0.05042319629192352,0.40749446695894,0.5518495272058993
1789619980498830300,1.340830322265625,-0.044321956807374954,0.4568631857618689,0.6212017342429608
1789619980508803300,1.35080322265625,-0.21798107214570045,0.3139303403377533,0.773797530221194
1789619980518777300,1.36077734375,-0.4140121782898903,0.2694438406184316,0.9400990493383258
1789619980528750000,1.37075,-0.44661739381849763,0.34590573353022336,0.8048190567549317
1789619980538723300,1.380723388671875,-0.4464057968944311,0.3729737731978297,0.6501868595782667
1789619980548696300,1.3906962890625,-0.31771336600780486,0.34310762724429367,0.5694591989807785
1789619980558669300,1.40066943359375,-0.18839549669921396,0.2829898431509733,0.6781663880676031
1789619980568643300,1.410643310546875,-0.06945405997633934,0.20212270101755855,0.8306807893726974
1789619980578616300,1.4206162109375,-0.032923779958486554,0.025479309171438216,0.9427722871355712
1789619980588589300,1.43058935546875,-0.04722819964289665,-0.1511132292702794,0.98078798340559
1789619980598562300,1.440562255859375,-0.08227496310472487,-0.2966819761559367,1.0294134826257824
1789619980608536300,1.450536376953125,-0.24828444047272205,-0.43673546675145625,1.0919582746703178
1789619980618509300,1.46050927734375,-0.40937691970467566,-0.5292167665719986,1.0731812396164984
1789619980628482300,1.470482421875,-0.6030266836702823,-0.6175783561140299,1.0769225450366735
1789619980638455300,1.480455322265625,-0.930419732171297,-0.6433738916277885,1.1077281637974083
1789619980648429300,1.49042919921875,-1.288025548106432,-0.5817424881011247,1.0864687373433262
1789619980658402300,1.50040234375,-1.6288398037165401,-0.47437049314081664,1.161083394953236
1789619980668375300,1.510375244140625,-1.8021259940892458,-0.3319417978465557,1.2840429082110523
1789619980678348300,1.520348388671875,-1.7148422629117965,-0.3675859426796436,1.4188698963299393
1789619980688321300,1.5303212890625,-1.5993185256779192,-0.5923907233655452,1.616380135115981
1789619980698295300,1.54029541015625,-1.9586358217060564,-0.8355570901721715,1.6977127028040586
1789619980708268300,1.550268310546875,-2.26572141071558,-0.9831161340922117,1.5040734602324664
1789619980718241300,1.5602412109375,-2.176189608350396,-1.1553221280127763,1.381775552688539
1789619980728214300,1.57021435546875,-1.9114397707670925,-1.5936366806492208,1.7506037505142389
1789619980738188300,1.580188232421875,-1.188767886018753,-2.2218182638421653,2.2404649505145846
1789619980748161300,1.590161376953125,-0.24500585719346998,-2.962295562133193,2.2748599720694123
1789619980758134300,1.60013427734375,0.6535878271281719,-3.5500951583161946,1.8812424931630491
1789619980768107300,1.610107177734375,1.3034043190240858,-3.942887730705738,1.6053690578885376
1789619980778081300,1.620081298828125,1.6650293074727058,-4.289387046214938,1.5214716081485151
1789619980788054300,1.63005419921875,1.7029437353253363,-4.439096546167135,1.5019458005540072
1789619980798027300,1.64002734375,1.3844132077157496,-4.0981978271439665,1.980070385531336
1789619980808000300,1.650000244140625,1.2048802319079637,-3.5313545097500083,2.7144986129164694
1789619980817974300,1.659974365234375,0.873859640559554,-2.8586718137905,3.7168478552669284
1789619980827947300,1.669947265625,0.9695856213897466,-1.6445239873215556,4.043974946308135
1789619980837920300,1.679920166015625,1.2049380995750427,-0.4386944918647408,3.732610364805162
1789619980847893200,1.689893310546875,1.0298036509871482,0.19653671757876873,3.7924312117785215
1789619980857867300,1.6998671875,0.5470931995242834,0.4565256243705749,3.913051395368576
1789619980867840300,1.70984033203125,-0.3451344568967819,0.5024956406459212,4.06731724345088
1789619980877813200,1.719813232421875,-1.5045178429991006,0.0056415130183100695,3.881434314094484
1789619980887786500,1.729786376953125,-2.982894698047638,-2.470914605219662,2.5775223378092047
1789619980897760500,1.739760498046875,-2.9974422788381574,-2.1637404611438513,2.472565002775192
1789619980907733200,1.749733154296875,-2.968998274642229,-1.4349737666517495,2.4235113412708045
1789619980917706200,1.759706298828125,-4.542084042432904,-0.8415805882453918,2.045915168969333
1789619980927679200,1.76967919921875,-5.362195726191997,3.357352280062437,0.7739502365648746
1789619980937653200,1.7796533203125,-5.029505155804753,4.976910460692644,-0.8527376498147845
1789619980947626200,1.789626220703125,-3.5195278783559796,3.319936157120764,-2.7858710737347603
1789619980957599500,1.799599609375,-4.640346848264336,0.4006415323242545,-2.7652526485979556
1789619980967573500,1.809573486328125,-6.763683987349271,-1.5370023547574876,-3.1087852232560516
1789619980977546200,1.819546142578125,-7.355084530633688,-2.51353384976238,-4.4375878951698535
1789619980987519200,1.829519287109375,-7.474919116804004,-3.8921988692149516,-5.120739085912704
1789619980997492200,1.8394921875,-7.829559653192758,-6.379408775675296,-4.165421643850207
1789619981007466200,1.84946630859375,-0.51310032902956,-5.781882442986965,-3.350965793895721
1789619981017439500,1.859439453125,3.716968266776204,-4.310917617760598,-4.0076656155645844
1789619981027412200,1.869412109375,4.69021007258594,-4.161599747474491,-3.158011026456952
1789619981037385200,1.87938525390625,6.32733138243556,-1.3063959020555018,-1.7277429532781243
1789619981047359200,1.889359130859375,8.639201380863785,2.248898578469455,-1.2088619950205086
1789619981057332200,1.899332275390625,9.959493121802806,5.333277090221643,-2.670531753157079
1789619981067305200,1.90930517578125,8.582674606999754,5.500662532117962,-1.0518120691776276
1789619981077279200,1.919279296875,5.731289150825143,2.9095129432335494,3.0867277052268385
1789619981087252500,1.92925244140625,3.65028308699131,1.474283448255062,4.820208325374126
1789619981097225200,1.93922509765625,1.864105188140273,2.300148873235285,4.193303922510147
1789619981107198200,1.9491982421875,-0.268600083270669,3.400515422223508,2.3389704790607095
1789619981117172200,1.959172119140625,-1.2154869661182164,3.85347517080605,1.28456956243366
1789619981127145200,1.969145263671875,-0.922575448411703,3.008265578408539,1.2203057645767927
1789619981137118500,1.979118408203125,-0.9410621222168206,0.5755602923348546,0.9467004203647374
1789619981147091500,1.989091552734375,-0.35828736845850945,-3.17534093144238,0.24991467202305792
1789619981157065500,1.9990654296875,-0.7723837179005145,-1.049041435420513,2.449730655154586
1789619981167038200,2.0090380859375,-4.959326288685202,5.297196307536959,4.559654770436882
1789619981177011200,2.01901123046875,-4.078294564539194,2.3296450168326497,2.5264684423983095
1789619981186985200,2.028985107421875,-2.940942977502942,-0.7091027936011552,1.6404706202775239
1789619981196958200,2.038958251953125,-3.341896352255344,-0.6224342717126011,0.6230079799473285
1789619981206931500,2.048931396484375,-3.27455884604156,-1.4869845243960618,-0.18727321467101574
1789619981216904400,2.058904541015625,-2.6962229515135285,-2.6931723317712546,-1.8560230039715766
1789619981226878500,2.06887841796875,-2.744175958299637,-3.629837388072908,-3.346202525016665
1789619981236851200,2.078851318359375,-3.486550322383642,-4.567499638718366,-4.1233588641464705
1789619981246824200,2.08882421875,-3.617885961255431,-4.974300570455193,-5.159578811916709
1789619981256798200,2.098798095703125,-3.2553485341370103,-5.4798430314511055,-5.6362336166024205
1789619981266771200,2.108771240234375,-2.437107612685859,-5.735103156155348,-5.548931765246391
1789619981276744400,2.118744384765625,-2.140773134793341,-6.370227105832099,-5.345234654518961
1789619981286718500,2.128718505859375,-1.7275266801789402,-6.3220227546334264,-4.934327456507086
1789619981296691200,2.138691162109375,-0.8584688869431615,-6.498326247000694,-4.682438269540667
1789619981306664200,2.148664306640625,-0.1775666441708803,-6.985933238333463,-4.598044414585829
1789619981316637200,2.15863720703125,0.29535101981312034,-7.3138260530501595,-4.68987455702126
1789619981326611200,2.168611083984375,1.114892356338352,-7.92371911535859,-4.766928570607305
1789619981336584400,2.17858447265625,2.299617104446143,-8.602415664780139,-4.926514152407646
1789619981346557400,2.188557373046875,3.3745968448519705,-8.863044623041153,-4.780030628764629
1789619981356531500,2.198531494140625,4.009109384632111,-8.876030945864319,-4.086702911922336
1789619981366503700,2.208503662109375,4.182143646070361,-8.664683612644671,-2.249012852498889
1789619981376476700,2.2184765625,4.1324738984942435,-8.014562584844231,0.09371697909533977
1789619981386450700,2.22845068359375,4.122755053034425,-7.2703984147340055,2.3612661897599696
1789619981396424000,2.238423828125,4.422816442495584,-6.431041932278871,5.169277783632278
1789619981406397000,2.24839697265625,4.61469510513544,-5.4858969246625895,7.043443178015947
1789619981416371000,2.258370849609375,4.59199928920269,-5.1763551746726035,7.5057859642326825
1789619981426344000,2.268343994140625,4.2260032460629935,-5.336223665067553,6.989466088634729
1789619981436316700,2.278316650390625,3.198543527853489,-5.0995384769737715,6.370851375210285
1789619981446289700,2.28828955078125,1.7354057429909706,-4.25111372192204,6.865867766016721
1789619981456263700,2.298263671875,0.2550222242951393,-2.5878999394387003,8.148965210071205
1789619981466237000,2.30823681640625,-1.061988595277071,-1.646923157417774,11.109341202318667
1789619981476210000,2.3182099609375,-3.5136014109164475,-0.37431086702048777,14.992455724585055
1789619981486184000,2.328183837890625,-6.731300305616855,1.062499467408657,18.249781111752984
1789619981496157000,2.338156982421875,-3.260765298488736,3.237722861075401,18.714965843397376
1789619981506129700,2.348129638671875,-0.9658779990434646,5.158852835729718,18.362674500483273
1789619981516103700,2.358103759765625,0.2983633533716202,5.472535338786244,18.3282707111001
1789619981526076700,2.36807666015625,1.159125611948967,5.654428613984584,17.69444790714979
1789619981536050000,2.3780498046875,1.2636398793905972,7.123459548538923,16.10699634487629
1789619981546024000,2.38802392578125,-0.9163596426367759,8.365247661605476,15.0901737560153
1789619981555997000,2.397996826171875,-4.244681643047929,8.569396607753633,16.427739872360227
1789619981565970000,2.407969970703125,-5.489995007631182,9.464292606601118,17.676010917705298
1789619981575942700,2.417942626953125,-3.6628637516230342,10.323709880310297,17.52430761358738
1789619981585916700,2.427916748046875,0.5103097849955782,10.56313355345726,17.057411401849983
1789619981595890000,2.437889892578125,2.220675815808773,9.173557848411798,14.465476507806777
1789619981605863000,2.44786279296875,-1.245335576415062,6.765647396376728,8.392834172189236
1789619981615837000,2.4578369140625,-6.3291691192567345,4.960366153126955,0.36067397133409973
1789619981625810000,2.467809814453125,-11.12613919238448,3.8243946222722527,-6.048747665289044
1789619981635782700,2.47778271484375,-8.055835090953112,2.523041390559077,-2.359350711527467
1789619981645756700,2.487756591796875,-1.223828093484044,3.2488223472386597,1.6718150220900774
1789619981655729700,2.497729736328125,0.09908230552077293,3.2155852635473012,-0.35959786653518677
1789619981665703000,2.507702880859375,-0.4483656987905502,1.5599743572831153,-3.1517496279746293
1789619981675677000,2.517677001953125,0.4136240557551384,1.9431874926835297,-1.8331547540813684
1789619981685650000,2.52764990234375,2.021688197946548,3.340354383510351,2.061381910431385
1789619981695623000,2.537622802734375,1.942090345096588,3.4520077090516685,1.0936883863985538
1789619981705597000,2.547596923828125,0.039797720848582685,3.30613296495676,-1.4631459681689738
1789619981715569700,2.557569580078125,0.7224175446610898,2.204583928185701,-4.909046884778141
1789619981725542700,2.567542724609375,0.6483236229896545,1.489578632542491,-7.052753442674875
1789619981735516700,2.5775166015625,-0.44491701964139935,1.5421876484408974,-8.02543819912374
1789619981745490000,2.587489990234375,1.6173147856175898,0.44472062028646464,-10.297584089928865
1789619981755463000,2.597462890625,2.650335645085573,-1.3938751558050513,-9.903194311475753
1789619981765437000,2.60743701171875,2.0407494567692277,-1.605682507751882,-7.421973124036192
1789619981775410000,2.617409912109375,-0.9428536818087101,0.3079439594045281,-3.9302918685048818
1789619981785382700,2.627382568359375,-0.538102668339014,4.7558135946139695,-1.4910428598761558
1789619981795356700,2.637356689453125,2.6214813065230844,-1.2420599157452583,-3.298839300817251
1789619981805330000,2.647329833984375,-0.36235096463561056,-2.782649189078808,-4.911889414727687
1789619981815303000,2.657302978515625,-1.94881936109066,-1.6933745274692773,-8.560157654765248
1789619981825277000,2.66727685546875,0.8401439065057784,-2.3647671836182473,-9.77399217750132
1789619981835250000,2.67725,0.1821463731765747,-1.074231990778446,-7.215548049649596
1789619981845222700,2.68722265625,0.16190438013672828,2.1274606487557293,-6.577510842874646
1789619981855196700,2.69719677734375,-1.754200459831953,0.45592970430403945,-2.624332019779086
1789619981865169700,2.707169677734375,2.2744003917336464,-1.593254111072421,0.2980003652781248
1789619981875143000,2.717142822265625,5.522621265947818,0.5104226342529058,0.5763590414971113
1789619981885117000,2.727116943359375,4.743859245187044,1.5536661970496177,1.4237199667096136
1789619981895090000,2.73708984375,3.4721418578028675,0.6224895090311765,3.9020635528862475
1789619981905063000,2.74706298828125,1.3515963952630758,0.18432254817187785,5.712476313805579
1789619981915037000,2.757036865234375,0.4291875355899334,-0.12175941675305366,2.873530067965388
1789619981925009700,2.767009765625,0.4265571870863437,-2.5173224283903837,-0.053364510440826414
1789619981934982700,2.776982666015625,3.9261856022298334,-4.029571742424369,-1.5278478651821612
1789619981944956700,2.786956787109375,2.3050350378416478,-4.39048536773324,1.0187859978884457
1789619981954930000,2.796929931640625,-2.5286165603429076,-3.4746465341001747,3.4395500862777233
1789619981964903000,2.80690283203125,-1.6800275546401737,-4.288389267349243,7.410195592480897
1789619981974877000,2.816876953125,-0.5841583170711994,-6.179691674494743,7.798456074398755
1789619981984850000,2.826849853515625,-0.012615735945105552,-8.478610421413183,5.471509502869844
1789619981994824000,2.836823974609375,0.17436156451925636,-8.235649806311725,6.254135213321447
1789619982004796700,2.846796630859375,0.10553645009621977,-5.631779559803008,4.8191976870268585
1789619982014770000,2.85677001953125,0.7060907523036003,-4.720093169674277,2.7550930736333132
1789619982025366800,2.86736669921875,1.1404175504781304,-4.4862353139609095,2.1637153267025946
1789619982035340800,2.8773408203125,0.48307212438210845,-4.442862620702385,1.1682599355190992
1789619982045313800,2.887313720703125,-0.660008800086379,-4.20916960016191,1.3205313949137925
1789619982055286800,2.897286865234375,-1.3901520436286925,-0.9856640650093554,0.5761135423034429
1789619982065260800,2.9072607421875,-1.6468921777576206,5.678186506190896,-2.1199042420268057
1789619982075234000,2.917234130859375,0.4765285479575395,8.706381650689243,-5.011319510772824
1789619982085206800,2.927206787109375,2.115259631091356,4.4758033517956735,-4.562261738064885
1789619982095180800,2.937180908203125,0.7190747370392083,3.4639281562089916,-0.44466976688206195
1789619982105153800,2.94715380859375,-0.11966682838797568,1.9657652351945638,0.8802069637596607
1789619982115126800,2.957126708984375,0.048257542690634724,-0.523449289086461,0.38217970069944857
1789619982125100800,2.967100830078125,0.34713936697840686,-2.183811773791909,0.10207330403029918
1789619982135073800,2.97707373046875,0.3575689910560846,-2.3770447736501694,-0.08221358830630779
1789619982145047800,2.9870478515625,-0.0076829191854223605,-1.6365777044922112,0.20341011047959326
1789619982155020800,2.997020751953125,-0.33930443556904794,-1.2541758854746818,0.3269692701309919
1789619982164993800,3.006993896484375,-0.13937979258503763,-1.0491396350979805,0.01815057371854782
1789619982174967800,3.0169677734375,0.13213760290443896,-0.5450187313377857,-0.18941490287482737
1789619982184940800,3.02694091796875,0.18576869185958056,-0.11389642829298972,-0.37028935641944405
1789619982194913800,3.036913818359375,0.11884499061107635,1.7397949178606271,-0.07156652208566665
1789619982204887800,3.0468876953125,-0.06336394467400387,6.1067012570858,0.5685422302663325
1789619982214860800,3.05686083984375,-0.2966500831803307,7.965700646519661,-1.3200707916647194
1789619982224833800,3.066833740234375,0.1193202251737006,7.582384635266661,-1.81129363540709
1789619982234807800,3.076807861328125,0.6026537587046623,9.64765829243958,-0.3877881882309913
1789619982244780800,3.08678076171875,0.8009966489225625,10.903353350305556,0.6029886897474527
1789619982254754800,3.0967548828125,0.34773262016382067,9.08509630562663,0.47532151025533675
1789619982264727800,3.106727783203125,0.19996614403817803,7.292104050585627,0.8856073614984751
1789619982274700800,3.11670068359375,-0.21743220609128475,4.1524043413668865,-0.12729250096082687
1789619982284674800,3.1266748046875,-0.5761258172631264,2.093232508200407,-1.1378186200261116
1789619982294647800,3.136647705078125,-0.05251636917889118,3.074012892821431,-0.5988619652062654
1789619982304620800,3.146620849609375,0.17029164819922296,3.0281214947402475,-0.4053396270126104
1789619982314594800,3.1565947265625,-0.47069973220620304,1.6119786852866411,-0.807456200325489
1789619982324567800,3.16656787109375,-0.129957336255908,1.8657067781180143,-0.814050776284933
1789619982334541800,3.176541748046875,-0.1635240902930498,0.9392530269682406,-0.8663111248761415
1789619982344514800,3.186514892578125,0.057219468835927545,0.10233049366176128,-0.2940776388764381
1789619982354487800,3.19648779296875,1.478006268170476,-3.313625366538763,-1.7396721682637928
1789619982364462300,3.20646240234375,2.9381314272135493,-11.700489232146738,-4.550710416480898
1789619982374435300,3.216435302734375,-2.296622744935751,-25.478467459917066,6.097752226954698
1789619982384408600,3.22640869140625,-3.0944097841620444,-27.644953420376776,12.13192133179307
1789619982394382600,3.236382568359375,3.093393885117769,-7.614943673565984,-0.3166699944347143
1789619982404355600,3.24635546875,1.3560901995509862,-2.8528648810774087,-1.2100029817491769
1789619982414329600,3.25632958984375,-0.06266308466196059,-3.335952933681011,-0.45636137371957297
1789619982424302300,3.26630224609375,-0.17128244933485984,-2.6783248912513256,-0.6442208638459443
1789619982434275300,3.276275390625,-1.23027010923028,5.390312982651591,-3.731453888246417
1789619982444249300,3.286249267578125,-2.498690793156624,6.506286266094445,-0.543455135282874
1789619982454222300,3.296222412109375,0.2484492573793046,-3.005414572891593,0.09916355406343937
1789619982464195600,3.306195556640625,0.844950356939435,-3.837518892261386,-1.1050000540077685
1789619982474169600,3.316169677734375,0.6381459278464316,-2.2488275590598583,1.1713082171738147
1789619982484142300,3.326142333984375,-0.2582844592277892,-1.3075713755756615,1.6691314820945262
1789619982494116400,3.336116455078125,-0.938334743079543,-1.3079782028108835,1.3791729689747094
1789619982504089300,3.34608935546875,-1.199458206859231,-1.1390811873078346,1.004842812731862
1789619982514062300,3.356062255859375,-1.046516300857067,-1.2035329089522362,0.38956571929752826
1789619982524036400,3.366036376953125,-0.2680944718360901,-1.7006781284809112,0.22663725681006908
1789619982534009300,3.37600927734375,0.10224690703153609,-1.574855700072646,0.8129752560079098
1789619982543983400,3.3859833984375,0.3542132508873939,-1.207837328147888,1.1469739863842725
1789619982553956600,3.39595654296875,0.16826514734029768,-0.8383733166366815,1.4430267247259616
1789619982563929300,3.405929443359375,0.2754863356530666,-1.2826648978561161,1.2107429864615202
1789619982573903400,3.4159033203125,0.49749476361870765,-1.4723527724534273,0.6571843903154134
1789619982583876400,3.42587646484375,-0.1033574986219406,-1.0881365974903106,-1.398980077728629
1789619982593850400,3.435850341796875,-0.9379261622786521,2.8956764333218334,-0.03466331710219383
1789619982603823400,3.4458232421875,0.2324351294338703,5.217305024698376,2.9452333681732417
1789619982613796400,3.45579638671875,0.7214367899954318,1.787988747665286,1.6726181551665067
1789619982623770400,3.465770263671875,0.013097948237787932,0.24831892726421353,0.12929390391111373
1789619982633743600,3.47574365234375,-0.3715384796977043,0.4420867646515369,0.44054187329709527
1789619982643717600,3.485717529296875,-0.44796237868666644,0.9493214165180921,0.4979278943389654
1789619982653690400,3.4956904296875,-0.2564858671069145,0.5966010345369577,0.4578115725278854
1789619982663663400,3.505663330078125,-0.19049214018490165,0.35315643531084057,0.3109422644376755
1789619982673637400,3.515637451171875,-0.03743745799064636,0.26582594238221646,0.49650166092813014
1789619982683610400,3.5256103515625,0.29376082801222797,0.41296646862924097,0.5256184498190879
1789619982693584400,3.53558447265625,0.26521628605127334,0.6313496918350457,0.479644049629569
1789619982703557400,3.545557373046875,0.13514964420199393,0.7509364407241343,0.5255038835287094
1789619982713530400,3.5555302734375,0.1359258892714977,0.8998743717819452,0.5286252304196357
1789619982723504400,3.56550439453125,0.16913725399971008,1.0212076720774173,0.5319248564869166
1789619982733477400,3.575477294921875,0.23884499647617338,1.1975900748997925,0.6706377461284398
1789619982743451400,3.585451416015625,0.3475006015062332,1.1926590482383965,0.8210878353148698
1789619982753424400,3.59542431640625,0.4622516008019447,1.0601952821195124,0.9674345808357
1789619982763397400,3.6053974609375,0.16303718355894087,0.8074544467598199,0.7151005727112293
1789619982773371400,3.615371337890625,0.13151157996058463,0.7881582101374864,0.7902525520682334
1789619982783344400,3.625344482421875,0.008822773402929305,0.9326876771032809,0.7309148124366999
1789619982793318400,3.635318359375,0.0008020370978862047,0.9960229619383811,0.36645255473554134
1789619982803291400,3.64529150390625,-0.2574221981089562,0.9336714274436235,0.21288404126763344
1789619982813264400,3.655264404296875,0.054767362976074214,0.8723141646832228,0.2283750403881073
1789619982823238400,3.66523828125,0.26817403987832367,0.7638420995265245,0.08334054650962353
1789619982833211400,3.67521142578125,0.35633513841219244,0.5963342002943158,-0.008300795355439186
1789619982843185400,3.685185302734375,0.3626479017555713,0.39905309408903117,0.0058253451526165
1789619982853158400,3.695158447265625,0.4697323119461536,0.47448944334536786,0.3860334535181522
1789619982863131600,3.705131591796875,0.09895824074968695,0.22557927218973636,0.2869879728764295
1789619982873105400,3.71510546875,-0.37232751118354496,0.042103111714124675,0.63104340236485
1789619982883078400,3.725078369140625,-0.18238485810756683,-0.04515460823923349,1.030346671822667
1789619982893052400,3.735052490234375,-0.12251593420878051,-0.10691139171123504,1.2983955509513616
1789619982903025400,3.745025390625,-0.2362790915109217,-0.1576905618339777,1.325741238516569
1789619982912998400,3.754998291015625,0.0035645606137812134,0.035353052932024,1.3945178376227616
1789619982922972400,3.764972412109375,0.23177228161096572,0.25756752486377954,1.2041332129329443
1789619982932945400,3.7749453125,0.2512251700997352,0.4312663876906037,0.8468681732594966
1789619982942919400,3.78491943359375,-0.12306048941425979,0.2828358216330409,0.4947025025516748
1789619982952892400,3.794892333984375,0.04242226066589355,0.2696063377037644,0.3546908052712679
1789619982962866400,3.804866455078125,0.2949906620681286,0.20842735411971805,0.29440497113466263
1789619982972839400,3.81483935546875,0.39147893250770865,0.19307225633859634,0.4195364946693182
1789619982982812400,3.8248125,0.12609905339255928,-0.09825608382970094,0.2503203302145004
1789619982992786400,3.834786376953125,-0.10686696804761886,-0.41729894487559793,0.18833236833512781
1789619983002759400,3.844759521484375,-0.19787585722804069,-0.7547267729178071,0.24025778588354585
1789619983012733400,3.8547333984375,-0.17056129545345902,-0.9086702571779489,0.3300362564861774
1789619983022706400,3.86470654296875,0.03410919035077095,-0.7178583469867705,0.25571254464685916
1789619983032679400,3.874679443359375,0.110607908141613,-0.4045166201919317,-0.2422609423995018
1789619983042653400,3.8846533203125,-0.22513430490121245,-0.6431736928805708,-0.9542787466645241
1789619983052626400,3.89462646484375,-0.05608282948881387,-0.47447892195135355,-1.1051327404767275
1789619983062600400,3.904600341796875,0.21335151264891028,-0.2835957000896335,-1.4490361942738295
1789619983072573400,3.914573486328125,0.3516774487994611,-0.10989420691430568,-1.4317308392077683
1789619983082547500,3.92454736328125,0.3845381003938615,-0.08755816420465708,-1.0705015720784663
1789619983092520400,3.9345205078125,0.17073767493367195,-0.05765314754545688,-0.8623392986357211
1789619983102493400,3.944493408203125,-0.13389657540097832,-0.19470219562798738,-0.5902338375926017
1789619983112467500,3.954467529296875,-0.5815864207565784,-0.5108709625422955,0.2329407408684492
1789619983122440400,3.9644404296875,-0.2824060519136488,-0.830750274412334,0.7105693590223788
1789619983132414500,3.97441455078125,-0.08086042013168335,-0.8612982651501894,0.6905646818697452
1789619983142387500,3.984387451171875,-0.3504256951726973,-0.89378540725708,0.44573125863373275
1789619983152360400,3.9943603515625,-0.1680572036780417,-0.86030866959095,0.1936181997835636
1789619983162334500,4.00433447265625,-0.329610870680958,-0.8687199395835399,-0.30167116274535655
1789619983172307500,4.014307373046875,0.16463906579762697,-0.8584057585790753,-0.4950982238709926
1789619983182281500,4.024281494140625,0.5721754722021519,-0.879393309289217,-0.7502355989784002
1789619983192254200,4.034254150390625,0.7339898359678685,-0.6320403044477104,-0.8811410297393798
1789619983202228200,4.044228271484375,0.8851249848090111,-0.4777221416562795,-1.2381167310774326
1789619983212201500,4.054201416015625,1.0209344080939888,-0.49142187344580884,-1.5955881069779394
1789619983222174500,4.064174560546875,1.3205880935370922,-0.19818433865532278,-1.6909230426639317
1789619983232148500,4.0741484375,1.5472412785686551,-0.06772796683609485,-1.5687848557263613
1789619983242121500,4.08412158203125,1.7416963675677775,0.053023003526777024,-1.4062497764706612
1789619983252095500,4.094095458984375,2.2299312815405425,0.46630672141164536,-2.243367540088296
1789619983262068500,4.104068359375,-0.17858897295594214,0.2103840411454439,-2.059161896294355
1789619983272042500,4.11404248046875,0.6825031020976603,-0.26546894563809037,-1.3610896152734755
1789619983282015200,4.12401513671875,1.5157996999919414,0.05058993116095662,-0.9475766186773776
1789619983291988500,4.133988525390625,1.363913002131134,-0.11161328579187392,-0.9411837027698755
1789619983301962500,4.14396240234375,0.8407086277164518,-0.2861504991389811,-0.777237587672472
1789619983311935500,4.153935546875,0.22673034192100167,0.060601768217980856,-0.5859358481377362
1789619983321909500,4.163909423828125,0.6263024914480746,0.25269568104371426,-0.6457610790252685
1789619983331882500,4.173882568359375,-0.7169289571821689,0.2114392492868006,-1.4516764796495436
1789619983341856500,4.1838564453125,-0.4754826921664178,0.3906241423092782,-1.0242319883346558
1789619983351829500,4.19382958984375,0.04964826639667153,0.24476269608736037,-0.8926841680169105
1789619983361803300,4.20380322265625,0.21535320786014198,0.1275343468926847,-1.0665227315753698
1789619983371776500,4.213776611328125,-0.027695816177129743,0.42441053044646976,-0.946384194022417
1789619983381749500,4.22374951171875,-0.4496247589409351,0.5586240628421306,-1.033477955585718
1789619983391723500,4.2337236328125,-0.8263876952886581,0.4752095743134618,-1.046072648742795
1789619983401696800,4.24369677734375,-0.7373802090585231,0.4290852442592382,-1.0178770663499832
1789619983411670800,4.2536708984375,-0.433762150029093,0.38118119118139143,-1.0195832857459783
1789619983421643500,4.2636435546875,-0.48887766885571177,0.3523936342447996,-0.9770569801837206
1789619983431617500,4.273617431640625,-0.953835825202614,0.24723332398459313,-1.2054197456121445
1789619983441590500,4.283590576171875,-0.872821968074888,0.17669380685910582,-1.5588772096961736
1789619983451563500,4.2935634765625,-0.7067126105289906,0.2192944928318262,-1.6066741491377352
1789619983461537500,4.30353759765625,-0.8679039470255374,0.24874241337329148,-1.393596046602726
1789619983471510500,4.313510498046875,-1.1851332558434455,0.18656448187977073,-1.022853101196885
1789619983481484500,4.323484619140625,-1.5646785894513129,0.0344686713129282,-0.6165788236826658
1789619983491457500,4.33345751953125,-1.4130746540546417,-0.2283575047314167,-0.6224029997915029
1789619983501431600,4.343431640625,-1.1366274374801666,-0.42019525083899495,-0.7241653381764889
1789619983511404500,4.353404541015625,-1.051565474005416,-0.5275234066575766,-0.8005535813301802
1789619983521378600,4.363378662109375,-1.0433831904631108,-0.4789733107611537,-0.6789736127972602
1789619983531351600,4.3733515625,-1.0064929180264472,-0.465611724884808,-0.8093570655107498
1789619983541324500,4.383324462890625,-0.8226385718882083,-0.42765842632651324,-1.0549439374625682
1789619983551298600,4.393298583984375,-0.771043993729353,-0.342784386639297,-1.1856138059020043
1789619983561271600,4.403271484375,-0.8231459368884563,-0.2768579162672162,-1.3272177408099173
1789619983571245600,4.41324560546875,-0.8332137419164181,-0.11534896518886088,-1.3872931470662355
1789619983581218600,4.423218505859375,-0.734297440612316,0.03326806335151195,-1.406899180290103
1789619983591192600,4.433192626953125,-0.8925696017265319,0.16824790394455194,-1.268396134006977
1789619983601165600,4.44316552734375,-0.9832757085680961,0.274974586738646,-1.0691752919107675
1789619983611139600,4.4531396484375,-0.8527531396448612,0.2801809232100844,-0.7346879012346267
1789619983621112600,4.463112548828125,-0.9328250397473573,0.24704087015241383,-0.1275830083400011
1789619983631085600,4.47308544921875,-0.996636709922552,0.07667436661869287,0.3174596835076809
1789619983641059600,4.4830595703125,-0.6731149498969317,-0.11677402955591679,0.6106108551889657
1789619983651032600,4.493032470703125,-0.6960159330129623,-0.2944894345477223,1.0685334868758916
1789619983661006600,4.503006591796875,-0.8278834868043661,-0.5064776960194111,1.4275573529154062
1789619983670979600,4.5129794921875,-0.7637327939331531,-0.606238923715055,1.8465888206720351
1789619983680953600,4.52295361328125,-0.6359113006621598,-0.5289911411225795,1.9195663785994053
1789619983690926600,4.532926513671875,-0.3846534338692203,-0.3557008590966463,1.6826888828039168
1789619983700900600,4.542900634765625,-0.29023791458308695,0.05610650262534618,1.5524848783105611
1789619983710873600,4.55287353515625,-0.5138730669677257,0.6159320502117276,1.338471540752053
1789619983720847600,4.56284765625,-0.5270703291278332,1.093768465897441,0.911489990773797
1789619983730820600,4.572820556640625,-0.42974516947269437,1.5768565185010432,0.5328823033422231
1789619983740793300,4.58279345703125,-0.40445349182784557,1.8271166429609058,0.15257599529922009
1789619983750767400,4.592767333984375,-0.315340791657567,1.8997142616599798,0.007893968120217323
1789619983760740600,4.60274072265625,-0.6355969009507447,1.8286486748337745,0.3170142778277397
1789619983770714600,4.612714599609375,-0.4998750098187476,1.5902333019465207,0.5303226819872856
1789619983780687600,4.6226875,-0.17932495908029378,1.2149053668379783,0.2544388714492321
1789619983790661600,4.63266162109375,-0.3657547086644918,0.9091869745284319,0.1986456725567579
1789619983800634600,4.642634521484375,-0.5000965436149388,0.6631769087284803,0.3663970251560211
1789619983810608600,4.652608642578125,-0.7231868485331535,0.4272591978758573,0.5297387446194887
1789619983820581600,4.66258154296875,-0.7748954815257341,0.1989987237781286,0.6489391245394944
1789619983830555600,4.6725556640625,-0.7152993101537227,0.10132219340205192,0.9070932171195745
1789619983840528400,4.6825283203125,-1.0396710380721836,-0.06014554888308048,1.3883107996761799
1789619983850502400,4.69250244140625,-0.926228637157008,-0.3535311138421297,1.5716326463729142
1789619983860475600,4.7024755859375,-0.006124108903482556,-0.532916205611825,1.3597148197889328
1789619983870449700,4.71244970703125,-0.4430939689327031,-0.5659305864632129,1.6896557992070913
1789619983880422700,4.722422607421875,-0.7450888106744736,-0.5027092833966017,1.5183692582190036
1789619983890395600,4.732395751953125,-0.6896908947099,-0.27514205226004124,1.3331594058185816
1789619983900369700,4.74236962890625,-0.5392933394283056,-0.05072656315267086,1.2748112617462872
1789619983910342700,4.7523427734375,-0.5011106160283089,-0.05211188003122806,1.080968605557084
1789619983920316700,4.762316650390625,-0.43768538788743316,-0.08261223223507404,1.0475222630292176
1789619983930289400,4.772289306640625,-0.3408441392917186,-0.2389443651974201,0.9522621461451053
1789619983940263400,4.782263427734375,-0.1505453662544489,-0.37944822990894317,0.8827367744982242
1789619983950236700,4.792236572265625,0.28579898228757084,-0.21076982559263704,0.9680962596148251
1789619983960210700,4.802210693359375,-0.08039455618560314,-0.20735504871308802,0.9626151978552341
1789619983970183700,4.81218359375,-0.39578210959434507,-0.10681436107754706,1.0086445431023836
1789619983980157700,4.82215771484375,-0.4692571687150746,-0.14882044215798376,1.0272025285780428
1789619983990130700,4.832130615234375,-0.4511767376232892,0.21615561028420924,1.4975883359968662
1789619984000104700,4.842104736328125,-0.4746745175886899,0.3191612267285585,1.8417279366374015
1789619984010077400,4.852077392578125,-0.5586731626808643,0.1872825670212507,2.121710999187827
1789619984020051500,4.862051513671875,-0.5400660773664713,0.09776303961575031,2.430406946003437
1789619984030024400,4.8720244140625,-0.5295015017975121,0.09638006082475185,2.6957500733047723
1789619984039997700,4.881997802734375,-0.47373986708708105,0.2152852571904659,2.5950544873684644
1789619984049971500,4.891971435546875,-0.3827917681831866,0.2696586524128914,2.1929811686754226
1789619984059944700,4.90194482421875,-0.35001579919755454,0.14535598091781138,1.6603350121766327
1789619984069918700,4.911918701171875,-0.2228279276549816,0.27908406788408757,1.3381348561435937
1789619984079891700,4.9218916015625,-0.054583238580822944,0.3650654842913151,0.8521504975765943
1789619984089865700,4.93186572265625,-0.030692659905552862,0.2889589806884527,0.3708323772549629
1789619984099838500,4.94183837890625,-0.22807992989905176,0.332146380507946,0.16373627173900604
1789619984109812500,4.9518125,-0.28191549191772936,0.4473983150631189,0.10384791248738764
1789619984119785500,4.961785400390625,-0.3366950567882508,0.5592009859472513,-0.05251695370078086
1789619984129759500,4.971759521484375,-0.4011696478515863,0.6741781952142715,0.008571428990364074
1789619984139732500,4.981732421875,-0.3072527622699737,0.6256932735085488,0.2072901667833328
1789619984149706500,4.99170654296875,-0.44918746350221334,0.5204758262336254,0.44562312208414073
1789619984159679700,5.0016796875,-0.5471469755381345,0.3122702981710434,0.6770686559587716
1789619984169653800,5.01165380859375,-0.5035766408156603,-0.1367103176474571,1.0847311729609965
1789619984179626500,5.02162646484375,-0.38974151425585146,-0.46837680568397044,1.4450070848882197
1789619984189600500,5.0316005859375,0.2777962930958718,-0.89223759329319,1.2158505387336016
1789619984199573500,5.041573486328125,0.6470329986572265,-1.0198737931251525,1.160604452329874
1789619984209547500,5.051547607421875,0.8615198720116167,-0.9011901305556297,1.0474404299646616
1789619984219520500,5.0615205078125,1.0665625521291047,-0.9097253191888331,0.7988654821127653
1789619984229494500,5.07149462890625,1.10280393220298,-0.9894003289282322,0.5005068049162626
1789619984239467500,5.081467529296875,0.9718260207276791,-1.1264490847498179,0.20019524008631706
1789619984249441500,5.091441650390625,0.6522994678180665,-1.1303057601779698,-0.01132218900322914
1789619984259414800,5.101414794921875,0.3970797481894493,-1.1168512353211641,-0.08414075697660446
1789619984269388800,5.111388916015625,0.17157288364879786,-1.0340858583509922,-0.16294249101281166
1789619984279361500,5.121361572265625,-0.0023807576566934586,-1.0096142649173736,-0.14412088616490362
1789619984289335600,5.13133544921875,-0.20270335044972598,-0.959472808176279,-0.0634340690344572
1789619984299308500,5.14130859375,-0.4840192690391093,-0.8266513146609067,0.013999299257993697
1789619984309282600,5.151282470703125,-0.7933411657333374,-0.6546072333037853,0.24984745200574396
1789619984319255600,5.161255615234375,-1.0440700036834925,-0.5919634378641844,0.5628267752289772
1789619984329228500,5.171228515625,-1.0008574694227426,-0.6238321558117866,0.658014995920658
1789619984339202600,5.18120263671875,-1.0129268235314637,-0.6982137353181839,0.8370867839574814
1789619984349175800,5.19117578125,-1.2851339183181523,-0.5815975266724824,1.2616145110428332
1789619984359149600,5.201149658203125,-1.4643980140566826,-0.45529754388034344,1.6682202124685048
1789619984369122300,5.211122314453125,-1.2923749754875897,-0.31843291245400906,1.8782570476114748
1789619984379096300,5.221096435546875,-0.9420482106447219,-0.14791969392597673,1.4255822534501552
1789619984389069300,5.2310693359375,-0.7562059055596589,-0.07666998270452022,0.8264853104442358
1789619984399043300,5.241043212890625,-0.602613463226892,-0.0023246435552835465,0.4680383675098419
1789619984409016300,5.251016357421875,-0.3114724257916212,0.014097498935461044,0.3242337076872587
1789619984418990300,5.260990234375,-0.1280091247975826,-0.10123100798726081,0.2677180397391319
1789619984428963000,5.270963134765625,-0.17504618578255177,-0.2871428711771965,0.5395037673085927
1789619984438937000,5.28093701171875,-0.1962099698424339,-0.5366513004869222,0.5828507416039705
1789619984448910300,5.290910400390625,-0.20967972880098967,-0.684863839879632,0.5881815812379122
1789619984458884400,5.30088427734375,-0.12517127102315426,-0.5009586403369903,0.6399409945696592
1789619984468857300,5.310857421875,-0.1665659056743607,-0.10900339555442333,0.6379799236297607
1789619984478831400,5.320831298828125,-0.252931937485002,0.3182160548329353,0.5873141507536173
1789619984488804400,5.330804443359375,-0.22504326561689375,0.6588742430984974,0.5150801046699285
1789619984498778400,5.3407783203125,-0.31019407641887664,0.7363152101755142,0.6779436852276325
1789619984508751400,5.35075146484375,-0.11259061552458442,0.6399778194487095,0.9316349531799555
1789619984518725400,5.360725341796875,0.1524316183924675,0.47961365449130533,1.3586667720407246
1789619984528698000,5.370697998046875,0.19169921441972254,0.2806318818479776,1.8342238446176051
1789619984538672000,5.380672119140625,0.1526262641817331,0.2794213370144367,2.369523730495572
1789619984548645400,5.390645263671875,0.08922960454821587,0.38193946220278735,2.6802345242649315
1789619984558619100,5.400619140625,-0.035141456007957456,0.49328912862241264,2.624429050412774
1789619984568592400,5.41059228515625,-0.0019230861502233891,0.7150397824347019,2.4351544327914714
1789619984578566400,5.42056640625,0.09516834694743156,0.8205570894390344,1.5646552085757255
1789619984588539400,5.430539306640625,0.028221885877847668,1.0042992073744534,0.8467354867905378
1789619984598513400,5.440513427734375,-0.021241562003828585,1.178985912194848,0.4378092334628105
1789619984608486100,5.450486083984375,0.11589436064455658,1.1926631398916243,-0.028510055169463155
1789619984618460200,5.460460205078125,0.34258827954530713,1.0875570440366864,-0.275379368147254
1789619984628433200,5.47043310546875,0.45087099614236503,0.8455155896067619,-0.4066302513450384
1789619984638407200,5.4804072265625,0.48960832121782,0.51192544003129,-0.296364288508892
1789619984648380200,5.490380126953125,0.5048480489909649,0.14677023162990807,-0.24985212818086147
1789619984658354200,5.500354248046875,0.4343487908106297,-0.24776392372995615,-0.16408347774147986
1789619984668327400,5.510327392578125,0.4617125985544175,-0.4806260464042425,-0.23658874198198318
1789619984678301400,5.520301513671875,0.3040764703214168,-0.6905854323968291,-0.6348369494289159
1789619984688274400,5.5302744140625,0.13570260190963745,-0.7160460368677973,-0.8038000159054994
1789619984698248400,5.54024853515625,0.22597733159661293,-0.4364797384247184,-0.6984077965855598
1789619984708221200,5.55022119140625,-0.022414076381921767,-0.39502310792058704,-0.782461459800601
1789619984718195200,5.5601953125,-0.015957520653679967,-0.3588862111344933,-0.44375440560281276
1789619984728168200,5.570168212890625,-0.03269099411591887,-0.32698271413445473,-0.21426117483973503
1789619984738142200,5.58014208984375,-0.4760195024568587,-0.7071677338853478,-0.21841654095351695
1789619984748115200,5.590115234375,-0.41910913610272105,-0.7504723303437233,0.2069599119156599
1789619984758089200,5.600089111328125,-0.04206336422562599,-0.7006395011603832,0.6281663856238127
1789619984768062500,5.6100625,-0.031895021432638164,-1.068902027927339,0.8002157276779412
1789619984778036500,5.620036376953125,0.2355938857257366,-1.3991454974234103,0.8361158930987119
1789619984788009500,5.630009521484375,0.21704357209987937,-1.635000079911947,1.081739005407691
1789619984797983200,5.639983154296875,0.43676060119271276,-1.4943597293391824,0.9079676618665457
1789619984807956200,5.649956298828125,0.31059856556653975,-1.225428222157061,0.5723655879467725
1789619984817930200,5.65993017578125,-0.0001530716698616743,-0.8323919041395187,0.2244797865152359
1789619984827903200,5.6699033203125,-0.31462709043025966,-0.8692954013839364,-0.3631938452005386
1789619984837877200,5.679877197265625,-0.21004092679619787,-0.8345394375622271,-0.07396890705227852
1789619984847850200,5.689850341796875,0.28124256109222767,-0.8146192238226533,-0.07917056734859942
1789619984857824300,5.69982421875,0.3744388773143291,-0.9101613725185393,-0.47006198229193685
1789619984867797200,5.70979736328125,0.5023135620772838,-0.817568136756122,-0.7142138530045747
1789619984877771300,5.719771240234375,0.7593510717175901,-0.4466685394838452,-0.7594055783838033
1789619984887744300,5.729744140625,0.18661796563267707,-0.4386053522765636,-1.1134528250545264
1789619984897718300,5.73971826171875,0.6430407141506671,-0.41948038056790826,-0.852035346764326
1789619984907691300,5.749691162109375,0.9937503408312797,-0.6354207406662404,-1.6592542312026022
1789619984917665300,5.759665283203125,1.475001241135597,-0.4698395717129111,-2.255338548389077
1789619984927638300,5.76963818359375,2.0859179474033414,-0.28267259389534594,-2.734635976538062
1789619984937612300,5.7796123046875,2.3745149629116056,0.20954510610327123,-2.657066414645314
1789619984947585300,5.789585205078125,2.6572914555728433,0.3723348907724023,-2.8669945287168024
1789619984957559300,5.799559326171875,2.3645783830478786,0.5418722500056028,-3.0192554667174814
1789619984967533300,5.809533203125,1.4714206061698496,1.0302198305726051,-2.717281521633267
1789619984977506300,5.81950634765625,0.2417500702679157,0.3511696454077959,-2.5736510493338107
1789619984987480300,5.829480224609375,0.31398075535073877,0.03579129821881652,-1.6418956846445798
1789619984997453300,5.839453369140625,0.22980112766847013,-0.01793313157558441,-1.1657996828854083
1789619985007427300,5.84942724609375,-0.3959599503792822,-0.1168193300023675,-1.34060329208374
1789619985017400300,5.859400390625,-0.1903859398640692,-0.33456089430376884,-1.3295190034896134
1789619985027374300,5.869374267578125,0.2528970488347113,-0.012926117068529128,-0.9301987828969955
1789619985037347300,5.879347412109375,0.16716507714390755,0.285685365845263,-0.9630594344913959
1789619985047321300,5.8893212890625,-0.08503872872963547,0.45484483167678114,-0.8277478777259588
1789619985057294300,5.89929443359375,-0.36768078135624527,0.0708769323863089,-0.8351718902468681
1789619985067268400,5.909268310546875,0.02942717001438141,-0.2942087179102003,-0.937980522814393
1789619985077241000,5.919240966796875,0.31754853083491325,-0.3846026900626719,-1.4883762710154056
1789619985087215000,5.929215087890625,0.3146083857297897,-0.5065726808264851,-2.0379022506445645
1789619985097188400,5.939188232421875,0.19005159334316848,-0.5961981528244912,-2.307751457193494
1789619985107162000,5.949162109375,0.04308978466391563,-0.7373480603545903,-2.4470225652396675
1789619985117135400,5.95913525390625,0.07253909344486892,-0.8205359005205333,-2.5470097106456757
1789619985127109400,5.969109375,-0.05967858895845711,-0.7079445634767413,-2.3608120162516832
1789619985137082400,5.979082275390625,-0.3589477320633828,-0.47639893022850155,-1.9576456416249275
1789619985147056400,5.989056396484375,-0.5863432233622298,-0.26491321145147084,-1.5228490339815615
1789619985157029400,5.999029296875,-0.8747614847701043,-0.16950667183399198,-0.9503151037305593
1789619985167003400,6.00900341796875,-1.0673498300492763,-0.18702362382411955,-0.5289291818022728
1789619985176976100,6.01897607421875,-1.0343816264271735,-0.31109336334615945,-0.3290969298094511
1789619985186950100,6.0289501953125,-1.214848083692789,-0.42955519985854623,-0.13956746064424513
1789619985196923100,6.038923095703125,-1.0232944152235983,-0.5574769386336207,-0.186938868150115
1789619985206897200,6.048897216796875,-0.8181050201117992,-0.521966649313271,-0.42053953423202034
1789619985216870400,6.058870361328125,-0.7627367686331271,-0.3191226482838392,-0.5575345140397548
1789619985226844400,6.068844482421875,-0.7697814264476299,-0.008973580050468444,-0.6239350316643715
1789619985236817400,6.0788173828125,-0.6219383048892021,0.2582286191210151,-0.8598094878971576
1789619985246791400,6.08879150390625,-0.48382045853137967,0.4370829650148749,-1.225646541082859
1789619985256764200,6.09876416015625,-0.4339350223779678,0.6275538066834211,-1.300235625860095
1789619985266738200,6.10873828125,-0.5665834974139928,0.8250809966042637,-1.267183835607767
1789619985276712200,6.118712158203125,-0.7092816572993993,0.8806418480455875,-1.296755382528901
1789619985286685200,6.128685302734375,-0.5917290445864201,0.9077090109303593,-1.2936848890423773
1789619985296659200,6.1386591796875,-0.5487263171514496,0.9155912886127829,-1.0609043071717024
1789619985306632200,6.148632080078125,-0.6769061588734387,0.8997633126229048,-0.6755167503416538
1789619985316606200,6.158606201171875,-0.6956283950001001,0.6907116891250014,-0.5389379501193762
1789619985326579500,6.168579345703125,-0.5429384544650092,0.4288564039394259,-0.5973538987308741
1789619985336553200,6.17855322265625,-0.28620303304381667,0.3373950948163867,-0.52171676620543
1789619985346526500,6.1885263671875,-0.5224643697023391,0.35233985823094843,-0.11449497870802879
1789619985356500500,6.19850048828125,0.004251739160344005,0.3370657167315483,-0.147555536788702
1789619985366473200,6.20847314453125,0.22190679422207174,0.25563597227931023,0.06792962688803672
1789619985376447000,6.218447021484375,-0.35668818963356314,0.2648071207284927,0.7076952648907899
1789619985386420000,6.228419921875,-0.502535095873475,0.23454116180241105,1.1746885072618722
1789619985396394000,6.23839404296875,-0.4131307192802429,0.060361821982264516,1.3447428761065006
1789619985406366700,6.24836669921875,-0.23366094490177927,-0.15720540866553784,1.4479542442560196
1789619985416340700,6.2583408203125,-0.3095370738148689,-0.2980909661710262,1.733170531284809
1789619985426314000,6.26831396484375,-0.5403303543258458,-0.3704571142017841,2.090854673153162
1789619985436288000,6.2782880859375,-0.7512799934647977,-0.4134539598852396,2.2233920890301464
1789619985446261000,6.288260986328125,-0.42247547073066233,-0.4341746763527393,2.113784297841787
1789619985456235000,6.298235107421875,-0.3559563682276755,-0.44593291868567464,2.0652806714355942
1789619985466208000,6.3082080078125,-0.36096630534417923,-0.4642243621796369,1.960109985911846
1789619985476182000,6.31818212890625,-0.34045017153806983,-0.618208470711112,1.6273235539346933
1789619985486154800,6.32815478515625,-0.261200109212473,-0.7824404170125723,1.3462953662455082
1789619985496128800,6.338128662109375,-0.11173442795351148,-0.974803063777089,1.362653795850277
1789619985506101800,6.348101806640625,-0.029850509992986916,-0.9020768502622842,1.576500544670224
1789619985516075800,6.35807568359375,-0.16952844527438282,-0.8945037846595049,1.576148077970743
1789619985526049800,6.3680498046875,-0.3509206390827894,-0.797008456069231,1.334436001625657
1789619985536022800,6.378022705078125,-0.24572306555211543,-0.3884691562324762,1.118621167603135
1789619985545996800,6.387996826171875,-0.6084598146349192,-0.24917992800772187,1.0743471415907144
1789619985555970000,6.397969970703125,-0.7583523430038243,-0.464990670377016,1.132013733139634
1789619985565944000,6.407944091796875,-0.38108671783097087,-0.6436082849055528,1.3336901516944168
1789619985575917000,6.4179169921875,-0.23249833086319266,-0.852089707300067,1.625958695322275
1789619985585891000,6.42789111328125,-0.15133220578320322,-0.8395721710324286,1.7605436913788317
1789619985595863800,6.43786376953125,-0.3456932598233223,-0.6403495753705502,1.7015005507797
1789619985605837800,6.447837890625,-0.43110527884475885,-0.0897901610404253,1.5223399154156445
1789619985615810800,6.457810791015625,-0.5194424645978957,0.29009178411066533,1.3208482057780027
1789619985625784800,6.467784912109375,-0.7195243074376135,0.4609498705536127,1.3271610421866178
1789619985635757800,6.4777578125,-0.7661264841366558,0.44221945112049577,1.4168465738087892
1789619985645731800,6.48773193359375,-0.5032493816226721,0.3723790221750736,1.4231564876079559
1789619985655705000,6.497705078125,-0.21166816267184912,0.16693009934425354,1.3444336640268564
1789619985665679000,6.50767919921875,-0.09906425840742886,-0.054203883874416346,0.7368518012702464
1789619985675652000,6.517652099609375,-0.040682212065532804,0.1476250948935747,0.3123234896630049
1789620059973245200,80.8152451171875,-2.1372323934465647,0.5160778835356236,-1.9463371888861059
1789620059983217000,80.825216796875,-1.6500088484734297,-0.1717033050954342,-1.9349837279617785
1789620059993190100,80.83519018554688,-0.9065461046308279,-0.6174491767764091,-1.8187294844962656
1789620060003162000,80.845162109375,-0.5180447996944189,-0.6851800662219524,-1.7823859592221676
1789620060013134000,80.85513403320313,-0.47148763118088244,-0.6119488257944583,-1.838102293486148
1789620060023107000,80.86510717773437,-0.4053331972718239,-0.586277793443203,-1.8958610933631657
1789620060033079000,80.8750791015625,-0.0833323632031679,-0.6738672295689583,-1.8415316834129392
1789620060043051000,80.88505102539062,0.385597400188446,-0.9444979418843984,-1.7549290663674473
1789620060053024000,80.89502392578125,0.810537215206027,-1.171238659068942,-1.6523495663806795
1789620060062996200,80.90499633789062,1.2223153508335352,-1.0705530100047587,-1.6646864853844046
1789620060072968000,80.91496801757812,1.3737246404409407,-0.8232897292733192,-1.5955173798292874
1789620060082941000,80.92494091796875,1.2772387811541557,-0.688864307692647,-1.2820591870479285
1789620060092913200,80.9349130859375,1.1465174747884272,-0.5540899265438318,-0.9988337815754115
1789620060102885000,80.94488500976563,1.0613678330302239,-0.4258744655191898,-0.8657766526732593
1789620060112858000,80.95485815429687,0.9483376661777496,-0.38971594142317767,-0.8355019989840686
1789620060122830000,80.964830078125,0.7549848393321037,-0.4294382954806089,-0.8650577638141811
1789620060132802000,80.97480200195312,0.46768005559146403,-0.43366380422115325,-0.8774056426033378
1789620060142775000,80.98477514648438,0.20565584357976913,-0.37700843554139135,-0.9100067664787173
1789620060152747300,80.99474731445312,-0.12598667905926703,-0.23112053970396518,-0.9329391676463186
1789620060162719000,81.00471899414063,-0.43441783745884893,0.015294015243649482,-0.8937828499738126
1789620060172692000,81.01469189453125,-0.6467255401432513,0.19455226576328277,-0.8452245707709342
1789620060182664000,81.02466381835937,-0.8890238919436931,0.24829262377917766,-0.8283190286774188
1789620060192636000,81.03463598632813,-1.008970121794939,0.2710334478974342,-0.9984382063865661
1789620060202609200,81.04460913085937,-1.0246797321021557,0.2910843022793531,-1.2689647276751697
1789620060212580900,81.05458081054688,-1.005519689080119,0.2848644048511982,-1.549062794907391
1789620060222553000,81.06455297851562,-0.9085808253288269,0.24404548772871493,-1.6831646836221217
1789620060232526000,81.07452612304688,-0.7045242336392402,0.19786825844347475,-1.706294653188437
1789620060242498000,81.084498046875,-0.41119361373782154,0.23063538653552532,-1.5697051854416728
1789620060252470000,81.09446997070313,-0.15251578954458236,0.2799813089847564,-1.314047585852444
1789620060262443000,81.10444311523437,0.027473113337159155,0.2901642648249864,-1.0861845866397022
1789620060272415000,81.1144150390625,0.22283552643954752,0.27279519687294956,-1.0094495758749544
1789620060282387000,81.12438696289063,0.4430179080218076,0.10366203452646731,-1.0805265608780086
1789620060292360200,81.13436010742187,0.7421516612440348,-0.13074468724131583,-1.2043860186502338
1789620060302332000,81.14433178710938,0.9811831202030181,-0.3455880458831787,-1.1652029591012745
1789620060312304000,81.15430419921876,1.002569607102871,-0.38365211133956906,-1.0044052980974316
1789620060322277000,81.16427709960938,0.884040842834115,-0.25490590443909167,-0.824313080971688
1789620060332248800,81.17424877929687,0.7327817753523588,-0.10444178672730922,-0.6857454450197518
1789620060342221000,81.18422094726563,0.6019084932953119,-0.07295125444233418,-0.528589611116983
1789620060352194000,81.19419409179687,0.3842793033272028,-0.1124509056597948,-0.35786362662110477
1789620060362166000,81.204166015625,0.07055296112895011,-0.10881342594027518,-0.21048848790060729
1789620060372138000,81.21413793945312,-0.242452665579319,-0.09869944368302822,-0.09199216459672897
1789620060382111000,81.22411108398437,-0.5201940866827964,-0.0719435387045145,-0.05988287935890257
1789620060392083000,81.2340830078125,-0.7546884867340325,-0.033925650477409364,0.050505613878369326
1789620060402055000,81.24405493164062,-0.8599953658580779,-0.03479600357115269,0.2224155109291896
1789620060412028200,81.25402807617188,-0.8998743717819452,0.01656242774426937,0.20515848851688204
1789620060421999900,81.26399975585937,-0.9745873751997947,0.035195816543698306,0.0996735494121909
1789620060431972000,81.27397216796875,-0.9353916753649711,-0.07852934683561325,-0.05195336500126868
1789620060441945000,81.28394506835937,-0.8000152366697788,-0.2006330469816923,-0.32939697220195086
1789620060451917000,81.2939169921875,-0.670389324325323,-0.31330081026256085,-0.6638710284724831
1789620060461889300,81.30388916015625,-0.6245487796485424,-0.2668529473423958,-0.7524662806399166
1789620060471862000,81.31386206054688,-0.4808300445437431,-0.10002689289450645,-0.6779846017599106
1789620060481834200,81.32383422851562,-0.16824585811793802,0.04779401683211326,-0.5858262868160382
1789620060491806200,81.33380615234375,0.2046457897543907,0.03474982634186744,-0.5881890704246238
1789620060501779200,81.343779296875,0.4520031785100698,-0.08151625369191169,-0.7320944506753235
1789620060511751200,81.35375122070313,0.5384726706951857,-0.15505962880849838,-0.9648670684352516
1789620060521723400,81.36372338867187,0.5672860927253961,-0.23563071060478685,-1.2210939192797987
1789620060531696000,81.37369604492187,0.5930015487402677,-0.2890332149684429,-1.4158724680796264
1789620060541668000,81.38366821289063,0.6052537120699882,-0.3073889558702707,-1.426837806469202
1789620060551640300,81.39364038085938,0.6432692622095346,-0.2798538832128048,-1.301630587349832
1789620060561613000,81.40361303710938,0.653179246327281,-0.2848807714641094,-1.0922885295379907
1789620060571585300,81.41358520507812,0.5142857394218444,-0.21506080078482626,-0.858853429281339
1789620060581557200,81.42355712890625,0.30770985838770865,-0.09722703304290771,-0.5754983330145478
1789620060591530000,81.43353002929688,0.10965689102709293,0.00951835445165634,-0.305249313493073
1789620060601502200,81.44350219726563,-0.0688017335474491,0.031003625550866123,-0.16711707328371703
1789620060611474200,81.45347412109375,-0.1698410183548927,-0.01652443382143974,-0.2007842920206487
1789620060621447200,81.463447265625,-0.21966975588500498,-0.10573825627863406,-0.2625286909351125
1789620060631419100,81.47341918945312,-0.2729904271841049,-0.24086978030204773,-0.3644397170757875
1789620060641391400,81.48339135742188,-0.3291092047691345,-0.3531301318258047,-0.47800501371826976
1789620060651363000,81.49336303710938,-0.33580782562494277,-0.3837158242255449,-0.5839262253483757
1789620060661336000,81.50333618164062,-0.34366906051933765,-0.3228086433202028,-0.5970627337645739
1789620060671308300,81.51330834960937,-0.3348006944090128,-0.2384785012513399,-0.5937579931307584
1789620060681280300,81.5232802734375,-0.38918402650356293,-0.20594635095894334,-0.6246794202908873
1789620060691253200,81.53325317382813,-0.5061199686229229,-0.1885387045621872,-0.6632374067440628
1789620060701225000,81.54322485351562,-0.7142249589204788,-0.09981354240477085,-0.700431849759072
1789620060711197200,81.553197265625,-0.9659025489628315,0.045075405523180956,-0.7599882005773484
1789620060721170200,81.56317016601562,-1.0656751748353241,0.1444230839818716,-0.8961194031625985
1789620060731142100,81.57314208984376,-0.8487719610542058,0.0816594615548849,-1.0968251500543207
1789620060741114000,81.58311401367187,-0.38682489615678783,-0.09203764770627021,-1.22980366076231
1789620060751087000,81.59308715820312,0.10889175187349319,-0.27222294994294643,-1.3003328026242553
1789620060761059000,81.60305908203125,0.5912848079502582,-0.47709787227809425,-1.422646053867787
1789620060771031000,81.61303100585937,0.9617845922499895,-0.5557838709801435,-1.55771357274428
1789620060781004300,81.62300439453125,1.141590539780259,-0.501673510608077,-1.6241161361955105
1789620060790976000,81.63297607421875,1.1415420244634151,-0.3628501463294029,-1.6280905927844345
1789620060800948200,81.6429482421875,1.010780970609188,-0.2138186917692423,-1.5985004872933029
1789620060810921200,81.65292114257812,0.7805828064471483,-0.0661047495484352,-1.5292999636866151
1789620060820893000,81.66289282226562,0.4782996492832899,0.032249241697788235,-1.4035036926329134
1789620060830865200,81.672865234375,0.21347440837621687,0.10199205548763275,-1.1992414953686297
1789620060840838100,81.68283813476563,0.05852993037998676,0.1364846921980381,-0.922419819458574
1789620060850810000,81.69281005859375,-0.0002899228572845459,0.195370596408844,-0.5676913125254214
1789620060860782000,81.70278198242187,0.06663140377104282,0.27595161507725713,-0.250491741258651
1789620060870755000,81.71275512695313,0.0549292755395174,0.3136637983560562,-0.007810162294283509
1789620060880727000,81.72272705078124,-0.03560790447592735,0.30491759732067586,0.1919311965446919
1789620060890699300,81.73269921875,-0.1936439187467098,0.30058219846487044,0.33906982309557493
1789620060900672300,81.74267236328124,-0.38342765493392944,0.3652694824308157,0.2874531792353838
1789620060910644000,81.75264404296875,-0.568554505226016,0.417203667807579,0.02043568898104131
1789620060920616200,81.7626162109375,-0.6405015510618687,0.36890871571600437,-0.31116043723300096
1789620060930589200,81.77258911132813,-0.5894125843375921,0.2635001297831535,-0.5928010942647233
1789620060940561200,81.78256103515625,-0.4194458937764168,0.13616495872437953,-0.8808028107609599
1789620060950533000,81.792533203125,-0.11439970164000987,0.03158347126543522,-1.0939821086481214
1789620060960506000,81.80250610351563,0.19681027382314203,-0.0764268215984106,-1.2621965487144886
1789620060970478000,81.81247802734374,0.47009588456153867,-0.2094254252463579,-1.3457821560263632
1789620060980450000,81.82244995117188,0.7034212408334016,-0.29576632261574265,-1.3667637153871357
1789620060990423300,81.83242333984376,0.8742050929963588,-0.3418728247523308,-1.3509015448667108
1789620061000395000,81.84239501953125,1.0050549941778182,-0.33353345095217224,-1.3078165825083852
1789620061010367200,81.8523671875,1.0443857185691594,-0.3058487406909466,-1.2164227125983684
1789620061020340200,81.86234033203125,1.0847574764460324,-0.28559856434464453,-1.131193064406514
1789620061030312000,81.87231201171875,1.1144897668868303,-0.2554313896179199,-0.9715124977990984
1789620061040284200,81.8822841796875,1.1048124224811793,-0.2366138764232397,-0.7721642299309373
1789620061050257200,81.89225708007812,1.047402436041832,-0.20345862579643725,-0.4980221484936774
1789620061060229000,81.90222900390626,0.8040963685035705,-0.1218751520872116,-0.21773023918978868
1789620061070201000,81.912201171875,0.4403267692416906,-0.02328618304133415,0.011621025819331407
1789620061080174000,81.92217407226562,0.10092354947328568,0.056065586093068116,0.18440332179050892
1789620061090146000,81.93214599609375,-0.11461480569541453,0.049038463935256,0.3093056762117892
1789620061100118300,81.9421181640625,-0.21221534822583196,0.017658406287431715,0.3311072101859376
1789620061110090200,81.95209033203125,-0.27730595229566096,-0.03257189778089523,0.30098263249192386
1789620061120063000,81.96206298828125,-0.3073661595165729,-0.12204407891333102,0.19762367256525903
1789620061130035200,81.97203515625,-0.44164077444970606,-0.26134675114154815,0.07146536326613277
1789620061140007200,81.98200708007812,-0.6765677206993103,-0.25895488756895063,-0.014516089673712849
1789620061149980200,81.99198022460938,-0.8350795357882976,-0.1729302165418863,-0.15445307775009423
1789620061159952100,82.0019521484375,-0.8008779909789562,-0.1474333717137575,-0.32786888585183765
1789620061169924400,82.01192431640625,-0.5897685581684112,-0.1641425144523382,-0.4543612859435379
1789620061179897000,82.02189697265625,-0.2730091318845749,-0.17538579300045967,-0.49606849367525424
1789620061189869000,82.031869140625,0.04681377362310886,-0.20710428882241247,-0.4753771859653294
1789620061199841300,82.04184130859375,0.17519933051764963,-0.21889467985928057,-0.4764622777882963
1789620061209814000,82.05181396484375,0.12965630748271942,-0.22826456575095652,-0.4997299753248691
1789620061219786200,82.0617861328125,0.02310848838686943,-0.2009030960947275,-0.6060052245570346
1789620061229758200,82.07175830078126,-0.025898995888233182,-0.20896248390972613,-0.7749522532142699
1789620061239731200,82.08173120117188,0.09494096793234348,-0.2140618528753519,-0.9076074502520263
1789620061249703200,82.091703125,0.30747546510994433,-0.2599813080072403,-0.985229619114846
1789620061259675400,82.10167529296875,0.4361123664170503,-0.2641267372488975,-1.0256341102175415
1789620061269648100,82.11164819335937,0.5108534268856049,-0.18191665607392787,-0.9516136191084981
1789620061279620000,82.1216201171875,0.5582324331760407,-0.0741962860673666,-0.8358034661486744
1789620061289592300,82.13159228515624,0.5409656565546989,0.044378070908784865,-0.6812589472554623
1789620061299565000,82.14156494140624,0.44572482889294623,0.1443611246615648,-0.45468774141892787
1789620061309537300,82.15153735351562,0.23002923733592032,0.20419863050878045,-0.1979995201403275
1789620061319509200,82.16150927734375,-0.1110959839195013,0.21757190682291982,-0.02612918791491538
1789620061329482000,82.17148193359375,-0.449757445409894,0.2817167544752359,0.10314104285966605
1789620061339454200,82.1814541015625,-0.6957219185024499,0.33946459456682204,0.20298600331600755
1789620061349426200,82.19142626953125,-0.8428817339718341,0.3617226036041975,0.2776121321680024
1789620061359399200,82.20139916992187,-0.9492039276182651,0.3110919020414352,0.3220363437734544
1789620061369371100,82.21137109375,-1.0370651664227246,0.25240064361989495,0.32250019842553884
1789620061379343400,82.22134326171874,-1.1451532006978988,0.24920038627386093,0.29518015675824133
1789620061389316000,82.23131616210938,-1.173381516316533,0.2586854229778051,0.1772304710190743
1789620061399288000,82.2412880859375,-1.0190046090751885,0.2421253333210945,-0.03630399698130786
1789620061409260300,82.25126025390625,-0.6887362973988056,0.17869418689608574,-0.29909828005004674
1789620061419233000,82.26123291015625,-0.2535024673819542,0.0700917733579874,-0.4995032538969069
1789620061429205200,82.27120532226563,0.11121464186310767,-0.02215045700967312,-0.6126305244483053
1789620061439177200,82.28117724609375,0.4189291764259338,-0.07823416328132152,-0.6934523661352694
1789620061449150200,82.29115014648437,0.7302654086172581,-0.0896288329988718,-0.7682973984349518
1789620061459122200,82.3011220703125,0.9608429274857043,-0.12384089920222759,-0.8138413713179529
1789620061469094400,82.31109448242188,1.1446855831861495,-0.19986790782809255,-0.830345493003726
1789620061479067400,82.3210673828125,1.2434101613104342,-0.3048357642561197,-0.8748295815702527
1789620061489039000,82.3310390625,1.2420669300079346,-0.3806909234464168,-0.8745738532435149
1789620061499011300,82.34101123046875,1.1060539469748736,-0.4155313506811857,-0.8028012871917337
1789620061508984300,82.350984375,0.9205541717171668,-0.31155308981239793,-0.6150261874131858
1789620061518956300,82.36095629882813,0.7517910117268561,-0.20463877549171447,-0.4125091167831793
1789620061528928300,82.37092822265625,0.5471446374505758,-0.10403262140452861,-0.24102155506396664
1789620061538901200,82.3809013671875,0.33607436760663983,-0.06874854205548762,-0.17964903993550688
1789620061548873200,82.39087329101562,0.12515782701969147,-0.11849252391159534,-0.1785232507759705
1789620061558845200,82.40084521484376,-0.04171674274504184,-0.15527590190768242,-0.11897840773239732
1789620061568818400,82.410818359375,-0.25427578984200955,-0.16936930918991563,-0.07154728766223416
1789620061578790100,82.4207900390625,-0.459912344199419,-0.17759937739670276,-0.07701358111095614
1789620061588762400,82.43076245117187,-0.5590215377271175,-0.08535714702904224,-0.08982626440026797
1789620061598735400,82.4407353515625,-0.6091489659428596,-0.002701660174131393,-0.09580076309945433
1789620061608707000,82.45070703125,-0.6304734935224056,0.08263269050121307,-0.09405254945894703
1789620061618679300,82.46067919921875,-0.6049070905894041,0.1455553028821945,-0.07130010796813294
1789620061628652300,82.47065234375,-0.4945020115435123,0.1029132619857788,-0.13414830340603365
1789620061638624300,82.48062426757812,-0.26989596830010415,-0.0010977321088314056,-0.25873399309357625
1789620061648596200,82.49059619140625,0.015979659420251844,-0.06647299833893776,-0.4176578047832474
1789620061658569200,82.5005693359375,0.2984352495640516,-0.14273966093957424,-0.6111934043172746
1789620061668541200,82.51054125976563,0.38554771582782266,-0.159969028159976,-0.6534262068256735
1789620061678514200,82.52051416015625,0.36513095074296,-0.12329261766970157,-0.5896236698050051
1789620061688486400,82.530486328125,0.3124485773473978,-0.09026187020540237,-0.5555167444765567
1789620061698458000,82.5404580078125,0.27371523432731626,-0.07229016018509864,-0.6170153884690255
1789620061708431400,82.55043139648437,0.3486865964204073,-0.07562368852198123,-0.7401792651925235
1789620061718403300,82.5604033203125,0.5417956776380538,-0.12847966491878032,-0.7530189460866152
1789620061728375300,82.57037524414062,0.718918669694662,-0.17993863399922846,-0.6318529651820659
1789620061738348300,82.58034838867188,0.7940291479974985,-0.1840717882812023,-0.3875437850158661
1789620061748320300,82.5903203125,0.6951356430470943,-0.14093641090989112,-0.16013287695217876
1789620061758292200,82.60029223632813,0.5491653296232223,-0.09284604147970676,-0.06231860033953562
1789620061768265200,82.61026513671875,0.5240063384473324,-0.10797054537534713,-0.05469930270854383
1789620061778237400,82.62023754882813,0.5433446606457233,-0.1983539961338043,-0.02600378057011403
1789620061788209200,82.63020922851562,0.5113999548524618,-0.38663784915208815,-0.05184851638730615
1789620061798182100,82.64018212890625,0.39634968034923074,-0.509840450450778,-0.12016328840171918
1789620061808154400,82.650154296875,-0.3293266469120979,-0.4314098878145218,-0.21107998752035198
1789620061818126000,82.6601259765625,-0.8273252683997154,-0.3621837913751602,-0.3199373987328261
1789620061828099300,82.67009936523438,-1.1642360868304966,-0.3077659724891186,-0.2845899718239903
1789620061838071300,82.6800712890625,-1.4546183783203364,-0.24349720619618892,-0.15528972950363532
1789620061848043300,82.69004321289063,-1.688227812230587,-0.15986965943872927,0.05057562864096835
1789620061858016300,82.70001635742187,-1.7241016741663218,-0.005451835665106773,0.31005185493659226
1789620061867988200,82.70998828125,-1.5243991860330104,0.14031155700981615,0.6003657938979565
1789620061877960200,82.71996020507812,-1.2050853990912436,0.13350246151685713,0.8159286989860236
1789620061887933200,82.72993310546875,-0.8359469662725925,-0.006654197192192077,0.7313441437646746
