time,seconds_elapsed,z,y,x
1789619979217283300,0.059283447265625,8.482656481933594,4.302081108093262,1.2777554985046387
1789619979227256000,0.069256103515625,8.39511848373413,4.348169490051269,1.3058873680114744
1789619979237229000,0.07922900390625,8.316409104156493,4.415955324554443,1.2657844902038573
1789619979247202000,0.0892021484375,8.263886305236817,4.471919788360595,1.1927613395690917
1789619979257175300,0.09917529296875,8.243236315917969,4.525190775299072,1.1499649848937987
1789619979267148300,0.109148193359375,8.245929792785644,4.573673358917236,1.183034895324707
1789619979277121000,0.11912109375,8.311171788024902,4.572625895690917,1.2291232772827148
1789619979287094000,0.129093994140625,8.362347848510742,4.562450538635254,1.2434884872436522
1789619979297067300,0.1390673828125,8.305036646270752,4.535815045166015,1.2134113288879393
1789619979307040300,0.149040283203125,8.049156343841553,4.467879573059082,0.9814730430603027
1789619979317013200,0.15901318359375,7.788038725280761,4.5784617622375485,0.6257844589233398
1789619979326986000,0.168986083984375,7.739107228851318,4.784812017822265,0.3495534423828125
1789619979336959200,0.178959228515625,7.960570882415771,4.92876339263916,0.33788170928955075
1789619979346932200,0.18893212890625,8.034491858673094,5.030516963195801,0.5632359405517577
1789619979356905200,0.1989052734375,8.468889822387695,4.924124626922607,0.946757118988037
1789619979366878500,0.20887841796875,8.40738876724243,4.7566801483154295,1.1526584617614746
1789619979376851500,0.2188515625,8.053795109558106,4.531625192260742,1.230320378112793
1789619979386825500,0.228825439453125,8.155099767303467,4.742464575958252,1.0800842239379882
1789619979396798500,0.238798583984375,7.838765872955322,5.030068050384521,0.9299977073669433
1789619979406771500,0.248771484375,7.607725412750244,5.1702784851074215,0.6872855140686035
1789619979416744400,0.258744384765625,7.7227967300415035,5.188384635162353,0.5186439346313476
1789619979426717400,0.268717529296875,8.0958432762146,5.105036489868164,0.4483142608642578
1789619979436690700,0.278690673828125,8.564059338378906,4.958092362976074,0.4156932632446289
1789619979446663400,0.288663330078125,8.987533757019042,4.783315641784668,0.4173392768859863
1789619979456636400,0.298636474609375,9.37763899002075,4.586093280029297,0.4155436256408691
1789619979466609400,0.308609375,9.580248305511475,4.491522314453125,0.46238019561767574
1789619979476582400,0.31858251953125,9.551667523193359,4.529530265808106,0.5481225425720214
1789619979486555400,0.328555419921875,9.329455681610106,4.61587116317749,0.6449380722045898
1789619979496528400,0.3385283203125,9.050680825805664,4.8038159934997555,0.6546645164489746
1789619979506501400,0.34850146484375,8.87395881576538,4.976946701049805,0.5297171173095703
1789619979516474400,0.358474365234375,8.870666788482666,4.932953245544433,0.3844190040588379
1789619979526448400,0.368448486328125,8.9769094871521,4.739771099090576,0.3178302703857422
1789619979536421600,0.378421630859375,9.037213441467285,4.550030617523193,0.31917700881958005
1789619979546394400,0.388394287109375,9.00189896697998,4.402936853027343,0.38367081604003905
1789619979556367400,0.398367431640625,8.889371488952635,4.28367568283081,0.47644613037109373
1789619979566340400,0.40834033203125,8.738836059570312,4.215291297912597,0.6398503936767578
1789619979576313600,0.418313720703125,8.591742295074463,4.205115940856933,0.7565677246093749
1789619979586286600,0.42828662109375,8.527996675872803,4.23923331451416,0.7574655502319335
1789619979596259300,0.43825927734375,8.558073834228516,4.281431118774414,0.6432920585632323
1789619979606232300,0.448232421875,8.546551738739014,4.233995998382568,0.6675333503723144
1789619979616205600,0.45820556640625,8.5417633354187,4.04769718170166,0.7276876670837402
1789619979626179600,0.4681796875,8.629600608825683,3.8603509017944333,0.7439981658935546
1789619979636152600,0.478152587890625,8.85480520248413,3.782240072631836,0.7320271575927734
1789619979646125600,0.48812548828125,9.23189196395874,3.791667241668701,0.7508814956665039
1789619979656098300,0.498098388671875,9.567978022003173,3.789572315216064,0.8780734588623046
1789619979666071300,0.5080712890625,9.76789386062622,3.721187930297851,1.0670657524108886
1789619979676044500,0.51804443359375,9.84555577697754,3.620481822967529,1.2346598686218262
1789619979686017500,0.528017578125,9.807847100830077,3.586065174102783,1.2594997108459471
1789619979695990500,0.537990478515625,9.731980835723876,3.554192364501953,1.1894693122863769
1789619979705963300,0.54796337890625,9.60194575805664,3.4850597915649413,1.1623849060058593
1789619979715936500,0.5579365234375,9.428366137695312,3.4325369926452636,1.1755530151367186
1789619979725910500,0.56791064453125,9.29518867034912,3.469198205566406,1.1610381675720214
1789619979735883500,0.577883544921875,9.20076734237671,3.6144963188171384,1.147870058441162
1789619979745856500,0.5878564453125,9.127893829345702,3.7957074569702147,1.2179004570007324
1789619979755829200,0.597829345703125,9.024643882751464,3.9878421401977535,1.356614515686035
1789619979765802500,0.607802490234375,8.909422927856445,4.112939176940918,1.4769231491088866
1789619979775775500,0.617775390625,8.800187477111816,4.198382248687744,1.5816694717407225
1789619979785748500,0.62774853515625,8.709806364440917,4.276792353057861,1.633144807434082
1789619979795721500,0.637721435546875,8.668656023406982,4.319738345336914,1.6111480796813964
1789619979805695500,0.647695556640625,8.634987562561035,4.276792353057861,1.4860510429382323
1789619979815668200,0.657668212890625,8.674491889953613,4.205415216064453,1.271021806335449
1789619979825641500,0.667641357421875,8.750956705474852,4.13059641418457,1.0601824226379395
1789619979835614500,0.677614501953125,8.907776914215088,4.102314907073974,0.9279027809143066
1789619979845587500,0.68758740234375,9.118765935516358,4.001908074951172,0.8179191421508789
1789619979855560400,0.697560546875,9.271396291351317,3.9172131912231443,0.7148188331604004
1789619979865533400,0.707533447265625,9.47475379486084,3.870226983642578,0.6000467910766601
1789619979875506400,0.71750634765625,9.767295310211182,3.8584056129455564,0.49724575729370113
1789619979885480400,0.72748046875,9.968108974456786,3.8139632446289062,0.49799394531249996
1789619979895453400,0.737453369140625,10.014496631622315,3.76039298248291,0.5828384666442871
1789619979905426400,0.747426513671875,9.956287603759765,3.7620389961242675,0.6124667121887206
1789619979915399400,0.7573994140625,9.82565397567749,3.8236896888732907,0.6610989334106445
1789619979925372400,0.767372314453125,9.689783031463623,3.9852983009338376,0.7004536231994628
1789619979935345400,0.777345458984375,9.56962403564453,4.211251082611084,0.7652467056274413
1789619979945318400,0.787318359375,9.489268642425536,4.42448466796875,0.9198223503112792
1789619979955292400,0.79729248046875,9.422380633544922,4.5325230178833005,1.1583446907043455
1789619979965265400,0.807265380859375,9.35324806060791,4.595370811462402,1.3425485809326172
1789619979975238700,0.81723876953125,9.290549904632568,4.593575160217285,1.4021043472290038
1789619979985211400,0.82721142578125,9.133131145477295,4.546588952636719,1.4239514373779296
1789619979995184400,0.837184326171875,8.965836304473877,4.510975202941895,1.36634095993042
1789619980005157400,0.847157470703125,8.779986400604248,4.4568063903808595,1.285835929107666
1789619980015130600,0.857130615234375,8.585307878112792,4.41146619644165,1.1170447120666502
1789619980025104600,0.867104736328125,8.446893094635008,4.39904627532959,0.9606734161376953
1789619980035077600,0.87707763671875,8.425943830108642,4.375253896331787,0.8339303657531738
1789619980045050400,0.88705029296875,8.489539811706543,4.32856696395874,0.7731774986267089
1789619980055023400,0.8970234375,8.551789054870605,4.287715898132324,0.7662941688537597
1789619980064996600,0.90699658203125,8.699930282592772,4.280682930755615,0.7676409072875976
1789619980074969600,0.916969482421875,8.870217875671386,4.278438366699218,0.7791630027770996
1789619980084943600,0.926943603515625,8.967781593322753,4.238036213684082,0.8116343627929687
1789619980094916400,0.936916259765625,9.03362213897705,4.156782994842529,0.7802104660034179
1789619980104889300,0.946889404296875,9.07851342010498,4.057872538757324,0.6807014595031737
1789619980114862300,0.9568623046875,9.038260904693603,3.9420530334472654,0.5527613082885742
1789619980124835600,0.966835693359375,8.962843552398681,3.8769606758117674,0.40895957107543945
1789619980134808600,0.97680859375,8.916755170440673,3.8525697463989257,0.2576759536743164
1789619980144782600,0.986782470703125,8.935010958099365,3.8380548988342285,0.10654197387695312
1789619980154755300,0.99675537109375,9.02733735961914,3.832518307495117,0.02977788314819336
1789619980164728300,1.006728271484375,9.115174633026122,3.8584056129455564,0.10130465774536132
1789619980174701600,1.01670166015625,9.194632200622559,3.9363668045043942,0.25423428878784177
1789619980184674600,1.026674560546875,9.263016585540772,4.045901530456542,0.423923331451416
1789619980194648600,1.036648681640625,9.270947378540038,4.112639901733398,0.5122095176696777
1789619980204621600,1.04662158203125,9.242216958618164,4.097227228546142,0.6012438919067382
1789619980214594300,1.05659423828125,9.197475315093994,4.073734124755859,0.6675333503723144
1789619980224567300,1.0665673828125,9.152434396362304,4.1472061882019045,0.7193079612731933
1789619980234540500,1.07654052734375,9.071330815124512,4.2420764289855954,0.7661445312499999
1789619980244513500,1.086513427734375,8.958055149078369,4.3071687866210935,0.8405144203186035
1789619980254487600,1.096487548828125,8.883834897613525,4.374505708312988,0.9534908111572266
1789619980264460500,1.10646044921875,8.858845417785645,4.453664000701904,1.0467150382995605
1789619980274433300,1.116433349609375,8.891765690612793,4.515913243865967,1.1240776794433593
1789619980284406500,1.126406494140625,8.914660243988036,4.538209246826171,1.1917138763427733
1789619980294379500,1.136379638671875,8.915258794403076,4.503792597961426,1.2152069801330565
1789619980304353500,1.146353515625,8.858845417785645,4.450970523834228,1.209071838378906
1789619980314326500,1.156326416015625,8.831312098693846,4.4571056655883785,1.193359889984131
1789619980324299300,1.16629931640625,8.780435313415527,4.495712167358398,1.1309610092163085
1789619980334272500,1.1762724609375,8.671798413085938,4.522048385620117,1.1013327636718748
1789619980344245500,1.18624560546875,8.595782510375976,4.54569112701416,1.046415763092041
1789619980354219500,1.196219482421875,8.573187232208252,4.563647639465332,0.9956886154174804
1789619980364192300,1.206192138671875,8.598475987243653,4.5678374923706055,0.975487538909912
1789619980374165200,1.216165283203125,8.696488617706299,4.550030617523193,0.9935936889648437
1789619980384138200,1.22613818359375,8.838494703674316,4.521599472808838,1.0142436782836914
1789619980394111500,1.236111572265625,8.909123652648926,4.431517635345458,1.0476128639221192
1789619980404085500,1.24608544921875,8.88607946166992,4.367472740936279,1.0770914718627929
1789619980414058200,1.256058349609375,8.790311395263672,4.389619106292725,1.1182418128967284
1789619980424031200,1.26603125,8.661024505615234,4.516811069488525,1.1519102737426756
1789619980434004200,1.276004150390625,8.605209679412841,4.656572591400146,1.1417349166870117
1789619980443977500,1.2859775390625,8.613589385223388,4.6604631690979,1.112106671142578
1789619980453951200,1.295951171875,8.649801685333252,4.580556688690185,1.0640730003356933
1789619980463924200,1.30592431640625,8.70112738342285,4.570530969238281,1.1133037719726562
1789619980473897200,1.315897216796875,8.685116159820556,4.664653022003174,1.211765315246582
1789619980483870200,1.3258701171875,8.693495865631103,4.826710546875,1.2692261550903319
1789619980493843200,1.33584326171875,8.660874868011474,4.846013797760009,1.3370119895935058
1789619980503817200,1.345817138671875,8.430283320617676,4.725705164337158,1.5180734901428221
1789619980513790500,1.35579052734375,8.269722171783446,4.771194995880126,1.6201263359069824
1789619980523763200,1.36576318359375,8.232761683654784,4.862922846984863,1.4558242469787597
1789619980533736200,1.375736083984375,8.234856610107421,4.907664490509033,1.3346177879333496
1789619980543710200,1.385710205078125,8.364592412567138,4.907664490509033,1.3150152618408202
1789619980553683200,1.39568310546875,8.467243808746337,4.878934070587158,1.4585177238464355
1789619980563656400,1.405656494140625,8.543110073852539,4.814589900970459,1.6294038673400877
1789619980573629400,1.41562939453125,8.539518771362305,4.665401210021972,1.73010997467041
1789619980583603500,1.425603515625,8.494627490234375,4.548234966278076,1.7724574165344238
1789619980593576200,1.435576171875,8.42025760116577,4.4470799461364745,1.8242320274353025
1789619980603549200,1.445549072265625,8.196549383544921,4.351760792541504,1.8604443275451659
1789619980613522200,1.455522216796875,8.03808316116333,4.321384358978271,1.820790362548828
1789619980623495400,1.465495361328125,7.778611556243896,4.282029669189453,1.8231845642089843
1789619980633469400,1.475469482421875,7.414094353485107,4.312555740356445,1.814954496002197
1789619980643442400,1.4854423828125,7.045237660217285,4.425532131195068,1.7832313240051267
1789619980653415200,1.495415283203125,6.704961749267578,4.591629871368408,1.8468273056030273
1789619980663388200,1.50538818359375,6.5756748596191406,4.733486319732665,1.935113491821289
1789619980673362200,1.515362060546875,6.721421885681152,4.637418978118896,2.0217536643981933
1789619980683335400,1.52533544921875,6.7550903465270995,4.416404237365723,2.147748526763916
1789619980693308400,1.535308349609375,6.311414851379394,4.1548377059936525,2.0843021827697754
1789619980703281400,1.545281494140625,6.170007315826416,3.994426194763183,1.80672442779541
1789619980713255400,1.55525537109375,6.3244333229064935,3.7090672843933103,1.6992846282958984
1789619980723228200,1.565228271484375,6.733692169189453,3.1274259185791013,2.076969940185547
1789619980733201200,1.575201171875,7.6176014945983885,2.3509563926696777,2.3732523956298825
1789619980743174400,1.58517431640625,8.638578865051269,1.477372061920166,2.1089923873901366
1789619980753148400,1.5951484375,9.598653730773925,0.7821557548522948,1.4839561164855957
1789619980763121400,1.605121337890625,10.236858110809326,0.21906945190429686,1.0326491035461425
1789619980773094100,1.61509423828125,10.614244147491455,-0.3163338943481445,0.6610989334106445
1789619980783067100,1.625067138671875,10.586261915588379,-0.5756558616638183,0.455197590637207
1789619980793041200,1.635041259765625,10.331279438781738,-0.33952772293090816,0.7321767951965331
1789619980803014400,1.645014404296875,10.181492197418212,0.026036943054199218,1.253963119506836
1789619980812987400,1.6549873046875,9.878027136993408,0.6157587394714356,1.9683330398559569
1789619980822960400,1.66496044921875,10.114304913330077,1.7615338714599609,1.7485153999328613
1789619980832934400,1.674934326171875,10.225036740112303,2.6951228813171384,1.2491747161865234
1789619980842907100,1.6849072265625,9.92740754623413,3.1281741065979003,1.1122563087463377
1789619980852880100,1.694880126953125,9.285312588500975,3.2513258544921873,0.9826701438903808
1789619980862853400,1.704853271484375,8.253262035369872,3.229179489135742,0.9087491676330566
1789619980872827400,1.714827392578125,6.91430475692749,2.2336405113220215,0.20739771881103514
1789619980882800400,1.72480029296875,5.539584091186523,0.04548983154296875,-1.0612298858642577
1789619980892773400,1.7347734375,5.847388642120361,1.1168950744628905,-1.146074407196045
1789619980902746000,1.74474609375,5.263801987457275,1.3608043685913085,-1.046415763092041
1789619980912720100,1.75472021484375,3.935319341278076,3.1603461914062496,-1.624166551208496
1789619980922693400,1.764693359375,3.2632968627929686,7.25906979598999,-2.6212019050598143
1789619980932666400,1.774666259765625,4.257938014984131,7.99334151763916,-4.196885872650146
1789619980942639400,1.784639404296875,5.417330168914795,5.894973400115966,-5.316324786376953
1789619980952613400,1.79461328125,3.7906197784423825,3.1706711860656736,-4.563049089050293
1789619980962586400,1.80458642578125,2.038662713623047,1.6213234367370604,-4.58998385772705
1789619980972559000,1.81455908203125,1.7815853103637693,0.74055650100708,-5.027524211120605
1789619980982532400,1.824532470703125,1.5981296081542968,-0.9572317512512206,-4.416553874969482
1789619980992506400,1.83450634765625,1.8371008613586424,-3.5420717185974118,-2.3418284988403317
1789619981002479400,1.844479248046875,11.047145735168456,-1.9856910018920897,-1.4378677345275879
1789619981012452400,1.854452392578125,12.58332537536621,-1.6647183418273925,-1.5158289260864257
1789619981022426400,1.86442626953125,14.306103107452392,-0.9519944351196289,0.003591302490234375
1789619981032399000,1.874399169921875,15.677831021118163,2.054973212432861,1.6210241615295409
1789619981042372400,1.884372314453125,18.1821659576416,5.603329710388183,1.769165389251709
1789619981052345300,1.894345458984375,18.678064976501464,8.169614614868163,0.6985083343505859
1789619981062319400,1.9043193359375,16.72694026107788,7.472004106140136,3.5160347755432126
1789619981072292400,1.914292236328125,13.805864598083495,4.929511580657959,7.470507730102539
1789619981082265300,1.924265380859375,11.894992398071288,4.22651411819458,8.621220903015136
1789619981092238000,1.934238037109375,9.821763397979735,5.427206250762939,7.7699325752258295
1789619981102212000,1.944212158203125,7.658751835632324,6.478111141967773,6.252008722686767
1789619981112185300,1.954185302734375,6.9415388008117676,6.6907461769104,5.786186862182617
1789619981122158300,1.964158447265625,7.108534366607666,5.545719232940674,6.2015808502197265
1789619981132132400,1.97413232421875,6.820930892181396,2.526930214691162,5.9305871498107905
1789619981142105300,1.984105224609375,7.472453018951415,-0.715716658782959,5.928791498565674
1789619981152078300,1.994078369140625,5.599738407897949,3.8009447731018065,9.171438372039795
1789619981162051300,2.00405126953125,1.947832688140869,8.214954808807372,10.187178426361083
1789619981172025000,2.014025146484375,3.430142790985107,3.9727287422180173,8.469787648010254
1789619981181998300,2.023998291015625,3.780893334197998,2.0260931549072265,7.895927437591553
1789619981191971300,2.033971435546875,3.112162882995605,2.085948196411133,7.202955694580078
1789619981201945300,2.0439453125,3.154659962463379,0.8786720092773437,6.498162580871582
1789619981211918300,2.05391845703125,3.4057518615722655,-0.2807201446533203,4.959888014221191
1789619981221891300,2.063891357421875,2.8446108474731444,-1.3639467582702636,3.965845412445068
1789619981231864300,2.0738642578125,1.8318635452270506,-2.338536471557617,3.4480993034362792
1789619981241838300,2.08383837890625,1.578826357269287,-2.855833667755127,2.6960207069396973
1789619981251811300,2.093811279296875,1.67908355178833,-3.6061166130065914,2.7150246826171873
1789619981261784300,2.103784423828125,2.1103391258239745,-4.130746051788329,3.05185892868042
1789619981271758300,2.11375830078125,1.9402011703491209,-5.017648129272461,3.604470599365234
1789619981281731300,2.1237314453125,2.11318224029541,-5.155913275146484,4.161571398162842
1789619981291704000,2.1337041015625,2.5858874305725097,-5.849932481384277,4.585943642425537
1789619981301677300,2.14367724609375,2.759167775726318,-6.655132427215576,4.764610941314697
1789619981311651300,2.1536513671875,2.842964833831787,-7.409605225372314,4.80725765838623
1789619981321624300,2.163624267578125,3.3815105697631833,-8.525153561401366,4.780771802520752
1789619981331597300,2.173597412109375,4.173542406463623,-9.568576572418213,4.7095443031311035
1789619981341571300,2.1835712890625,4.793042086029052,-10.236858110809326,4.966322431182861
1789619981351544300,2.19354443359375,4.975001412200927,-10.730662203216552,5.8366147346496575
1789619981361517300,2.203517333984375,4.7852609306335445,-10.938059922027588,7.840411886596679
1789619981371490800,2.21349072265625,4.4577042160034175,-10.729465102386474,9.97873324432373
1789619981381463800,2.2234638671875,4.30297893371582,-10.484957257843018,12.242750189208984
1789619981391436800,2.233436767578125,4.449025234985351,-10.047416904449463,14.80499487838745
1789619981401410800,2.243410888671875,4.425382493591308,-9.623792848205566,16.0897833442688
1789619981411383800,2.2533837890625,4.284872783660888,-9.894187998199463,16.05820980987549
1789619981421356800,2.263356689453125,3.731662562561035,-10.426598592376708,15.197494313049315
1789619981431329800,2.273329833984375,2.6153660385131836,-10.370933403778075,14.48506968154907
1789619981441303800,2.2833037109375,1.274912384033203,-9.772083713531494,15.030349109649658
1789619981451276800,2.29327685546875,-0.23837270278930664,-8.40783768005371,16.294487586212156
1789619981461249800,2.303249755859375,-1.0818798751831054,-8.006958539581298,19.336021520233153
1789619981471223800,2.313223876953125,-4.966023155975342,-6.630741497802734,23.18784307861328
1789619981481196800,2.32319677734375,-5.674856484985352,-5.636249983215332,25.37793904724121
1789619981491170000,2.333170166015625,-2.648286311340332,-3.1139585342407226,25.475353127288816
1789619981501143800,2.343143798828125,-0.1854009910583496,-1.9642928245544433,24.87889763870239
1789619981511116800,2.35311669921875,0.6034884559631347,-1.7961001579284668,24.889521908569336
1789619981521089800,2.36308984375,1.7015291923522948,-1.4239514373779296,23.86510287322998
1789619981531063800,2.373063720703125,1.3938742790222167,0.19437924728393555,22.15833636474609
1789619981541036800,2.383036865234375,-1.2056301734924315,1.1053729789733886,21.711967392730713
1789619981551009800,2.393009765625,-4.190601093292236,1.4142249931335449,23.383868339538573
1789619981560983800,2.40298388671875,-4.694430905151367,2.5239374626159665,24.374020363616943
1789619981570957000,2.41295703125,-2.142660848236084,3.4391210472106932,24.22752514953613
1789619981580929800,2.4229296875,2.0439000297546386,3.582773146820068,23.811532611083983
1789619981590902800,2.43290283203125,2.2719477378845214,2.051830822753906,20.453215869903563
1789619981600876800,2.442876708984375,-1.9879355659484863,-0.17387889556884764,13.972560888671874
1789619981610849800,2.452849853515625,-7.324910341644287,-1.4469956283569334,5.919214691925048
1789619981620822800,2.46282275390625,-11.019911691284179,-2.639457692718506,1.5280992095947266
1789619981630796800,2.472796875,-5.8345198081970215,-3.3176153129577637,7.091176404571533
1789619981640769800,2.482769775390625,-0.22071546554565427,-2.1734861946105957,9.573364975738524
1789619981650742800,2.49274267578125,0.007781155395507812,-2.6253917579650876,7.0178539787292475
1789619981660716800,2.502716796875,-0.4128501487731933,-3.830124105834961,4.929361943054199
1789619981670689800,2.512689697265625,0.7270891166687011,-2.655169641113281,7.568819635772704
1789619981680662800,2.522662841796875,2.0896891365051267,-1.2173019065856934,11.061211669921875
1789619981690636800,2.53263671875,1.1620856307983398,-0.9255085792541503,9.18744959564209
1789619981700610000,2.542610107421875,-0.4975450325012207,-0.9347861106872558,6.713790367889404
1789619981710582800,2.552582763671875,0.5240308883666992,-2.0272902557373045,3.2077813117980956
1789619981720556800,2.562556884765625,-0.5162497329711914,-2.0816087059020996,1.9888333915710448
1789619981730529800,2.57252978515625,-0.7703343841552734,-2.1645079383850097,0.3844190040588379
1789619981740502800,2.582502685546875,1.2181997322082518,-3.4753333473205563,-1.329230834197998
1789619981750476800,2.592476806640625,1.739686781311035,-4.926818103790283,-0.2201169151306152
1789619981760449800,2.60244970703125,0.6627449470520019,-5.023334358215331,2.4193407775878906
1789619981770423000,2.612423095703125,-2.4084172325134277,-1.0925041450500488,6.338798532867432
1789619981780397000,2.62239697265625,-0.8880991783142089,-0.20231004028320312,7.369352709960937
1789619981790369800,2.632369873046875,1.9182044425964355,-4.972756848144531,5.508908382415771
1789619981800342800,2.6423427734375,-2.3217770599365233,-6.410624582672119,3.522918105316162
1789619981810316800,2.65231689453125,-1.9590555084228514,-5.278915385437012,-0.30630817489624024
1789619981820289800,2.662289794921875,0.3477577911376953,-6.1942486076354975,-0.2651578338623047
1789619981830262800,2.6722626953125,-0.6096235977172851,-4.497807093811035,1.9829975250244138
1789619981840236800,2.68223681640625,-1.0476128639221192,-2.0515315475463867,2.7500398818969725
1789619981850209800,2.692209716796875,-1.7781436454772948,-5.243451273345947,6.951714157867431
1789619981860182800,2.702182861328125,2.7635072662353513,-6.335207230377197,8.837596878051757
1789619981870156800,2.71215673828125,5.317521887207031,-4.3637318008422845,8.885031998443603
1789619981880129800,2.7221298828125,4.273500325775146,-4.079121078491211,9.884012641143798
1789619981890102800,2.732102783203125,2.9875147590637203,-5.4421700111389155,12.631957596588133
1789619981900076800,2.742076904296875,1.2075754623413084,-5.685331117248535,13.174094635009764
1789619981910049800,2.7520498046875,0.8629600608825683,-6.63986939163208,9.522488190460205
1789619981920022800,2.762022705078125,1.534832901763916,-9.416245491790772,6.983586967468261
1789619981929996800,2.771996826171875,5.711816973114013,-10.6869680229187,5.9293900489807125
1789619981939969800,2.7819697265625,2.08115979309082,-10.863540395355225,8.933963494873046
1789619981949942800,2.79194287109375,-1.31516489944458,-10.20318964996338,11.239579693603515
1789619981959916800,2.801916748046875,0.19961656341552733,-11.490222679901123,14.982764351654051
1789619981969889800,2.811889892578125,1.1350012245178223,-13.634828816986083,14.029722453308105
1789619981979863000,2.821863037109375,1.5198691413879393,-15.55827057571411,12.210278829193115
1789619981989837000,2.831837158203125,1.6852186935424804,-14.49255156173706,13.433715877532958
1789619981999809800,2.841809814453125,1.5566799919128418,-11.958438742065429,10.816853462982177
1789619982009783800,2.85178369140625,2.3689129051208493,-11.486332102203368,9.759813430023193
1789619982020380700,2.862380615234375,2.3184850326538085,-11.187954720306395,8.72058027191162
1789619982030353700,2.872353759765625,1.5441104331970215,-11.193042398834228,8.239645013427733
1789619982040327000,2.882326904296875,0.17118541870117188,-10.317812054443358,8.411578620147704
1789619982050301000,2.892301025390625,-0.6416460449218749,-6.276549289703369,7.363965756225586
1789619982060274000,2.90227392578125,-1.0859200904846191,0.884208600616455,4.279635467529297
1789619982070247000,2.912246826171875,1.4203601348876953,1.183633445739746,1.8851345321655273
1789619982080221000,2.922220947265625,2.037166337585449,-2.7341782958984373,3.6548984718322752
1789619982090193700,2.932193603515625,0.45444940261840816,-3.3221044410705565,7.439532746124267
1789619982100167000,2.9421669921875,-0.04055179061889648,-5.320664276885986,8.054992210388184
1789619982110141000,2.952140869140625,0.24570494537353516,-7.64154351119995,7.473799757385254
1789619982120114000,2.962114013671875,0.5328595069885254,-9.025242433166504,7.31608172302246
1789619982130087000,2.9720869140625,0.5271732780456543,-8.805424793243407,7.1407064514160155
1789619982140061000,2.98206103515625,0.1396118843078613,-8.092551248931885,7.549815660095215
1789619982150033700,2.99203369140625,-0.009127893829345703,-7.819761897277831,7.5068696678161615
1789619982160007700,3.002007568359375,0.30690672531127927,-7.541286316680908,7.192780337524414
1789619982169980700,3.011980712890625,0.5482721801757812,-6.991966673278808,7.032518463897705
1789619982179954000,3.021953857421875,0.5406406623840332,-6.594529197692871,6.835745014953613
1789619982189928000,3.031927978515625,0.4765957679748535,-3.7888241271972656,7.444620424652099
1789619982199901000,3.04190087890625,0.06643909606933593,0.28206688308715816,7.447313901519775
1789619982209874000,3.0518740234375,0.014065934753417967,1.1035773277282714,5.3962312667846675
1789619982219848000,3.061847900390625,0.4346972389221191,1.0389338829040526,5.5181859138488765
1789619982229820700,3.071820556640625,0.9837176071166992,3.4688989303588866,7.038952880859375
1789619982239793700,3.081793701171875,0.967257470703125,3.8117186805725094,7.637802571105957
1789619982249767700,3.091767578125,0.6392518432617187,1.8519149841308593,7.6479779281616205
1789619982259741000,3.101740966796875,0.5009866973876953,-0.10235212097167969,7.871087595367431
1789619982269715000,3.11171484375,0.008828618621826172,-3.490147470092773,6.581361088562011
1789619982279688000,3.12168798828125,-0.12973580245971678,-4.759672900390624,5.810428153991699
1789619982289661000,3.131660888671875,0.471807364654541,-3.492840946960449,6.574777033996582
1789619982299635000,3.141635009765625,0.4665700485229492,-4.620958841705322,6.14127689590454
1789619982309607700,3.151607666015625,-0.14335282440185546,-5.539733728790283,5.869385369873046
1789619982319580700,3.16158056640625,0.31708208236694335,-5.676801773834228,5.5081601943969725
1789619982329554700,3.1715546875,0.07751227874755859,-6.875099704742431,5.533299311828613
1789619982339528000,3.18152783203125,0.5544073219299316,-7.915230688476562,5.757306804656982
1789619982349502000,3.191501953125,2.380734275817871,-12.92838968963623,3.3864486106872556
1789619982359475000,3.201474853515625,2.7822119667053222,-22.124967179107664,2.033874310302734
1789619982369448400,3.211448486328125,-3.687519469451904,-36.76206866607666,16.20350792312622
1789619982379422500,3.22142236328125,-0.9307458953857422,-30.63710226898193,15.116091456604003
1789619982389395500,3.2313955078125,3.4139819297790526,-12.39762510910034,4.473266526794434
1789619982399368400,3.241368408203125,0.9721955116271972,-10.80293716583252,5.359869329071045
1789619982409342500,3.251342529296875,0.11013327636718749,-10.814010348510742,5.661838013458252
1789619982419315500,3.2613154296875,0.2533364631652832,-9.323320539855956,5.204395858764648
1789619982429289200,3.271289306640625,-1.7776947326660155,0.12195464706420897,2.2794296180725095
1789619982439262500,3.281262451171875,-1.5710452018737793,-3.5755905418395995,6.983736605072021
1789619982449235500,3.2912353515625,0.7915829238891601,-11.361085427856445,5.735758989715576
1789619982459209500,3.30120947265625,1.0178349807739258,-10.775852759552002,5.907842234039307
1789619982469182500,3.311182373046875,0.6531681404113769,-9.204957195281981,8.042273014068604
1789619982479156500,3.321156494140625,-0.3416226493835449,-8.494477852630615,8.24188957748413
1789619982489129200,3.331129150390625,-0.8830114997863769,-8.438214113616944,8.007557089996338
1789619982499102500,3.3411025390625,-1.1550526634216307,-8.160337083435058,7.679102549743652
1789619982509076500,3.351076416015625,-0.7680898200988769,-8.317306929779052,7.1410057266235345
1789619982519049500,3.361049560546875,-0.18136077575683593,-8.575880709075927,7.371896549224853
1789619982529022500,3.3710224609375,0.2241571304321289,-8.2100167678833,8.057984962463378
1789619982538996500,3.38099658203125,0.2753331909179687,-7.647678652954101,8.526051387023925
1789619982548969500,3.390969482421875,0.14380173721313474,-7.255179218292236,8.888473663330078
1789619982558943500,3.400943603515625,0.3091512893676758,-7.566575071716308,8.742576999664307
1789619982568916200,3.410916259765625,0.45878889312744137,-7.486668591308593,8.021772662353515
1789619982578889500,3.420889404296875,-0.4748001167297363,-6.564900952148437,6.114641402435303
1789619982588863500,3.430863525390625,-0.9189245246887207,-1.7679682884216308,8.742876274871826
1789619982598836500,3.44083642578125,0.4354454269409179,-1.4499883804321287,10.77046580581665
1789619982608810500,3.450810546875,0.4569932418823242,-4.70505517501831,8.939948999023438
1789619982618783500,3.460783447265625,-0.27997195663452146,-5.691915171813965,7.989600577545166
1789619982628756500,3.470756591796875,-0.598251139831543,-5.181501305389404,8.406939854431151
1789619982638730500,3.48073046875,-0.6596025573730468,-4.855590604400635,8.413823184204102
1789619982648703200,3.490703125,-0.5066729263305664,-5.205443321990966,8.378658347320556
1789619982658677200,3.50067724609375,-0.5470750793457031,-5.356876576995849,8.320748594665528
1789619982668650500,3.510650390625,-0.34671032791137696,-5.354033462524414,8.542960436248778
1789619982678623500,3.52062353515625,-0.13766659545898435,-5.108328517150879,8.563161512756347
1789619982688597500,3.530597412109375,-0.26964696197509763,-4.885368487548828,8.550292678833006
1789619982698570500,3.540570556640625,-0.4423287567138672,-4.705803363037109,8.642768717956542
1789619982708544500,3.55054443359375,-0.4535515769958496,-4.536862508392334,8.636633576202392
1789619982718517200,3.560517333984375,-0.4724059150695801,-4.346074563598632,8.704569048309326
1789619982728490200,3.570490234375,-0.4369418029785156,-4.145859449768066,8.888174388122557
1789619982738464300,3.58046435546875,-0.33533787002563475,-4.141071046447753,9.082852910614013
1789619982748437500,3.5904375,-0.34446576385498046,-4.274847064208984,9.150040194702148
1789619982758411500,3.60041162109375,-0.6555623420715332,-4.453364725494384,8.967033405303955
1789619982768384500,3.610384521484375,-0.7104793426513671,-4.345625650787353,9.105597826385498
1789619982778357500,3.620357421875,-0.816572403717041,-4.115483016204834,9.020753305053711
1789619982788331500,3.63033154296875,-0.9527426231384277,-4.075380138397216,8.624812205505371
1789619982798304300,3.64030419921875,-1.1188403633117676,-4.045452617645264,8.640673791503906
1789619982808278300,3.6502783203125,-0.7582137382507323,-4.074781587982177,8.610895908355712
1789619982818251300,3.660251220703125,-0.6289268486022949,-4.1177275802612305,8.549843766021729
1789619982828225300,3.670225341796875,-0.5460276161193848,-4.265120619964599,8.463053955841064
1789619982838198500,3.680198486328125,-0.5862801315307616,-4.32886623916626,8.627505682373046
1789619982848171500,3.690171630859375,-0.4278139091491699,-4.20706122970581,8.972719634246825
1789619982858145500,3.7001455078125,-1.0119991142272948,-4.444236831665039,8.924536325836181
1789619982868118500,3.710118408203125,-1.286434479522705,-4.517559257507324,9.399635717773437
1789619982878092500,3.720092529296875,-1.0815805999755859,-4.529530265808106,9.78166052017212
1789619982888065300,3.730065185546875,-1.1155483360290526,-4.543446562957763,10.032453144073486
1789619982898038300,3.740038330078125,-1.2030863342285156,-4.4568063903808595,10.083629204559326
1789619982908012300,3.75001220703125,-0.9377788627624511,-4.200028262329101,10.15006830062866
1789619982917985500,3.759985595703125,-0.7619546783447265,-3.8596027137756344,9.945364058685302
1789619982927959600,3.76995947265625,-0.8925883064270019,-3.725976333618164,9.570821136474608
1789619982937932500,3.7799326171875,-1.2452841384887694,-3.799298759460449,9.299079248046874
1789619982947905300,3.7899052734375,-0.9880570976257324,-3.725976333618164,9.209296685791015
1789619982957879300,3.79987939453125,-0.8288426872253417,-3.7351042274475095,9.214833277130126
1789619982967852300,3.809852294921875,-0.7683890953063964,-3.6936546112060546,9.356989000701903
1789619982977826300,3.819826416015625,-1.1270704315185547,-3.972429467010498,9.175628224945068
1789619982987799300,3.82979931640625,-1.2996025886535645,-4.19419239578247,9.202562993621825
1789619982997772500,3.8397724609375,-1.4362217208862305,-4.4644379081726075,9.280524185180663
1789619983007746600,3.84974658203125,-1.3392565536499024,-4.452466899871826,9.388263259887696
1789619983017719600,3.859719482421875,-1.1643301948547362,-4.0909424491882325,9.285013313293456
1789619983027693600,3.869693603515625,-1.216254443359375,-3.850474819946289,8.635436475372314
1789619983037666300,3.879666259765625,-1.5119383483886717,-3.972279829406738,8.130110287475585
1789619983047640300,3.889640380859375,-1.262193187713623,-3.6668694801330566,7.983166160583496
1789619983057613300,3.89961328125,-1.0324994659423827,-3.4139819297790526,7.694814498138427
1789619983067586300,3.90958642578125,-0.8898948295593261,-3.2000001564025875,7.856423110198974
1789619983077560300,3.919560302734375,-0.8975263473510742,-3.0698154411315914,8.286182308197022
1789619983087533600,3.929533447265625,-1.1956044540405273,-3.052457479095459,8.419659050750733
1789619983097507600,3.939507568359375,-1.4661492416381836,-3.084180651092529,8.864830921936035
1789619983107480600,3.94948046875,-1.9150620529174804,-3.442263436889648,9.718812726593017
1789619983117453300,3.959453369140625,-1.445349614715576,-3.5811271331787107,10.06267994003296
1789619983127427300,3.96942724609375,-1.458218448638916,-3.54985287399292,9.982025271606444
1789619983137400300,3.979400390625,-1.694496224975586,-3.4861072547912597,9.735422500610351
1789619983147374300,3.989374267578125,-1.5339350761413573,-3.4090438888549803,9.457994383239745
1789619983157347300,3.999347412109375,-1.7184382415771484,-3.3475428337097166,9.004293168640137
1789619983167321300,4.0093212890625,-1.1399392654418945,-3.310881620788574,8.827720796203613
1789619983177294600,4.019294677734375,-0.9003694618225098,-3.229927677154541,8.616133224487305
1789619983187267300,4.029267333984375,-0.783352855682373,-2.9037177009582518,8.447641282653809
1789619983197241300,4.039241455078125,-0.692073917388916,-2.7884967460632324,8.063820829010009
1789619983207214300,4.04921435546875,-0.5481225425720214,-2.7246014892578123,7.753023526000976
1789619983217188400,4.059188232421875,-0.2597708801269531,-2.3684639923095703,7.719654340362548
1789619983227161300,4.069161376953125,-0.08140285644531249,-2.2750901275634763,7.870638682556152
1789619983237135400,4.07913525390625,0.3769371238708496,-2.006640266418457,7.996334269714355
1789619983247108400,4.0891083984375,0.031124621582031248,-1.687313619995117,6.9910688476562495
1789619983257081600,4.09908154296875,-1.9113211128234862,-2.129941651916504,7.6096707015991205
1789619983267055600,4.1090556640625,-0.5665279678344726,-2.3783400741577148,8.168866426849364
1789619983277028400,4.1190283203125,-0.06015431671142578,-2.0413561904907227,8.533383629608155
1789619983287002400,4.12900244140625,-0.31109657821655273,-2.3292589401245114,8.518569506835936
1789619983296975400,4.138975341796875,-0.8839093254089355,-2.3268647384643555,8.734945481872558
1789619983306949400,4.148949462890625,-1.3088801200866698,-1.9692308654785156,8.883984535217285
1789619983316922400,4.15892236328125,-0.948103857421875,-1.8694225837707519,8.645761470031738
1789619983326895400,4.168895263671875,-2.3413795860290527,-1.8403928886413574,8.028955267333984
1789619983336869400,4.178869384765625,-1.699583903503418,-1.7155951271057128,8.546701376342773
1789619983346842600,4.188842529296875,-1.2741641960144041,-1.9211971946716306,8.542960436248778
1789619983356816600,4.198816650390625,-1.1510124481201172,-1.9642928245544433,8.404096739959716
1789619983366789600,4.20878955078125,-1.4232032493591307,-1.6600795761108398,8.557176008605957
1789619983376763600,4.218763671875,-1.8200421745300293,-1.6431705268859862,8.412775720977782
1789619983386736600,4.228736572265625,-2.037764888000488,-1.7615338714599609,8.459761928558349
1789619983396710700,4.238710693359375,-1.8363526733398436,-1.8306664443969725,8.453776424407959
1789619983406683600,4.24868359375,-1.462557939147949,-1.9295769004821777,8.455272800445556
1789619983416656400,4.258656494140625,-1.665616167449951,-1.9871873779296874,8.489689449310303
1789619983426630400,4.26863037109375,-1.9776105712890624,-2.161215911102295,8.144176222229003
1789619983436603600,4.278603759765625,-1.7383400428771971,-2.2472575332641602,7.8627078895568845
1789619983446577700,4.28857763671875,-1.5842133110046386,-2.2495020973205566,7.869890494537353
1789619983456550700,4.298550537109375,-1.756446192932129,-2.2884078742980956,8.129811012268066
1789619983466524700,4.308524658203125,-2.0479402450561524,-2.4449288078308102,8.526201024627685
1789619983476497700,4.31849755859375,-2.2987328689575195,-2.68120658416748,8.837746515655517
1789619983486470400,4.328470458984375,-1.9660884757995605,-3.027467999267578,8.740631710815428
1789619983496444400,4.3384443359375,-1.7280150482177734,-3.267486715698242,8.62526111831665
1789619983506417400,4.34841748046875,-1.5981296081542968,-3.4186206954956053,8.577676360321044
1789619983516391400,4.358391357421875,-1.5685013626098632,-3.4467525650024413,8.649203134918212
1789619983526364700,4.36836474609375,-1.4417583122253417,-3.519177165222168,8.434772448730468
1789619983536338700,4.378338623046875,-1.213560966491699,-3.545064470672607,8.180388522338866
1789619983546311700,4.388311767578125,-1.1540052001953125,-3.557334754180908,8.041225550842285
1789619983556285700,4.39828564453125,-1.1553519386291504,-3.5500025115966793,7.887547731781005
1789619983566258700,4.4082587890625,-1.0603320602416992,-3.4790742874145506,7.798064444732666
1789619983576232700,4.418232666015625,-0.943614729309082,-3.43478155670166,7.781155395507812
1789619983586205400,4.428205322265625,-1.0836755264282225,-3.3870471611022945,7.900865478515625
1789619983596178400,4.438178466796875,-1.0351929428100586,-3.4005145454406738,8.084321180725096
1789619983606152400,4.44815234375,-0.8581716575622558,-3.5179800643920895,8.428786944580077
1789619983616125700,4.458125732421875,-0.9545382743835449,-3.688118019866943,9.025092795562744
1789619983626099700,4.468099609375,-0.8325836273193359,-3.988440690612793,9.322871627044677
1789619983636072700,4.47807275390625,-0.48288054733276364,-4.285920246887207,9.6151138671875
1789619983646046700,4.488046630859375,-0.5424363136291503,-4.582053064727783,10.00417163696289
1789619983656019700,4.498019775390625,-0.5780500633239746,-4.905719201660156,10.31033017425537
1789619983665993700,4.50799365234375,-0.43798926620483397,-5.052663328552246,10.650306809997558
1789619983675966500,4.517966552734375,-0.23298574905395505,-5.0668789009094235,10.537928969573974
1789619983685940500,4.5279404296875,0.05805939025878906,-4.939986212921142,10.245986004638672
1789619983695913500,4.53791357421875,0.10699088668823241,-4.57127915725708,10.075399136352539
1789619983705886700,4.54788671875,-0.06404489440917968,-4.120421057128906,9.743652568817138
1789619983715860500,4.557860595703125,0.05820902786254883,-3.744531396484375,9.261520209503173
1789619983725833700,4.567833740234375,0.13646949462890623,-3.383006945800781,8.827720796203613
1789619983735807700,4.577807861328125,0.258573779296875,-3.300107713317871,8.396465222167969
1789619983745780500,4.587780517578125,0.2807201446533203,-3.361908043670654,8.307730123138427
1789619983755754500,4.59775439453125,0.021697452545166016,-3.5513492500305173,8.610297357940674
1789619983765727500,4.6077275390625,0.33922844772338867,-3.9407062950134275,8.601618376922607
1789619983775701500,4.617701416015625,0.5683236190795898,-4.420294815063476,8.257900801086425
1789619983785674500,4.627674560546875,0.38621465530395505,-4.798129764556885,8.21061531829834
1789619983795648500,4.6376484375,0.2738368148803711,-5.1343654602050774,8.323292433929442
1789619983805621500,4.64762158203125,0.07332242584228515,-5.468955142211914,8.408735505676269
1789619983815594800,4.6575947265625,0.10863690032958984,-5.781847371673583,8.442553604125976
1789619983825568800,4.66756884765625,0.086191259765625,-5.926696572113037,8.72058027191162
1789619983835541500,4.67754150390625,-0.2720411636352539,-6.227168880462646,9.140613025665283
1789619983845515500,4.687515625,0.21592706222534178,-6.598419775390624,9.035118515014648
1789619983855488500,4.697488525390625,0.8614636848449706,-6.80596713180542,8.929324729156493
1789619983865462500,4.707462646484375,0.30346506042480464,-6.897395707702636,9.147945268249511
1789619983875435500,4.717435546875,0.12300211029052734,-6.886322525024414,8.807070806884765
1789619983885409500,4.727409423828125,0.23612813873291014,-6.656479165649413,8.658630303955078
1789619983895382500,4.737382568359375,0.3407248237609863,-6.572682107543945,8.48445213317871
1789619983905356500,4.7473564453125,0.3978863883972168,-6.649146923065185,8.260594277954102
1789619983915329800,4.757329833984375,0.44756607284545896,-6.752845782470703,8.202534887695313
1789619983925303600,4.767303466796875,0.5431845016479492,-7.027730060577392,7.991096953582764
1789619983935276500,4.777276611328125,0.8400655075073241,-7.0926727806091305,7.9767317436218255
1789619983945249500,4.78724951171875,1.1369465133666992,-7.033117014312744,7.944260383605957
1789619983955223600,4.7972236328125,0.6494272003173828,-7.0735191673278806,7.924358582305908
1789619983965196500,4.807196533203125,0.4382885414123535,-7.009174997711181,7.907599170684814
1789619983975170600,4.817170654296875,0.32920272827148434,-7.099855385589599,7.939771255493164
1789619983985143600,4.8271435546875,0.37499183502197264,-6.725911013793945,8.425794192504883
1789619983995117600,4.83711767578125,0.28924948806762696,-6.768707368469238,8.660425955200195
1789619984005090600,4.847090576171875,0.22565350646972654,-6.934954746246338,8.928127628326415
1789619984015064600,4.857064697265625,0.20141221466064452,-7.031022087860107,9.235183991241454
1789619984025037600,4.86703759765625,0.22685060729980466,-7.02922643661499,9.36551834411621
1789619984035011600,4.877011474609375,0.24525603256225584,-6.915202582550048,9.194482563018799
1789619984044984600,4.886984619140625,0.32875381546020505,-6.906673239135742,8.709956002044677
1789619984054958600,4.89695849609375,0.32620997619628905,-7.056610118103027,8.203133438110351
1789619984064931600,4.906931640625,0.49036242752075193,-6.842478707122802,7.895628162384033
1789619984074905600,4.916905517578125,0.6338648895263671,-6.838288854217529,7.3545385871887206
1789619984084878600,4.926878662109375,0.5829881042480468,-6.90098701019287,6.9342065582275385
1789619984094852600,4.9368525390625,0.3833715408325195,-6.81838705291748,6.80551821899414
1789619984104825600,4.94682568359375,0.3682581428527832,-6.704063923645019,6.719476596832275
1789619984114799600,4.956799560546875,0.28865093765258787,-6.578817249298095,6.587346592712402
1789619984124772600,4.966772705078125,0.2733879020690918,-6.480355706024169,6.736984196472168
1789619984134746600,4.97674658203125,0.3511994560241699,-6.545597701263428,6.921786637115478
1789619984144719600,4.9867197265625,0.1518821678161621,-6.629245121765137,7.240664370727538
1789619984154692600,4.996692626953125,0.13392565536499024,-6.891260565948486,7.45704034576416
1789619984164666600,5.00666650390625,0.15352818145751954,-7.313986796569824,7.971344789886474
1789619984174639400,5.016639404296875,0.40671500701904295,-7.617302219390869,8.205677277374267
1789619984184613400,5.02661328125,1.0931026954650878,-7.991246591186523,7.9855603622436515
1789619984194586600,5.036586669921875,1.380257257080078,-7.9858596374511714,7.988403476715088
1789619984204560600,5.046560546875,1.6130933685302733,-7.848492317199707,7.861810063934326
1789619984214533600,5.05653369140625,1.8007389236450195,-7.854477821350097,7.637054383087158
1789619984224507600,5.066507568359375,1.8034324005126952,-7.915529963684081,7.344512867736816
1789619984234480600,5.076480712890625,1.6326958946228027,-8.010549842071534,7.114220595550536
1789619984244454700,5.08645458984375,1.3326724990844725,-7.940369805908203,6.9588967628479
1789619984254427600,5.096427734375,1.087865379333496,-7.895777799987792,6.9336080078124995
1789619984264401700,5.106401611328125,0.9020154754638672,-7.779659019470214,6.896348244476318
1789619984274374400,5.11637451171875,0.7459434547424316,-7.7221981796264645,6.963834803771972
1789619984284348400,5.126348388671875,0.5295674797058105,-7.621492072296142,7.106738715362549
1789619984294321700,5.13632177734375,0.2528875503540039,-7.42516753616333,7.200262217712402
1789619984304295400,5.14629541015625,-0.07451952667236328,-7.2331824905395505,7.5528084121704095
1789619984314268700,5.1562685546875,-0.2642600082397461,-7.166294481658936,7.848492317199707
1789619984324242700,5.16624267578125,-0.19078794479370115,-7.179761865997314,7.941866181945801
1789619984334215700,5.176215576171875,-0.3124433166503906,-7.180360416412353,8.247875081634522
1789619984344189700,5.186189697265625,-0.6356605407714844,-7.004236956787109,8.709956002044677
1789619984354162700,5.19616259765625,-0.771830760192871,-6.842478707122802,9.142857589721679
1789619984364136700,5.20613671875,-0.5696703575134276,-6.654533876800537,9.26361513595581
1789619984374109200,5.216109130859375,-0.2905962265014648,-6.4463879699707025,8.710404914855957
1789619984384083200,5.226083251953125,-0.17687164764404295,-6.349722077941895,8.225429441070556
1789619984394056400,5.236056396484375,-0.0618003303527832,-6.228814894104003,7.968052762603759
1789619984404030200,5.2460302734375,0.21218612213134763,-6.209960556030273,7.861959701538085
1789619984414003500,5.25600341796875,0.27144261322021485,-6.3037833335876465,7.945607122039794
1789619984423977500,5.2659775390625,0.1936310592651367,-6.443245580291748,8.250718196105957
1789619984433950200,5.2759501953125,0.1396118843078613,-6.646603083801269,8.284835569763183
1789619984443924200,5.28592431640625,0.09472060317993164,-6.665457421875,8.36953045349121
1789619984453897200,5.295897216796875,0.18285715179443357,-6.355109031677245,8.432677522277832
1789619984463871200,5.305871337890625,0.04683656997680664,-5.878812538909912,8.49013836212158
1789619984473844200,5.31584423828125,-0.008828618621826172,-5.39488452835083,8.447641282653809
1789619984483818200,5.325818359375,-0.0522235237121582,-5.052513690948486,8.470086923217773
1789619984493791200,5.335791259765625,-0.12973580245971678,-4.966621706390381,8.715642230987548
1789619984503765200,5.34576513671875,0.09382277755737305,-5.021089794158935,9.050231912994384
1789619984513738500,5.355738525390625,0.2867056488037109,-5.135412923431396,9.563788169097899
1789619984523712500,5.36571240234375,0.24211364288330076,-5.22908606338501,10.08108536529541
1789619984533685200,5.375685302734375,0.1753752716064453,-5.119551337432861,10.65539448852539
1789619984543659300,5.3856591796875,0.040701428222656245,-4.951358670806885,10.900201608276367
1789619984553632300,5.39563232421875,-0.10684124908447265,-4.733486319732665,10.88568676071167
1789619984563606300,5.405606201171875,-0.08723872299194335,-4.463689720153808,10.563816275024413
1789619984573579300,5.415579345703125,-0.09846154327392577,-4.282478582000732,9.700257663726806
1789619984583553300,5.42555322265625,-0.251540811920166,-4.008492129516601,9.128492379760742
1789619984593526300,5.4355263671875,-0.32127193527221676,-3.8052842636108397,8.757391122436523
1789619984603500300,5.445500244140625,-0.2123357597351074,-3.752761464691162,8.345289161682128
1789619984613473300,5.455473388671875,-0.0661398208618164,-3.8091748413085935,8.198793947601319
1789619984623447300,5.465447265625,-0.02693476867675781,-3.9929298187255857,8.151807740020752
1789619984633420300,5.475420166015625,-0.04997895965576172,-4.289960462188721,8.294113101196288
1789619984643394300,5.485394287109375,-0.07691372833251953,-4.5602059745788575,8.43387462310791
1789619984653367300,5.4953671875,-0.18555062866210936,-4.8698061767578125,8.500762631988525
1789619984663341300,5.50534130859375,-0.17342998275756835,-4.960187289428711,8.420407238769531
1789619984673314300,5.515314208984375,-0.464774397277832,-5.090970555114746,8.033743670654296
1789619984683288300,5.525288330078125,-0.5436334144592285,-4.939238024902344,8.020575561523437
1789619984693261300,5.53526123046875,-0.5301660301208496,-4.573224446105956,8.118588191986083
1789619984703235300,5.5452353515625,-0.7965209648132324,-4.478503842926025,8.138489993286132
1789619984713208300,5.555208251953125,-0.7130231819152831,-4.294748865509033,8.597278886413573
1789619984723182000,5.56518212890625,-0.8574234695434569,-4.300135819244384,8.73285055541992
1789619984733155300,5.5751552734375,-1.2927192588806151,-4.579509225463867,8.85555339050293
1789619984743129300,5.58512939453125,-0.9569324760437011,-4.360888686370849,9.431209252166747
1789619984753102300,5.595102294921875,-0.7927800247192383,-4.387224904632568,9.756072489929199
1789619984763076400,5.605076416015625,-0.6599018325805663,-4.638765716552734,9.957783979797362
1789619984773049300,5.61504931640625,-0.5339069702148437,-4.889707978057861,10.054300234222412
1789619984783023400,5.6250234375,-0.4725555526733398,-4.920084411621094,10.29776061553955
1789619984792996000,5.63499609375,-0.3280056274414062,-4.6155718879699705,10.065373416900634
1789619984802970000,5.64497021484375,-0.629525399017334,-4.227860856628418,9.764003282928467
1789619984812943000,5.654943115234375,-0.8960299713134765,-3.7867292007446287,9.373598774719238
1789619984822917000,5.664917236328125,-1.27042325592041,-3.781491884613037,8.966135579681396
1789619984832890400,5.674890380859375,-0.9989806427001953,-3.6091093650817867,9.343970529174804
1789619984842864400,5.684864501953125,-0.6453869850158691,-3.536086214447021,9.211092337036133
1789619984852837400,5.69483740234375,-0.6464344482421874,-3.5344402008056637,8.826523695373535
1789619984862811400,5.704811279296875,-0.42661680831909177,-3.2791584487915038,8.699631007385253
1789619984872784400,5.714784423828125,-0.46507367248535153,-2.8583775070190427,8.560019123077392
1789619984882758400,5.72475830078125,-0.9618705169677734,-2.7922376861572262,8.450334759521484
1789619984892731100,5.734731201171875,-0.4520552009582519,-2.799569928741455,8.422951078033448
1789619984902705200,5.744705078125,-0.2166752502441406,-2.8679543136596677,7.642590974426269
1789619984912678100,5.75467822265625,0.3082534637451172,-2.6331729133605957,7.057956856536864
1789619984922652200,5.764652099609375,0.7962216896057128,-2.354398057556152,6.715735656738281
1789619984932625400,5.77462548828125,1.0483610519409179,-1.8231845642089843,6.803273654937744
1789619984942599400,5.784599365234375,1.2529156562805175,-1.7280150482177734,6.547692627716064
1789619984952572400,5.794572509765625,0.7586626510620117,-1.4148235435485839,6.482151357269287
1789619984962546400,5.80454638671875,-0.13482348098754882,-1.0926537826538085,6.8439750831604
1789619984972519400,5.81451953125,-1.2702736183166503,-1.8975544532775879,6.993911962127685
1789619984982493400,5.824493408203125,-0.9409212524414062,-2.0220529396057128,8.166023312377929
1789619984992466200,5.834466064453125,-1.2529156562805175,-2.1257517990112302,8.252813122558594
1789619985002440200,5.844440185546875,-1.6684592819213866,-2.250399922943115,8.137592167663573
1789619985012413200,5.8544130859375,-1.3153145370483397,-2.3847744911193844,8.275258763122558
1789619985022387200,5.86438720703125,-0.910395181274414,-2.0014029502868653,8.598475987243653
1789619985032360200,5.874360107421875,-1.1002853004455566,-1.7767969070434568,8.53667565689087
1789619985042334200,5.884334228515625,-1.1885714866638184,-1.6786346389770508,8.728361427307128
1789619985052307500,5.894307373046875,-1.5301941360473632,-2.2177789253234863,8.642768717956542
1789619985062281500,5.904281494140625,-0.850989052581787,-2.4938603042602536,8.4666452583313
1789619985072254200,5.914254150390625,-0.7314286071777343,-2.6241946571350097,7.8615107887268065
1789619985082228200,5.924228271484375,-0.6512228515624999,-2.762010890197754,7.369053434753417
1789619985092201200,5.934201171875,-0.790385823059082,-2.9076082786560056,7.14369920349121
1789619985102175200,5.94417529296875,-0.8155249404907227,-3.0837317382812497,7.006631158447266
1789619985112148200,5.954148193359375,-0.7263409286499023,-3.1581016273498532,6.950367419433594
1789619985122122200,5.964122314453125,-0.8426093467712402,-3.0654759506225586,7.217919454956054
1789619985132095200,5.97409521484375,-1.0601824226379395,-2.874239093017578,7.606977224731445
1789619985142069200,5.9840693359375,-1.228375089263916,-2.77083950881958,8.073098360443115
1789619985152043300,5.994043212890625,-1.4459481651306152,-2.781014865875244,8.61239228439331
1789619985162016500,6.0040166015625,-1.497124225616455,-2.93035319442749,8.941295737457274
1789619985171990300,6.013990234375,-1.4499883804321287,-3.155707425689697,9.11038622970581
1789619985181963300,6.02396337890625,-1.5230115310668944,-3.38345585861206,9.233388339996337
1789619985191937300,6.033937255859375,-1.2217910346984862,-3.6079122642517087,9.074473204803466
1789619985201910300,6.04391015625,-1.007360348510742,-3.6317046432495115,8.822483480072021
1789619985211884300,6.05388427734375,-0.9519944351196289,-3.5284546966552734,8.670750949859618
1789619985221857300,6.063857177734375,-0.8819640365600585,-3.3277906700134277,8.54281079864502
1789619985231831300,6.073831298828125,-0.6603507453918457,-3.2091280502319335,8.192658805847168
1789619985241804300,6.08380419921875,-0.48078562088012694,-3.175609226989746,7.827842327880859
1789619985251778300,6.0937783203125,-0.421978042602539,-3.084779201507568,7.762151419830322
1789619985261751300,6.103751220703125,-0.5348047958374023,-3.0647277626037597,7.720851441192626
1789619985271725000,6.11372509765625,-0.5684732566833496,-3.152565036010742,7.643039887237548
1789619985281698300,6.1236982421875,-0.35673604736328124,-3.2665888900756834,7.596502592468261
1789619985291672300,6.13367236328125,-0.3365349708557129,-3.3789667304992674,7.867047380065918
1789619985301645300,6.143645263671875,-0.3794809631347656,-3.5702035881042478,8.128164998626708
1789619985311619300,6.153619384765625,-0.3060088996887207,-3.928286373901367,8.136245429229735
1789619985321592300,6.16359228515625,-0.007032967376708984,-4.295347415924072,7.982417972564697
1789619985331566300,6.17356640625,0.206200617980957,-4.46937594909668,8.092551248931885
1789619985341539300,6.183539306640625,0.045938744354248044,-4.581753789520263,8.399757249450683
1789619985351513300,6.193513427734375,0.8518868782043456,-4.746055878448486,8.193706269073486
1789619985361486000,6.203486083984375,0.7962216896057128,-4.9351978096008295,8.525752111816406
1789619985371459800,6.2134599609375,0.34820670394897457,-5.024980371856689,9.062801471710204
1789619985381433000,6.22343310546875,0.347308878326416,-5.196465065765381,9.389011447906494
1789619985391407000,6.233406982421875,0.5214870491027832,-5.508609107208252,9.427019399261473
1789619985401381000,6.243381103515625,0.7085340538024902,-5.805340475463867,9.494356320953369
1789619985411353900,6.253353759765625,0.6082768592834472,-6.0419175270080565,9.742605105590819
1789619985421328000,6.263327880859375,0.361973363494873,-6.188113465881347,9.997587582397461
1789619985431300900,6.27330078125,0.29867665710449215,-6.329371363830566,9.962422745513916
1789619985441275000,6.28327490234375,0.6521206771850585,-6.436661525726318,9.78689783630371
1789619985451247900,6.293247802734375,0.6509235763549804,-6.530185028076171,9.663147537994384
1789619985461222000,6.303221923828125,0.6622960342407226,-6.684760672760009,9.440187508392333
1789619985471195000,6.31319482421875,0.6705261024475098,-6.924629751586914,8.994267449188232
1789619985481169000,6.3231689453125,0.7939771255493163,-7.200411855316162,8.719233533477782
1789619985491142000,6.333141845703125,0.9141361213684082,-7.395240015411376,8.745120838928223
1789619985501116000,6.343115966796875,0.953790086364746,-7.426364636993408,8.844929120635985
1789619985511089000,6.3530888671875,0.7445967163085937,-7.46960990447998,8.752453081512451
1789619985521063000,6.36306298828125,0.6572083557128906,-7.391648712921143,8.365340600585936
1789619985531036000,6.373035888671875,0.675464143371582,-7.069628589630127,8.142679846191406
1789619985541010000,6.383010009765625,0.25303718795776364,-7.063343810272216,8.099135303497315
1789619985550983000,6.39298291015625,0.2678513107299805,-7.4208280456542965,8.05080235748291
1789619985560957000,6.40295703125,0.616058014678955,-7.621940985107422,8.308627948760986
1789619985570930000,6.412929931640625,0.7010521736145019,-7.860313687896728,8.498667705535889
1789619985580904000,6.422904052734375,0.7369651985168456,-7.83367819442749,8.543110073852539
1789619985590877000,6.432876953125,0.4795885200500488,-7.594407666015624,8.415469197845459
1789619985600851000,6.442850830078125,0.44158056869506834,-7.078157933044433,8.15345375366211
1789619985610824700,6.45282470703125,0.2567781280517578,-6.7936968482971185,7.971195152282714
1789619985620798000,6.4627978515625,0.06150105514526367,-6.701520084381103,7.996783182525634
1789619985630772000,6.47277197265625,0.06314706878662109,-6.76721099243164,8.042721926879882
1789619985640745000,6.482744873046875,0.3534440200805664,-6.870610576629638,8.023119400787353
1789619985650719000,6.492718994140625,0.5571007987976074,-7.129633268737792,7.850886518859863
1789619985660692000,6.50269189453125,0.680551821899414,-7.2331824905395505,7.17632020111084
1789619985670666000,6.512666015625,0.6009446166992187,-7.06753366317749,6.847566385650635
1789619985680639000,6.522638916015625,0.34820670394897457,-7.133074933624267,6.573729570770263
1789620059968259000,80.81025903320312,4.5611038002014155,7.591414913940429,-1.6711527587890624
1789620059978231000,80.82023095703126,5.186588983917236,6.883180135345459,-1.6322469818115233
1789620059988204000,80.8302041015625,5.907094046020507,6.527192276000976,-1.5457564468383789
1789620059998176000,80.84017602539062,6.184671800994873,6.512976703643798,-1.5277999343872068
1789620060008148000,80.85014794921875,6.213851133728027,6.566546965789795,-1.5958850440979002
1789620060018121000,80.86012084960937,6.348076064300537,6.5671455162048336,-1.5907973655700682
1789620060028093200,80.87009326171875,6.73548782043457,6.41631081161499,-1.5120879859924317
1789620060038065000,80.88006494140625,7.210736849975586,6.131999364471435,-1.374571028137207
1789620060048038000,80.89003784179687,7.629871778106689,5.945550910186768,-1.2767080352783202
1789620060058010000,80.90001000976562,8.014889332580566,6.134393566131592,-1.263539926147461
1789620060067982000,80.90998217773438,8.081478066253661,6.351218453979492,-1.1071686302185058
1789620060077955000,80.919955078125,7.94845023651123,6.48050534362793,-0.7541735229492187
1789620060087927000,80.92992700195313,7.823502837371826,6.631190410614013,-0.47120881423950195
1789620060097899000,80.93989892578125,7.710975359344482,6.757933460998535,-0.35015199279785153
1789620060107872000,80.9498720703125,7.557596815490722,6.800280902862548,-0.30346506042480464
1789620060117844200,80.95984423828125,7.302015788269043,6.780977651977539,-0.31049802780151364
1789620060127816000,80.96981591796875,6.983886242675781,6.829310597991943,-0.3199251968383789
1789620060137789000,80.97978881835938,6.68416212234497,6.919242797851562,-0.34835634155273437
1789620060147761200,80.98976123046874,6.30123949432373,7.120804650115966,-0.3441664886474609
1789620060157732900,80.99973291015625,6.012289281463623,7.395240015411376,-0.3037643356323242
1789620060167706000,81.0097060546875,5.783194110107422,7.548319284057617,-0.25917232971191406
1789620060177678000,81.01967797851563,5.549011260223389,7.594407666015624,-0.3064578125
1789620060187650000,81.02965014648437,5.4515971801757805,7.623437361145019,-0.529268204498291
1789620060197623000,81.039623046875,5.4649149269104,7.634061631011963,-0.8303390632629394
1789620060207595000,81.04959497070313,5.504868167114258,7.604433385467529,-1.087865379333496
1789620060217567000,81.05956689453124,5.647921716308593,7.547421458435058,-1.1972504676818847
1789620060227539000,81.0695390625,5.888389345550537,7.495497209930419,-1.1882722114562987
1789620060237512200,81.07951220703124,6.2201359130859375,7.516147199249267,-1.0160393295288086
1789620060247484000,81.08948388671875,6.479906793212891,7.543830155944824,-0.7568669998168945
1789620060257456000,81.0994560546875,6.6702458251953125,7.528267845153808,-0.5611410140991211
1789620060267429000,81.10942919921875,6.888866364288329,7.462427299499511,-0.5223848747253418
1789620060277401000,81.11940112304687,7.142951015472412,7.248744801330566,-0.6196493171691894
1789620060287373000,81.129373046875,7.467215702819824,6.997952177429199,-0.7140706451416016
1789620060297346000,81.13934594726562,7.64812756576538,6.823474731445312,-0.6271311973571777
1789620060307318000,81.14931811523438,7.621342434692382,6.834248638916015,-0.44068274307250976
1789620060317290000,81.1592900390625,7.468113528442382,7.002590943145751,-0.2614168937683105
1789620060327263200,81.16926318359376,7.3036618019104,7.146991230773925,-0.10609306106567382
1789620060337235000,81.17923486328125,7.1224506637573235,7.181258242034912,0.06958148574829101
1789620060347207200,81.18920727539063,6.8381392166137696,7.183502806091308,0.24001871643066405
1789620060357180200,81.19918017578125,6.480804618835449,7.212233226013183,0.40072950286865233
1789620060367151900,81.20915185546875,6.143072547149658,7.256226681518554,0.5033808990478515
1789620060377124000,81.2191240234375,5.853374146270752,7.317129186248779,0.5427355888366698
1789620060387097000,81.22909716796875,5.62457825012207,7.3672577835083,0.6835445739746093
1789620060397069000,81.23906909179688,5.540631554412841,7.378031690979004,0.8096890739440917
1789620060407041000,81.249041015625,5.481674338531493,7.433098329162597,0.7384615745544433
1789620060417014000,81.25901391601562,5.424961686706543,7.416937467956543,0.6073790336608886
1789620060426986000,81.26898608398437,5.517437725830078,7.282413262176513,0.41374797439575195
1789620060436958000,81.2789580078125,5.678747062683105,7.1398086257934565,0.08259995727539061
1789620060446931200,81.28893115234375,5.812523080444335,7.036259403991699,-0.21293431015014647
1789620060456903200,81.29890307617187,5.896619413757324,7.103745963287353,-0.26351182022094727
1789620060466875100,81.30887524414062,6.112546475982666,7.2438067604064935,-0.18465280303955078
1789620060476848000,81.31884814453124,6.481103894042969,7.340472652435302,-0.12554594955444334
1789620060486820000,81.32882006835938,6.854898628234863,7.266551676177978,-0.17028759307861327
1789620060496792000,81.3387919921875,7.0759133689880365,7.149086157226562,-0.3494038047790527
1789620060506765000,81.34876513671875,7.142651740264892,7.073070254516601,-0.5921159980773926
1789620060516737300,81.3587373046875,7.18245534286499,6.989572471618652,-0.8370727554321289
1789620060526709000,81.368708984375,7.196371640014648,6.937797860717773,-0.9744400756835937
1789620060536682200,81.37868212890625,7.208641923522949,6.936151847076416,-0.9335890098571776
1789620060546654200,81.388654296875,7.2450038612365715,6.958298212432861,-0.7680898200988769
1789620060556626200,81.39862622070312,7.22106184463501,6.965929730224609,-0.531812043762207
1789620060566599200,81.40859912109374,7.049726788330077,7.06139852142334,-0.2736871772766113
1789620060576571100,81.41857104492188,6.828562409973144,7.199065116882323,0.025139117431640625
1789620060586543000,81.42854321289063,6.612036797332763,7.296179921722412,0.28371289672851563
1789620060596516000,81.43851611328125,6.430526383972167,7.31608172302246,0.37888241271972656
1789620060606488300,81.44848828125,6.350320628356934,7.2702926162719725,0.3372831588745117
1789620060616460000,81.4584599609375,6.279392404174804,7.171980710601806,0.26560674667358397
1789620060626433000,81.46843310546875,6.226869605255127,7.0388032432556145,0.1444002876281738
1789620060636405200,81.4784052734375,6.177040283203125,6.945429378509521,0.021697452545166016
1789620060646377000,81.488376953125,6.1756935447692864,6.93929423675537,-0.07781155395507812
1789620060656350200,81.49835009765626,6.172102242279053,7.007379346466064,-0.0896329246520996
1789620060666322200,81.508322265625,6.174795719146728,7.087136189270019,-0.11162965240478515
1789620060676294100,81.51829418945313,6.121973645019531,7.101651036834716,-0.1693897674560547
1789620060686267100,81.52826708984375,5.9874494392395015,7.129184355926514,-0.21562778701782226
1789620060696239400,81.5382392578125,5.769876363372802,7.225999885559082,-0.2721908012390137
1789620060706211000,81.54821118164062,5.548412709808349,7.35438894958496,-0.34311902542114253
1789620060716184000,81.55818408203125,5.540631554412841,7.398681680297851,-0.5175964714050293
1789620060726156300,81.56815625,5.871779571533203,7.260117259216308,-0.7073369529724121
1789620060736128000,81.5781279296875,6.404938353729247,7.049726788330077,-0.8351274665832519
1789620060746101200,81.58810131835938,6.947823580169677,6.810007347106933,-0.9253589416503906
1789620060756073200,81.5980732421875,7.462876212310791,6.573879208374023,-1.071405242919922
1789620060766045200,81.60804516601563,7.829039428710937,6.503399897003173,-1.2086229255676268
1789620060776018200,81.61801806640625,7.985410724639892,6.554725595092773,-1.2656348526000976
1789620060785990100,81.627990234375,7.965060010528564,6.6802715446472165,-1.2406453727722166
1789620060795962000,81.63796215820312,7.823203562164307,6.820481979370117,-1.1812392440795898
1789620060805935000,81.64793505859375,7.560739205169678,6.964582991790771,-1.059134959411621
1789620060815907300,81.6579072265625,7.240365095520019,7.058405769348144,-0.8705915786743164
1789620060825879000,81.66787915039062,6.989572471618652,7.129333993530273,-0.5939116493225097
1789620060835852000,81.67785205078125,6.841580881500244,7.175422375488281,-0.241964005279541
1789620060845824300,81.68782421875,6.804620393371581,7.258770520782471,0.15472528228759766
1789620060855796200,81.69779614257813,6.859537393951416,7.34181939086914,0.4795885200500488
1789620060865769200,81.70776928710937,6.827066033935546,7.365312494659423,0.7211036125183105
1789620060875741200,81.7177412109375,6.723516812133789,7.337928813171386,0.92565821685791
1789620060885713200,81.72771313476562,6.564751314544678,7.348852358245849,1.0232219345092772
1789620060895686100,81.73768603515624,6.39670828552246,7.396586753845215,0.8801683853149413
1789620060905658400,81.74765844726562,6.259191327667236,7.400926244354247,0.5533598587036133
1789620060915630000,81.75763012695313,6.253505098724365,7.307851654815673,0.20605098037719724
1789620060925602300,81.76760229492187,6.360047072601318,7.160907527923584,-0.10624269866943359
1789620060935575300,81.7775751953125,6.606799481201172,6.9904702972412105,-0.38576574249267576
1789620060945547000,81.78754711914063,6.962338427734375,6.865373260498046,-0.6054337448120117
1789620060955519200,81.79751928710938,7.2994719490051265,6.707954501342773,-0.7781155395507812
1789620060965492200,81.8074921875,7.585728684997558,6.561459287261963,-0.8487444885253905
1789620060975464200,81.81746411132812,7.83337891921997,6.457461152648926,-0.8634089736938476
1789620060985436200,81.82743627929688,8.01803172225952,6.399551399993896,-0.8442553604125976
1789620060995409200,81.8374091796875,8.137741805267334,6.400898138427734,-0.7805097412109374
1789620061005381000,81.84738110351563,8.184877650451659,6.4190042884826655,-0.6821978355407714
1789620061015353000,81.85735302734375,8.228272555541992,6.429628558349609,-0.5728127471923827
1789620061025326300,81.86732641601563,8.247126893615722,6.46135173034668,-0.38097733917236326
1789620061035298000,81.87729809570313,8.21675046005249,6.487388673400878,-0.15263035583496093
1789620061045270300,81.88727026367188,8.112602687835693,6.542904224395752,0.13691840744018555
1789620061055243300,81.8972431640625,7.803900311279296,6.655282064819335,0.4191349281311035
1789620061065215200,81.90721533203126,7.421875508880615,6.770802294921874,0.6373065544128418
1789620061075187200,81.91718725585937,7.0838441619873045,6.85654464187622,0.8147767524719238
1789620061085160200,81.92716015625,6.878691007232666,6.8487634864807125,0.9048585899353027
1789620061095132200,81.93713208007813,6.788908444976807,6.829310597991943,0.903362213897705
1789620061105104100,81.94710424804687,6.72291826171875,6.780828014373779,0.8412626083374023
1789620061115077400,81.95707739257813,6.684012484741211,6.682815383911133,0.7026981872558593
1789620061125049000,81.96704907226562,6.515819818115234,6.563853488922119,0.5524620330810547
1789620061135021300,81.97702124023438,6.2846297203063965,6.596175211334228,0.4327519500732422
1789620061144994300,81.98699438476562,6.177638833618164,6.65857409210205,0.2620154441833496
1789620061154966000,81.99696606445312,6.28852029800415,6.655132427215576,0.0752677146911621
1789620061164938200,82.00693823242187,6.53766690826416,6.622511429595947,-0.048183308410644526
1789620061174911200,82.0169111328125,6.889464914703368,6.597970862579345,-0.08753799819946288
1789620061184883200,82.02688330078125,7.184550269317627,6.560262186431884,-0.07646481552124022
1789620061194855200,82.03685522460937,7.2723875427246085,6.528838289642334,-0.10369885940551757
1789620061204828200,82.046828125,7.228394087219238,6.525246987152099,-0.16130933685302734
1789620061214800100,82.05680004882812,7.116315522003173,6.531681404113769,-0.309001651763916
1789620061224772000,82.06677221679688,7.118260810852051,6.513575254058837,-0.47494975433349607
1789620061234745300,82.07674536132812,7.294234632873534,6.491279251098632,-0.6004957038879394
1789620061244717000,82.08671704101563,7.499387787628174,6.429927833557128,-0.6775590698242188
1789620061254689300,82.09668920898437,7.60398447265625,6.449530359649658,-0.6821978355407714
1789620061264662300,82.10666235351563,7.67416450881958,6.551882480621337,-0.5810428153991699
1789620061274634200,82.11663427734375,7.6942159477233885,6.666055972290039,-0.4435258575439453
1789620061284606200,82.12660620117188,7.650222492218017,6.809558434295654,-0.2668038475036621
1789620061294579200,82.1365791015625,7.500435250854491,6.916698958587646,0.0008978256225585938
1789620061304551200,82.14655126953124,7.225401335144043,6.992265948486327,0.24570494537353516
1789620061314523100,82.15652319335938,6.842029794311523,7.034463752746581,0.41045594711303707
1789620061324496400,82.16649633789062,6.49277562713623,7.136366960906982,0.5482721801757812
1789620061334468000,82.17646801757813,6.25036270904541,7.212981414031982,0.6525695899963379
1789620061344440300,82.1864404296875,6.104166770172119,7.234828504180908,0.7243956398010254
1789620061354413300,82.19641333007813,5.997924071502685,7.180809329223632,0.7474398307800293
1789620061364385000,82.20638500976563,5.909338610076904,7.135319497680664,0.7263409286499023
1789620061374357200,82.21635717773438,5.820753148651122,7.121103925323486,0.6600514701843261
1789620061384330200,82.22633032226562,5.857414361572265,7.107636540985107,0.49155952835083006
1789620061394302200,82.23630224609374,6.090100835418701,7.039401793670653,0.23732523956298826
1789620061404274200,82.24627416992188,6.493972727966308,6.937199310302734,-0.049230771636962885
1789620061414247200,82.2562470703125,6.961590239715576,6.784120041656494,-0.25752631607055665
1789620061424219100,82.26621923828125,7.331793671417236,6.679523356628418,-0.3799298759460449
1789620061434191000,82.27619116210937,7.679252187347411,6.597821224975585,-0.48677112503051756
1789620061444164400,82.28616430664063,7.9946882560729975,6.574028845977783,-0.5704185455322265
1789620061454136300,82.29613623046875,8.221987776184081,6.504746635437011,-0.6286275733947754
1789620061464108300,82.3061083984375,8.390778993225098,6.423942329406738,-0.6603507453918457
1789620061474081300,82.31608129882812,8.464849607086181,6.312013401794434,-0.7009025360107421
1789620061484053200,82.32605322265626,8.417264849090575,6.260538066101073,-0.6892308029174804
1789620061494025200,82.33602514648437,8.240093926239012,6.268019946289062,-0.5871779571533203
1789620061503998200,82.34599829101562,8.046762142181397,6.413617334747314,-0.3902548706054687
1789620061513970400,82.35597045898437,7.848641954803466,6.533626692962646,-0.19318214645385742
1789620061523942100,82.36594213867187,7.616853306579589,6.649895111083984,-0.037708676147460936
1789620061533915400,82.37591528320313,7.387309222412109,6.683713209533691,-0.00987608184814453
1789620061543887400,82.38588745117187,7.166593756866455,6.649595835876465,-0.010025719451904296
1789620061553859300,82.395859375,6.9792474769592285,6.642263593292236,0.037110125732421874
1789620061563832300,82.40583227539062,6.744017163848876,6.632686786651611,0.049530046844482416
1789620061573804300,82.41580419921875,6.5583168975830075,6.660369743347167,0.02483984222412109
1789620061583776300,82.4257763671875,6.469881073760986,6.753893245697021,-0.008678981018066407
1789620061593749200,82.43574926757813,6.42873073272705,6.849212399291992,-0.03247136001586914
1789620061603721500,82.44572143554687,6.414515160369873,6.918793885040283,-0.04384381790161133
1789620061613693200,82.45569311523437,6.467786147308349,6.958298212432861,-0.052073886108398436
1789620061623666200,82.46566625976563,6.62056614074707,6.873304053497314,-0.16086042404174802
1789620061633638400,82.47563842773438,6.886023249816894,6.762272951507568,-0.31498715591430665
1789620061643610000,82.48561010742188,7.18888975982666,6.686556324005126,-0.5169979209899902
1789620061653583400,82.49558325195312,7.453299405670165,6.598120500183105,-0.7058405769348144
1789620061663555300,82.50555541992188,7.502230902099609,6.59467883529663,-0.7366659233093261
1789620061673527300,82.51552734375,7.481131999969482,6.62071577835083,-0.6808510971069336
1789620061683500300,82.52550024414063,7.433098329162597,6.649895111083984,-0.6798036338806152
1789620061693472500,82.53547241210937,7.419481307220458,6.655282064819335,-0.7697358337402344
1789620061703444200,82.5454443359375,7.5159975616455075,6.6319385986328125,-0.8827122245788573
1789620061713417200,82.55541723632813,7.726088757324218,6.593781009674072,-0.8581716575622558
1789620061723389400,82.56538940429688,7.88500389251709,6.553678131866454,-0.6979097839355468
1789620061733361200,82.57536108398438,7.9086466339111325,6.5683426170349115,-0.4462193344116211
1789620061743334400,82.58533447265626,7.756465190887451,6.627748745727539,-0.23478140029907224
1789620061753306400,82.59530639648438,7.613411641693115,6.696582043457031,-0.18315642700195311
1789620061763278300,82.6052783203125,7.5917141891479485,6.6814686454772945,-0.18480244064331053
1789620061773251300,82.61525122070313,7.566275796508789,6.591686083221435,-0.17298106994628906
1789620061783223300,82.62522338867187,7.516895387268066,6.437409713745117,-0.229843359375
1789620061793195300,82.6351953125,7.198167291259765,6.418106462860107,-0.31573534393310543
1789620061803168300,82.64516821289062,6.415412985992432,6.554575957489013,-0.4192845657348633
1789620061813140500,82.65514038085938,5.955277354431152,6.64615417098999,-0.4827309097290039
1789620061823112200,82.6651123046875,5.588216312408447,6.738480572509765,-0.4004302276611328
1789620061833085200,82.67508520507812,5.294776971435547,6.820631616973877,-0.244507844543457
1789620061843057400,82.68505737304687,5.0818426612854,6.937199310302734,-0.028730419921875
1789620061853030100,82.69503002929687,5.128828868865966,7.083395249176025,0.25303718795776364
1789620061863002400,82.70500244140625,5.390993950653076,7.178564765167236,0.5096656784057617
1789620061872974300,82.71497436523437,5.770774188995361,7.09297205581665,0.6395511184692383
1789620061882947300,82.724947265625,6.143072547149658,6.949768869018555,0.43035774841308594
1789620061892919300,82.73491918945312,6.209661280822753,6.9442322776794425,0.06120177993774414
