time,seconds_elapsed,z,y,x
1789619979232242200,0.0742421875,0.08703548461198807,0.15786325931549072,-0.07702048122882843
1789619979242215200,0.084215087890625,0.07564647495746613,0.11174236238002777,-0.06477659940719604
1789619979252188200,0.094188232421875,0.06323082000017166,0.0465250127017498,-0.04607055336236954
1789619979262161200,0.1041611328125,0.0485212579369545,-0.009976363740861416,-0.027208486571907997
1789619979272134100,0.114134033203125,0.02170375920832157,-0.02584907039999962,-0.0025958199985325336
1789619979282107100,0.124107177734375,-0.010262238793075085,-0.005215557292103767,0.020065026357769966
1789619979292080000,0.134080078125,-0.048438917845487595,0.009503201581537724,0.060504063963890076
1789619979302054100,0.14405419921875,-0.05681962892413139,-0.06505783647298813,0.09619404375553131
1789619979312027100,0.154027099609375,-0.02924605831503868,-0.2370796501636505,0.12486270815134048
1789619979322000400,0.16400048828125,0.013010770082473755,-0.4678565263748169,0.15137812495231628
1789619979331973000,0.17397314453125,0.05668021738529205,-0.6607524752616882,0.19149358570575714
1789619979341946000,0.183946044921875,0.10526186972856522,-0.6375132203102112,0.06526694446802139
1789619979351919000,0.193919189453125,0.11507108807563782,-0.30997422337532043,-0.11593294143676758
1789619979361892400,0.203892333984375,0.17184729874134064,-0.12004342675209045,-0.2803615629673004
1789619979371865600,0.213865478515625,0.2311476320028305,0.06069599464535713,-0.4466637372970581
1789619979381838600,0.223838623046875,0.23919391632080078,0.3611811101436615,-0.5414698719978333
1789619979391811300,0.233811279296875,0.2292877584695816,0.48758965730667114,-0.6287184953689575
1789619979401784300,0.243784423828125,0.20756958425045013,0.3965906500816345,-0.7005533576011658
1789619979411757600,0.253757568359375,0.1871495395898819,0.19960011541843414,-0.7363382577896118
1789619979421730600,0.26373046875,0.16529537737369537,0.023401673883199692,-0.7135688662528992
1789619979431703600,0.27370361328125,0.1527252495288849,-0.09037522971630096,-0.6434822082519531
1789619979441676300,0.28367626953125,0.14957088232040405,-0.14835971593856812,-0.5478009581565857
1789619979451649500,0.2936494140625,0.164333313703537,-0.13530835509300232,-0.4402420222759247
1789619979461623600,0.30362353515625,0.18656682968139648,-0.044036492705345154,-0.3393840789794922
1789619979471596500,0.313596435546875,0.20595517754554749,0.09403029829263687,-0.25283774733543396
1789619979481569500,0.323569580078125,0.21709564328193665,0.2452128529548645,-0.1912420392036438
1789619979491542300,0.333542236328125,0.21068409085273743,0.3352047801017761,-0.15520600974559784
1789619979501515300,0.343515380859375,0.19100095331668854,0.3254208266735077,-0.15028178691864014
1789619979511488500,0.353488525390625,0.17894668877124786,0.26902464032173157,-0.16269850730895996
1789619979521461500,0.36346142578125,0.18595239520072937,0.25427260994911194,-0.17879119515419006
1789619979531434500,0.3734345703125,0.20230767130851746,0.28869929909706116,-0.19065503776073456
1789619979541407200,0.3834072265625,0.2217613011598587,0.3290298581123352,-0.19481025636196136
1789619979551380500,0.39338037109375,0.2288317233324051,0.35867777466773987,-0.19611521065235138
1789619979561353500,0.403353515625,0.22571434080600739,0.37262365221977234,-0.20169883966445923
1789619979571326500,0.413326416015625,0.2097044736146927,0.36918550729751587,-0.20844942331314087
1789619979581300500,0.423300537109375,0.17588980495929718,0.3428920805454254,-0.21541047096252441
1789619979591273500,0.4332734375,0.12570840120315552,0.28939104080200195,-0.21904754638671875
1789619979601246500,0.44324658203125,0.07552847266197205,0.2286187708377838,-0.21243467926979065
1789619979611219500,0.453219482421875,0.04152495786547661,0.1617947220802307,-0.2134658545255661
1789619979621192400,0.4631923828125,0.03184818476438522,0.0652288869023323,-0.20506936311721802
1789619979631165400,0.47316552734375,0.03415927663445473,-0.08294619619846344,-0.18339362740516663
1789619979641138400,0.483138427734375,0.029213521629571915,-0.23321372270584106,-0.13984589278697968
1789619979651111400,0.493111328125,0.0047667669132351875,-0.31912997364997864,-0.07086814939975739
1789619979661084400,0.50308447265625,-0.03976418823003769,-0.33084043860435486,-0.00001802109181880951
1789619979671057400,0.513057373046875,-0.0886734127998352,-0.3015051782131195,0.06283444166183472
1789619979681031400,0.523031494140625,-0.13308563828468323,-0.26107460260391235,0.11931667476892471
1789619979691004400,0.53300439453125,-0.16170956194400787,-0.21900860965251923,0.1648319512605667
1789619979700977700,0.542977783203125,-0.17270199954509735,-0.18353506922721863,0.19519564509391785
1789619979710950400,0.552950439453125,-0.15921548008918762,-0.1698855757713318,0.21616484224796295
1789619979720923400,0.56292333984375,-0.13673870265483856,-0.18576660752296448,0.23126153647899628
1789619979730896400,0.572896484375,-0.11968833208084106,-0.19538675248622894,0.24102680385112762
1789619979740869600,0.58286962890625,-0.11383873969316483,-0.19237655401229858,0.24094033241271973
1789619979750842600,0.592842529296875,-0.12206097692251205,-0.17153120040893555,0.2179332822561264
1789619979760815400,0.6028154296875,-0.1396448165178299,-0.1344350129365921,0.17223085463047028
1789619979770789400,0.612789306640625,-0.16470275819301605,-0.10099688917398453,0.10432717204093933
1789619979780762400,0.622762451171875,-0.19510722160339355,-0.09697351604700089,0.0220114104449749
1789619979790735400,0.6327353515625,-0.22470293939113617,-0.09065517038106918,-0.062066446989774704
1789619979800708600,0.64270849609375,-0.247600719332695,-0.08582689613103867,-0.13923780620098114
1789619979810681300,0.652681396484375,-0.25681740045547485,-0.09380998462438583,-0.21141187846660614
1789619979820654300,0.662654296875,-0.24721866846084595,-0.12305576354265213,-0.27371203899383545
1789619979830627300,0.67262744140625,-0.2268255054950714,-0.15277691185474396,-0.32172295451164246
1789619979840600600,0.6826005859375,-0.19346316158771515,-0.16196490824222565,-0.3501428961753845
1789619979850574600,0.69257470703125,-0.14564770460128784,-0.16713491082191467,-0.36013907194137573
1789619979860547600,0.702547607421875,-0.0892157256603241,-0.18266910314559937,-0.3504571318626404
1789619979870520300,0.712520263671875,-0.03214658424258232,-0.18113352358341217,-0.3116159737110138
1789619979880493300,0.722493408203125,0.023307718336582184,-0.1476542055606842,-0.24866412580013275
1789619979890466600,0.732466552734375,0.09122472256422043,-0.09035496413707733,-0.17497286200523376
1789619979900439600,0.742439453125,0.1728111207485199,-0.026787903159856796,-0.09243950247764587
1789619979910412500,0.75241259765625,0.2497738152742386,0.024081934243440628,-0.003335189539939165
1789619979920386600,0.762386474609375,0.304699182510376,0.060006558895111084,0.0930761769413948
1789619979930359300,0.772359375,0.3291020095348358,0.05864781513810158,0.18903547525405884
1789619979940332300,0.782332275390625,0.3134419620037079,0.0015176159795373678,0.27894049882888794
1789619979950305500,0.792305419921875,0.27015814185142517,-0.072908416390419,0.36220583319664
1789619979960278500,0.802278564453125,0.2146565169095993,-0.10447292029857635,0.4336199462413788
1789619979970251500,0.81225146484375,0.15137207508087158,-0.07760162651538849,0.4857260286808014
1789619979980224300,0.822224365234375,0.08709331601858139,-0.02518969587981701,0.5118136405944824
1789619979990198300,0.8321982421875,0.015288901515305042,0.03340091183781624,0.5026121139526367
1789619980000171500,0.842171630859375,-0.05471629649400711,0.07811177521944046,0.4567733407020569
1789619980010144500,0.85214453125,-0.10885276645421982,0.08304581046104431,0.3845366835594177
1789619980020117500,0.862117431640625,-0.13851651549339294,0.06043674796819687,0.30054670572280884
1789619980030090500,0.872090576171875,-0.15272527933120728,0.04048701003193855,0.22440055012702942
1789619980040063500,0.8820634765625,-0.15853966772556305,0.038215044885873795,0.15872500836849213
1789619980050037500,0.89203759765625,-0.16191868484020233,0.038408923894166946,0.10254587978124619
1789619980060010500,0.902010498046875,-0.16886185109615326,0.03026818297803402,0.06368882954120636
1789619980069983500,0.9119833984375,-0.175604447722435,0.03231428936123848,0.03741195425391197
1789619980079956500,0.92195654296875,-0.18371747434139252,0.049650248140096664,0.02633078396320343
1789619980089929200,0.93192919921875,-0.1869572103023529,0.08006194978952408,0.02487856335937977
1789619980099902500,0.94190234375,-0.1858769953250885,0.1226113811135292,0.029712708666920662
1789619980109876500,0.95187646484375,-0.17390954494476318,0.1613936573266983,0.03884601965546608
1789619980119849500,0.961849365234375,-0.14542843401432037,0.16434377431869507,0.04252050071954727
1789619980129822500,0.971822509765625,-0.10365088284015656,0.128803089261055,0.04634453356266022
1789619980139795500,0.98179541015625,-0.04380534589290619,0.08103156834840775,0.052714210003614426
1789619980149768400,0.9917685546875,0.028224637731909752,0.048294927924871445,0.06351013481616974
1789619980159741400,1.001741455078125,0.10085362195968628,0.01905169151723385,0.08148928731679916
1789619980169715500,1.011715576171875,0.16148661077022552,-0.0015675664180889726,0.11340700089931488
1789619980179688400,1.0216884765625,0.19990959763526917,0.0033770124427974224,0.15710391104221344
1789619980189661400,1.031661376953125,0.22743922472000122,0.02358934096992016,0.2061108648777008
1789619980199634400,1.041634521484375,0.25792813301086426,0.05766202509403229,0.2543814778327942
1789619980209607400,1.051607421875,0.28843462467193604,0.0966339260339737,0.2989446818828583
1789619980219580400,1.061580322265625,0.31172987818717957,0.13541555404663086,0.3325909376144409
1789619980229554400,1.071554443359375,0.32449254393577576,0.15247389674186707,0.35621291399002075
1789619980239527400,1.08152734375,0.3314587473869324,0.13637599349021912,0.36586976051330566
1789619980249500400,1.09150048828125,0.3314052224159241,0.10508331656455994,0.3689206540584564
1789619980259473700,1.1014736328125,0.3203094005584717,0.08342847973108292,0.3652307093143463
1789619980269446400,1.1114462890625,0.2976139187812805,0.07826487720012665,0.36185142397880554
1789619980279420400,1.12142041015625,0.26403114199638367,0.092107854783535,0.35759449005126953
1789619980289393400,1.131393310546875,0.22866782546043396,0.12693534791469574,0.3463729918003082
1789619980299366400,1.141366455078125,0.19598758220672607,0.16439878940582275,0.33220618963241577
1789619980309339600,1.151339599609375,0.16786912083625793,0.1971559375524521,0.3178733289241791
1789619980319312400,1.1613125,0.1426573246717453,0.23428884148597717,0.30007919669151306
1789619980329286400,1.171286376953125,0.11811842024326324,0.249937042593956,0.2846027612686157
1789619980339259400,1.18125927734375,0.09082426130771637,0.24660302698612213,0.26567721366882324
1789619980349232400,1.191232421875,0.06581105291843414,0.22130246460437775,0.23894758522510529
1789619980359205400,1.201205322265625,0.051741648465394974,0.18584921956062317,0.21134333312511444
1789619980369178400,1.211178466796875,0.04045650362968445,0.1673799306154251,0.17989511787891388
1789619980379152400,1.22115234375,0.029007326811552048,0.1685088872909546,0.15454545617103577
1789619980389125400,1.23112548828125,0.01603320613503456,0.17250922322273254,0.15120823681354523
1789619980399098400,1.241098388671875,-0.005386698059737682,0.1676662266254425,0.1671280711889267
1789619980409071000,1.251071044921875,-0.034988000988960266,0.1424628645181656,0.1952744871377945
1789619980419044400,1.26104443359375,-0.07585660368204117,0.0921618863940239,0.2218102216720581
1789619980429018400,1.271018310546875,-0.12081315368413925,0.03886643424630165,0.230651393532753
1789619980438991400,1.280991455078125,-0.15291181206703186,0.0020207706838846207,0.22394022345542908
1789619980448964400,1.29096435546875,-0.15869726240634918,-0.022013457491993904,0.21292565762996674
1789619980458937000,1.30093701171875,-0.15108536183834076,-0.022107332944869995,0.21278172731399536
1789619980468910300,1.310910400390625,-0.15170268714427948,-0.014828914776444435,0.22894763946533203
1789619980478884000,1.320884033203125,-0.1752186417579651,-0.016236811876296997,0.26322704553604126
1789619980488857300,1.330857421875,-0.22609061002731323,-0.026320870965719223,0.29959836602211
1789619980498830300,1.340830322265625,-0.27990418672561646,-0.06781052052974701,0.3164239823818207
1789619980508803300,1.35080322265625,-0.32747703790664673,-0.12913832068443298,0.3172748386859894
1789619980518777300,1.36077734375,-0.35314634442329407,-0.20209884643554688,0.3097307085990906
1789619980528750000,1.37075,-0.35548779368400574,-0.28963667154312134,0.3123539388179779
1789619980538723300,1.380723388671875,-0.3355444073677063,-0.3497719168663025,0.341890424489975
1789619980548696300,1.3906962890625,-0.3265533149242401,-0.36713865399360657,0.3808774948120117
1789619980558669300,1.40066943359375,-0.3354777991771698,-0.361314058303833,0.41531237959861755
1789619980568643300,1.410643310546875,-0.3370967507362366,-0.34477663040161133,0.4361681342124939
1789619980578616300,1.4206162109375,-0.3108397126197815,-0.2900885045528412,0.45610058307647705
1789619980588589300,1.43058935546875,-0.27249765396118164,-0.202511265873909,0.48099392652511597
1789619980598562300,1.440562255859375,-0.23639774322509766,-0.10507456213235855,0.500532329082489
1789619980608536300,1.450536376953125,-0.20677006244659424,-0.008096354082226753,0.5096120834350586
1789619980618509300,1.46050927734375,-0.17852826416492462,0.09001924842596054,0.5060505867004395
1789619980628482300,1.470482421875,-0.15263594686985016,0.1637914776802063,0.4828394949436188
1789619980638455300,1.480455322265625,-0.1372692584991455,0.19403250515460968,0.454119473695755
1789619980648429300,1.49042919921875,-0.12899774312973022,0.2026640772819519,0.4103038012981415
1789619980658402300,1.50040234375,-0.1404227316379547,0.24241675436496735,0.3480626046657562
1789619980668375300,1.510375244140625,-0.15729333460330963,0.43154409527778625,0.2581108808517456
1789619980678348300,1.520348388671875,-0.17977023124694824,0.6754027009010315,0.14494375884532928
1789619980688321300,1.5303212890625,-0.1583339124917984,0.7616022825241089,-0.05368812009692192
1789619980698295300,1.54029541015625,-0.10033070296049118,0.7899184823036194,-0.26376163959503174
1789619980708268300,1.550268310546875,0.003650553757324815,0.8169056177139282,-0.48565754294395447
1789619980718241300,1.5602412109375,0.09177998453378677,0.9325138926506042,-0.7378572225570679
1789619980728214300,1.57021435546875,0.16901353001594543,1.2419973611831665,-1.0500510931015015
1789619980738188300,1.580188232421875,0.3103068470954895,1.6957932710647583,-1.403809666633606
1789619980748161300,1.590161376953125,0.5243115425109863,2.2707767486572266,-1.7431517839431763
1789619980758134300,1.60013427734375,0.7748677134513855,2.886896848678589,-2.0415501594543457
1789619980768107300,1.610107177734375,1.0494472980499268,3.4764270782470703,-2.296072006225586
1789619980778081300,1.620081298828125,1.3232120275497437,3.858400344848633,-2.4836015701293945
1789619980788054300,1.63005419921875,1.5508800745010376,4.001205921173096,-2.597078800201416
1789619980798027300,1.64002734375,1.6997193098068237,3.900568723678589,-2.628939151763916
1789619980808000300,1.650000244140625,1.7459049224853516,3.6393632888793945,-2.5819451808929443
1789619980817974300,1.659974365234375,1.7294033765792847,3.487593173980713,-2.406339168548584
1789619980827947300,1.669947265625,1.6546615362167358,3.4273228645324707,-2.1170785427093506
1789619980837920300,1.679920166015625,1.5128839015960693,3.359881639480591,-1.7521064281463623
1789619980847893200,1.689893310546875,1.2884798049926758,3.2161993980407715,-1.3317097425460815
1789619980857867300,1.6998671875,0.9696971774101257,3.0171849727630615,-0.8867976069450378
1789619980867840300,1.70984033203125,0.6347077488899231,2.704477310180664,-0.4352165460586548
1789619980877813200,1.719813232421875,0.43856173753738403,2.137145519256592,0.03678276762366295
1789619980887786500,1.729786376953125,0.23080028593540192,1.56228768825531,0.5799736380577087
1789619980897760500,1.739760498046875,0.08719024807214737,0.46609970927238464,1.0835212469100952
1789619980907733200,1.749733154296875,-0.5796946287155151,-1.2444225549697876,1.405043125152588
1789619980917706200,1.759706298828125,-2.0763652324676514,-3.1118547916412354,1.4994984865188599
1789619980927679200,1.76967919921875,-3.0338268280029297,-4.187119960784912,1.695389747619629
1789619980937653200,1.7796533203125,-3.180142641067505,-4.888739109039307,1.9933254718780518
1789619980947626200,1.789626220703125,-3.138967514038086,-5.964447975158691,2.008664846420288
1789619980957599500,1.799599609375,-3.0872318744659424,-7.368218898773193,1.6819759607315063
1789619980967573500,1.809573486328125,-2.8159258365631104,-8.959089279174805,1.2145358324050903
1789619980977546200,1.819546142578125,-2.156157970428467,-10.769205093383789,0.5686461925506592
1789619980987519200,1.829519287109375,-1.4661266803741455,-11.159810066223145,-1.2828679084777832
1789619980997492200,1.8394921875,-1.252882719039917,-8.466851234436035,-2.363408088684082
1789619981007466200,1.84946630859375,-1.0234240293502808,-6.3752923011779785,-2.653048276901245
1789619981017439500,1.859439453125,-0.591485857963562,-4.381864070892334,-2.5010199546813965
1789619981027412200,1.869412109375,0.06813304126262665,-3.4118309020996094,-1.9176924228668213
1789619981037385200,1.87938525390625,0.7538886070251465,-2.6012487411499023,-1.035824179649353
1789619981047359200,1.889359130859375,1.3503317832946777,-1.8908774852752686,-0.09858009964227676
1789619981057332200,1.899332275390625,1.591408133506775,-1.1704387664794922,0.7019978761672974
1789619981067305200,1.90930517578125,1.4763236045837402,-0.781102180480957,1.3353064060211182
1789619981077279200,1.919279296875,1.2069766521453857,-0.8707433342933655,1.795206904411316
1789619981087252500,1.92925244140625,0.8617743849754333,-1.5080903768539429,1.7300313711166382
1789619981097225200,1.93922509765625,0.7412732243537903,-2.5807790756225586,1.4056754112243652
1789619981107198200,1.9491982421875,0.8625079989433289,-3.2913520336151123,1.1853537559509277
1789619981117172200,1.959172119140625,1.1272690296173096,-3.5070950984954834,1.1072248220443726
1789619981127145200,1.969145263671875,1.938887119293213,-3.4040462970733643,1.1499522924423218
1789619981137118500,1.979118408203125,2.6349823474884033,-3.0590872764587402,1.4627469778060913
1789619981147091500,1.989091552734375,2.0362367630004883,-2.69211745262146,1.1532469987869263
1789619981157065500,1.9990654296875,0.9324207901954651,-2.8494462966918945,0.4497164785861969
1789619981167038200,2.0090380859375,0.6655941605567932,-3.036975622177124,0.3399452269077301
1789619981177011200,2.01901123046875,0.7223055362701416,-3.3110454082489014,0.3324103355407715
1789619981186985200,2.028985107421875,0.6520119309425354,-3.501277446746826,0.1810855269432068
1789619981196958200,2.038958251953125,0.6665745377540588,-3.562992572784424,0.057468682527542114
1789619981206931500,2.048931396484375,0.8271242380142212,-3.59023118019104,-0.03612518310546875
1789619981216904400,2.058904541015625,1.095011591911316,-3.709214687347412,-0.14178620278835297
1789619981226878500,2.06887841796875,1.3796086311340332,-3.9034314155578613,-0.30058062076568604
1789619981236851200,2.078851318359375,1.694642186164856,-4.152827739715576,-0.4638753831386566
1789619981246824200,2.08882421875,2.036492347717285,-4.3480424880981445,-0.5948682427406311
1789619981256798200,2.098798095703125,2.3449161052703857,-4.466926574707031,-0.7033065557479858
1789619981266771200,2.108771240234375,2.6296300888061523,-4.45153284072876,-0.8499572277069092
1789619981276744400,2.118744384765625,2.897418975830078,-4.509693622589111,-0.976730465888977
1789619981286718500,2.128718505859375,3.1660244464874268,-4.544914722442627,-0.9965811371803284
1789619981296691200,2.138691162109375,3.444777488708496,-4.532179355621338,-0.9431853890419006
1789619981306664200,2.148664306640625,3.7413618564605713,-4.538991928100586,-0.842815637588501
1789619981316637200,2.15863720703125,4.09108304977417,-4.485005855560303,-0.6825974583625793
1789619981326611200,2.168611083984375,4.46886682510376,-4.352090358734131,-0.4720671474933624
1789619981336584400,2.17858447265625,4.85478401184082,-4.09152889251709,-0.2129255086183548
1789619981346557400,2.188557373046875,5.2076029777526855,-3.7116756439208984,0.05837417393922806
1789619981356531500,2.198531494140625,5.42892599105835,-3.328341007232666,0.3134899437427521
1789619981366503700,2.208503662109375,5.516870021820068,-3.0837008953094482,0.5614190697669983
1789619981376476700,2.2184765625,5.507701396942139,-2.8930790424346924,0.8023850917816162
1789619981386450700,2.22845068359375,5.308465003967285,-2.665346384048462,1.0616769790649414
1789619981396424000,2.238423828125,4.9861602783203125,-2.436406373977661,1.3437390327453613
1789619981406397000,2.24839697265625,4.688104629516602,-2.1454854011535645,1.6278061866760254
1789619981416371000,2.258370849609375,4.490664958953857,-1.7340326309204102,1.8338258266448975
1789619981426344000,2.268343994140625,4.520390510559082,-1.1465810537338257,1.8971822261810303
1789619981436316700,2.278316650390625,4.628275394439697,-0.26571887731552124,1.7319300174713135
1789619981446289700,2.28828955078125,4.723806381225586,0.32951757311820984,1.4139435291290283
1789619981456263700,2.298263671875,4.605095386505127,0.6928660869598389,1.1837680339813232
1789619981466237000,2.30823681640625,4.140695095062256,0.9777960777282715,0.44988134503364563
1789619981476210000,2.3182099609375,3.4127488136291504,0.5691232681274414,-0.028568966314196587
1789619981486184000,2.328183837890625,2.6189637184143066,0.03881971165537834,-0.09570033103227615
1789619981496157000,2.338156982421875,2.008556842803955,0.016191763803362846,0.08995246887207031
1789619981506129700,2.348129638671875,1.3893461227416992,0.18846125900745392,0.14126917719841003
1789619981516103700,2.358103759765625,0.8385782241821289,0.5315006971359253,0.2721422612667084
1789619981526076700,2.36807666015625,0.591623842716217,1.384774923324585,0.32857492566108704
1789619981536050000,2.3780498046875,0.3765563368797302,2.023851156234741,0.16983170807361603
1789619981546024000,2.38802392578125,-0.21103817224502563,1.758733868598938,-0.07798555493354797
1789619981555997000,2.397996826171875,-0.9847944378852844,0.8227993249893188,-0.11237450689077377
1789619981565970000,2.407969970703125,-1.7748563289642334,-0.46574029326438904,0.25775882601737976
1789619981575942700,2.417942626953125,-2.613416910171509,-1.5755844116210938,1.0882248878479004
1789619981585916700,2.427916748046875,-3.2071828842163086,-2.1978542804718018,1.8082815408706665
1789619981595890000,2.437889892578125,-3.246328830718994,-2.275210380554199,1.870231032371521
1789619981605863000,2.44786279296875,-2.669924020767212,-1.70819091796875,1.165022850036621
1789619981615837000,2.4578369140625,-2.010843515396118,-1.0709091424942017,0.0696287453174591
1789619981625810000,2.467809814453125,-2.090456247329712,-0.8736287355422974,-0.25788894295692444
1789619981635782700,2.47778271484375,-2.3599610328674316,-1.1078660488128662,0.09776873886585236
1789619981645756700,2.487756591796875,-2.5144400596618652,-1.4944802522659302,0.49988049268722534
1789619981655729700,2.497729736328125,-2.5181782245635986,-1.6502101421356201,0.7156457304954529
1789619981665703000,2.507702880859375,-2.699556350708008,-1.6253663301467896,0.8632460832595825
1789619981675677000,2.517677001953125,-3.1496996879577637,-1.6740895509719849,1.068274736404419
1789619981685650000,2.52764990234375,-3.4865336418151855,-1.7958614826202393,1.1599228382110596
1789619981695623000,2.537622802734375,-3.5197196006774902,-1.8204991817474365,1.0863109827041626
1789619981705597000,2.547596923828125,-3.0805604457855225,-1.7258225679397583,1.095547080039978
1789619981715569700,2.557569580078125,-2.6783413887023926,-1.5079607963562012,0.9055869579315186
1789619981725542700,2.567542724609375,-2.128777027130127,-1.4903274774551392,0.7568749785423279
1789619981735516700,2.5775166015625,-1.4408868551254272,-1.5542224645614624,0.8408842086791992
1789619981745490000,2.587489990234375,-0.8033063411712646,-1.389545202255249,0.9330793619155884
1789619981755463000,2.597462890625,-0.39889517426490784,-1.0816646814346313,0.8955636620521545
1789619981765437000,2.60743701171875,-0.4493434429168701,-0.7269449234008789,0.5027013421058655
1789619981775410000,2.617409912109375,-0.18580588698387146,-0.36038824915885925,0.25906261801719666
1789619981785382700,2.627382568359375,0.15930622816085815,0.5967715382575989,0.1689596325159073
1789619981795356700,2.637356689453125,0.5241536498069763,1.297061562538147,-0.42700183391571045
1789619981805330000,2.647329833984375,1.2671053409576416,1.2669188976287842,-0.8389928340911865
1789619981815303000,2.657302978515625,2.01200795173645,0.9072012901306152,-0.8320491313934326
1789619981825277000,2.66727685546875,2.7629811763763428,0.4127603769302368,-0.8889235854148865
1789619981835250000,2.67725,3.390960216522217,0.38268744945526123,-1.0079940557479858
1789619981845222700,2.68722265625,3.7034218311309814,0.5545540452003479,-1.1094841957092285
1789619981855196700,2.69719677734375,3.6732959747314453,1.3641624450683594,-1.009670615196228
1789619981865169700,2.707169677734375,3.506664276123047,2.0446441173553467,-0.7917311787605286
1789619981875143000,2.717142822265625,3.304168224334717,2.5270729064941406,-0.6707126498222351
1789619981885117000,2.727116943359375,2.839571952819824,2.927539110183716,-0.7562161087989807
1789619981895090000,2.73708984375,2.230480432510376,3.338498115539551,-0.9118369221687317
1789619981905063000,2.74706298828125,2.082986354827881,3.6534647941589355,-1.112067461013794
1789619981915037000,2.757036865234375,2.199044942855835,4.173923015594482,-1.311578392982483
1789619981925009700,2.767009765625,2.3900086879730225,5.460871696472168,-1.5200812816619873
1789619981934982700,2.776982666015625,2.2560784816741943,5.317329406738281,-1.6643290519714355
1789619981944956700,2.786956787109375,1.9002488851547241,4.110240936279297,-1.3677985668182373
1789619981954930000,2.796929931640625,1.1349810361862183,2.5458335876464844,-0.9609239101409912
1789619981964903000,2.80690283203125,0.4889625608921051,1.1827245950698853,-0.5792604088783264
1789619981974877000,2.816876953125,0.1948002725839615,0.4251323342323303,-0.3593711256980896
1789619981984850000,2.826849853515625,-0.1921173483133316,0.022174227982759476,-0.28161507844924927
1789619981994824000,2.836823974609375,-0.2397565096616745,-0.06797243654727936,-0.3540913760662079
1789619982004796700,2.846796630859375,-0.2835465967655182,0.034647684544324875,-0.5104133486747742
1789619982014770000,2.85677001953125,-0.3704092800617218,0.045222438871860504,-0.6785494089126587
1789619982025366800,2.86736669921875,-0.589941143989563,-0.22572916746139526,-0.5601285099983215
1789619982035340800,2.8773408203125,-0.9226267337799072,-0.7291040420532227,-0.5365188717842102
1789619982045313800,2.887313720703125,-1.362836480140686,-1.5186641216278076,-0.8273826241493225
1789619982055286800,2.897286865234375,-0.8330167531967163,-4.387648105621338,-1.0686331987380981
1789619982065260800,2.9072607421875,0.07834356278181076,-3.792182445526123,-1.312377691268921
1789619982075234000,2.917234130859375,0.5357721447944641,-0.920486330986023,-1.524847149848938
1789619982085206800,2.927206787109375,0.35457175970077515,0.3696092963218689,-1.2924562692642212
1789619982095180800,2.937180908203125,0.06397800147533417,0.41459301114082336,-0.7587899565696716
1789619982105153800,2.94715380859375,-0.08488790690898895,0.1865377575159073,-0.16021493077278137
1789619982115126800,2.957126708984375,-0.11580096930265427,0.09636019915342331,0.3462398648262024
1789619982125100800,2.967100830078125,-0.06233800947666168,0.13917477428913116,0.6860826015472412
1789619982135073800,2.97707373046875,-0.05441027507185936,0.1170431599020958,0.8109779357910156
1789619982145047800,2.9870478515625,-0.0512019619345665,0.11858753114938736,0.7377886772155762
1789619982155020800,2.997020751953125,-0.04251014441251755,0.1362677812576294,0.560792863368988
1789619982164993800,3.006993896484375,-0.054408881813287735,0.09728363156318665,0.3506135046482086
1789619982174967800,3.0169677734375,-0.0528043732047081,0.02887113206088543,0.13616856932640076
1789619982184940800,3.02694091796875,0.06254352629184723,0.12998656928539276,-0.2279164344072342
1789619982194913800,3.036913818359375,0.4198017120361328,-0.25981929898262024,-0.4255869388580322
1789619982204887800,3.0468876953125,0.8861145377159119,-0.6489332318305969,-0.32265231013298035
1789619982214860800,3.05686083984375,1.0027780532836914,-0.6293363571166992,-0.05012170970439911
1789619982224833800,3.066833740234375,0.6610507965087891,-0.22753459215164185,0.20173075795173645
1789619982234807800,3.076807861328125,0.14099621772766113,0.09650328755378723,0.4516785740852356
1789619982244780800,3.08678076171875,-0.22892165184020996,0.12732724845409393,0.6805112361907959
1789619982254754800,3.0967548828125,-0.27159982919692993,-0.187986820936203,0.8311817646026611
1789619982264727800,3.106727783203125,0.06747118383646011,-0.791290283203125,1.1149543523788452
1789619982274700800,3.11670068359375,0.5338734984397888,-1.103798270225525,1.272530198097229
1789619982284674800,3.1266748046875,1.0042507648468018,-0.9736286401748657,1.1800551414489746
1789619982294647800,3.136647705078125,1.551458477973938,-0.42542240023612976,0.6510262489318848
1789619982304620800,3.146620849609375,1.9823722839355469,-0.11363495886325836,0.10447312146425247
1789619982314594800,3.1565947265625,2.4315195083618164,-0.00764551293104887,-0.3083273768424988
1789619982324567800,3.16656787109375,2.564157485961914,0.0011775395832955837,-0.6544430255889893
1789619982334541800,3.176541748046875,2.2248663902282715,-0.165858194231987,-0.5478046536445618
1789619982344514800,3.186514892578125,1.8000625371932983,0.43614163994789124,-0.10012379288673401
1789619982354487800,3.19648779296875,1.6139155626296997,1.2387417554855347,0.04741118475794792
1789619982364462300,3.20646240234375,0.07340126484632492,-0.7546177506446838,-0.2189323604106903
1789619982374435300,3.216435302734375,-0.7868749499320984,-0.7330418825149536,-0.42576128244400024
1789619982384408600,3.22640869140625,-0.6689150333404541,-0.032843273133039474,-0.23299770057201385
1789619982394382600,3.236382568359375,-0.6056872606277466,-0.23092511296272278,0.11393173784017563
1789619982404355600,3.24635546875,-0.6109222173690796,-0.2226211130619049,0.39247336983680725
1789619982414329600,3.25632958984375,-0.6498925685882568,0.22457920014858246,0.608927309513092
1789619982424302300,3.26630224609375,-0.23659737408161163,-0.09012041985988617,0.35508254170417786
1789619982434275300,3.276275390625,-1.0037020444869995,-0.6052539348602295,0.06223072484135628
1789619982444249300,3.286249267578125,-1.0759257078170776,-0.6560702919960022,-0.00890044029802084
1789619982454222300,3.296222412109375,-0.8698210120201111,-0.6136360764503479,0.06583110243082047
1789619982464195600,3.306195556640625,-0.8490113615989685,-0.3930707275867462,0.1593639850616455
1789619982474169600,3.316169677734375,-0.9268513917922974,-0.3149871230125427,0.14404259622097015
1789619982484142300,3.326142333984375,-1.0204622745513916,-0.3447844386100769,0.06596509367227554
1789619982494116400,3.336116455078125,-1.1759403944015503,-0.44669440388679504,-0.049198396503925323
1789619982504089300,3.34608935546875,-1.3275303840637207,-0.424658864736557,-0.13876530528068542
1789619982514062300,3.356062255859375,-1.4621952772140503,-0.31845545768737793,-0.23177273571491241
1789619982524036400,3.366036376953125,-1.6550744771957397,-0.17998628318309784,-0.26709315180778503
1789619982534009300,3.37600927734375,-1.9501084089279175,-0.008916860446333885,-0.3312807083129883
1789619982543983400,3.3859833984375,-2.3363428115844727,0.131688192486763,-0.4098748564720154
1789619982553956600,3.39595654296875,-2.69709849357605,0.3291914463043213,-0.4457729756832123
1789619982563929300,3.405929443359375,-2.6562318801879883,0.5883700251579285,-0.4124988913536072
1789619982573903400,3.4159033203125,-1.3091456890106201,0.17794212698936462,-0.3672213554382324
1789619982583876400,3.42587646484375,-0.29546648263931274,-0.47802722454071045,-0.31277140974998474
1789619982593850400,3.435850341796875,-0.33235448598861694,-0.07343923300504684,-0.3569050133228302
1789619982603823400,3.4458232421875,-0.5315634608268738,0.22152209281921387,-0.3712437152862549
1789619982613796400,3.45579638671875,-0.5534451007843018,0.035192281007766724,-0.3108699321746826
1789619982623770400,3.465770263671875,-0.5332727432250977,-0.21026702225208282,-0.2778824269771576
1789619982633743600,3.47574365234375,-0.5219883322715759,-0.36780846118927,-0.2820381820201874
1789619982643717600,3.485717529296875,-0.5439498424530029,-0.4615511894226074,-0.25971290469169617
1789619982653690400,3.4956904296875,-0.5393199920654297,-0.5456191897392273,-0.24122242629528046
1789619982663663400,3.505663330078125,-0.543044924736023,-0.5518574118614197,-0.2370106279850006
1789619982673637400,3.515637451171875,-0.5480217933654785,-0.492026686668396,-0.23302073776721954
1789619982683610400,3.5256103515625,-0.5369752645492554,-0.44532787799835205,-0.23845838010311127
1789619982693584400,3.53558447265625,-0.5239498019218445,-0.43907859921455383,-0.24921584129333496
1789619982703557400,3.545557373046875,-0.4999009370803833,-0.43900883197784424,-0.25437411665916443
1789619982713530400,3.5555302734375,-0.49828627705574036,-0.43676555156707764,-0.25992023944854736
1789619982723504400,3.56550439453125,-0.5209447741508484,-0.3976849913597107,-0.2612592577934265
1789619982733477400,3.575477294921875,-0.5632560849189758,-0.29983896017074585,-0.253780335187912
1789619982743451400,3.585451416015625,-0.5892727375030518,-0.22230210900306702,-0.23115038871765137
1789619982753424400,3.59542431640625,-0.5821376442909241,-0.23651397228240967,-0.22900187969207764
1789619982763397400,3.6053974609375,-0.6108962893486023,-0.23302815854549408,-0.2405078113079071
1789619982773371400,3.615371337890625,-0.689862072467804,-0.14221929013729095,-0.2615506649017334
1789619982783344400,3.625344482421875,-0.6960363388061523,-0.11365475505590439,-0.2820042669773102
1789619982793318400,3.635318359375,-0.6956061720848083,-0.1457957774400711,-0.2947195768356323
1789619982803291400,3.64529150390625,-0.7000360488891602,-0.08135420083999634,-0.2880036234855652
1789619982813264400,3.655264404296875,-0.7061720490455627,-0.038374606519937515,-0.2578146457672119
1789619982823238400,3.66523828125,-0.6917625069618225,-0.012973375618457794,-0.22260446846485138
1789619982833211400,3.67521142578125,-0.6923446655273438,0.007333534769713879,-0.19554343819618225
1789619982843185400,3.685185302734375,-0.7731904983520508,0.18140758574008942,-0.16126589477062225
1789619982853158400,3.695158447265625,-0.7402358651161194,0.1295086145401001,-0.13873057067394257
1789619982863131600,3.705131591796875,-0.726671576499939,0.017730949446558952,-0.11876564472913742
1789619982873105400,3.71510546875,-0.739174485206604,-0.04574495181441307,-0.10060225427150726
1789619982883078400,3.725078369140625,-0.7397470474243164,-0.12862704694271088,-0.09022604674100876
1789619982893052400,3.735052490234375,-0.7303952574729919,-0.24461880326271057,-0.08913806825876236
1789619982903025400,3.745025390625,-0.7448943257331848,-0.26147180795669556,-0.0718110054731369
1789619982912998400,3.754998291015625,-0.8054041862487793,-0.20100565254688263,-0.04831385612487793
1789619982922972400,3.764972412109375,-0.7982373833656311,-0.2185705304145813,-0.03147149085998535
1789619982932945400,3.7749453125,-0.7607943415641785,-0.33456653356552124,-0.04215887188911438
1789619982942919400,3.78491943359375,-0.7604614496231079,-0.3417951464653015,-0.04642019793391228
1789619982952892400,3.794892333984375,-0.756504476070404,-0.28523731231689453,-0.03961934894323349
1789619982962866400,3.804866455078125,-0.8216875195503235,-0.14330868422985077,-0.019151892513036728
1789619982972839400,3.81483935546875,-0.810000479221344,-0.1314147710800171,-0.01445407047867775
1789619982982812400,3.8248125,-0.8018815517425537,-0.14974424242973328,-0.018288755789399147
1789619982992786400,3.834786376953125,-0.7789631485939026,-0.22932864725589752,-0.04470343887805939
1789619983002759400,3.844759521484375,-0.7947632074356079,-0.23060163855552673,-0.06534001231193542
1789619983012733400,3.8547333984375,-0.8552191257476807,-0.14709264039993286,-0.07027154415845871
1789619983022706400,3.86470654296875,-0.8545445799827576,-0.08629800379276276,-0.08709979802370071
1789619983032679400,3.874679443359375,-0.8174420595169067,-0.1494685560464859,-0.12468834221363068
1789619983042653400,3.8846533203125,-0.8111372590065002,-0.14543013274669647,-0.14370596408843994
1789619983052626400,3.89462646484375,-0.7986763715744019,-0.07049885392189026,-0.1439286768436432
1789619983062600400,3.904600341796875,-0.8208023905754089,0.06474338471889496,-0.1206718310713768
1789619983072573400,3.914573486328125,-0.8658401966094971,0.1674777865409851,-0.11091721057891846
1789619983082547500,3.92454736328125,-0.8344870805740356,0.18794125318527222,-0.14682167768478394
1789619983092520400,3.9345205078125,-0.7775057554244995,0.1298820972442627,-0.1939990222454071
1789619983102493400,3.944493408203125,-0.695946991443634,-0.10941651463508606,-0.2625426650047302
1789619983112467500,3.954467529296875,-0.6847245693206787,-0.07353202253580093,-0.2927458882331848
1789619983122440400,3.9644404296875,-0.6830872297286987,-0.017523610964417458,-0.3104892075061798
1789619983132414500,3.97441455078125,-0.6694415211677551,-0.07893797755241394,-0.33144378662109375
1789619983142387500,3.984387451171875,-0.6681845188140869,-0.16258734464645386,-0.34328901767730713
1789619983152360400,3.9943603515625,-0.5885850191116333,-0.3672785460948944,-0.3986921012401581
1789619983162334500,4.00433447265625,-0.5384163856506348,-0.41203218698501587,-0.4329923093318939
1789619983172307500,4.014307373046875,-0.4751085638999939,-0.4018445312976837,-0.45052891969680786
1789619983182281500,4.024281494140625,-0.4252070486545563,-0.3822348713874817,-0.4535934329032898
1789619983192254200,4.034254150390625,-0.3732716739177704,-0.3750465214252472,-0.4330175817012787
1789619983202228200,4.044228271484375,-0.3226977288722992,-0.3342282474040985,-0.391937792301178
1789619983212201500,4.054201416015625,-0.2865721881389618,-0.23458337783813477,-0.33274611830711365
1789619983222174500,4.064174560546875,-0.24859313666820526,-0.12717169523239136,-0.26978206634521484
1789619983232148500,4.0741484375,-0.298482209444046,0.1905669867992401,-0.1712186187505722
1789619983242121500,4.08412158203125,-0.19645117223262787,0.32241103053092957,-0.1012222170829773
1789619983252095500,4.094095458984375,-0.12912926077842712,0.0068616075441241264,-0.1283048689365387
1789619983262068500,4.104068359375,-0.13883674144744873,0.050577398389577866,-0.08435312658548355
1789619983272042500,4.11404248046875,-0.15800058841705322,0.1226571649312973,0.0026378370821475983
1789619983282015200,4.12401513671875,-0.1471247673034668,0.177912175655365,0.06801178306341171
1789619983291988500,4.133988525390625,-0.12438928335905075,0.22647392749786377,0.09935802221298218
1789619983301962500,4.14396240234375,-0.11504531651735306,0.26106759905815125,0.12109100818634033
1789619983311935500,4.153935546875,-0.11526936292648315,0.4381762146949768,0.18250420689582825
1789619983321909500,4.163909423828125,-0.027423927560448647,0.2332848608493805,0.15609070658683777
1789619983331882500,4.173882568359375,-0.01963278278708458,0.2239397019147873,0.18254637718200684
1789619983341856500,4.1838564453125,0.01480801496654749,0.2520219385623932,0.2509062588214874
1789619983351829500,4.19382958984375,0.08139756321907043,0.3059919476509094,0.3223046660423279
1789619983361803300,4.20380322265625,0.14604100584983826,0.3438549041748047,0.3803389370441437
1789619983371776500,4.213776611328125,0.22670955955982208,0.4210353195667267,0.3862762451171875
1789619983381749500,4.22374951171875,0.2777564823627472,0.4256676137447357,0.3796934485435486
1789619983391723500,4.2337236328125,0.31811854243278503,0.43607258796691895,0.38699331879615784
1789619983401696800,4.24369677734375,0.3445182144641876,0.43908435106277466,0.42877325415611267
1789619983411670800,4.2536708984375,0.35525786876678467,0.4345349669456482,0.44309788942337036
1789619983421643500,4.2636435546875,0.3882051706314087,0.47424963116645813,0.4289306700229645
1789619983431617500,4.273617431640625,0.4274497926235199,0.5072397589683533,0.4234234094619751
1789619983441590500,4.283590576171875,0.4726702570915222,0.5233556032180786,0.4361128509044647
1789619983451563500,4.2935634765625,0.5308886170387268,0.5187277793884277,0.44360125064849854
1789619983461537500,4.30353759765625,0.5834786295890808,0.4769339859485626,0.4322918653488159
1789619983471510500,4.313510498046875,0.6298878788948059,0.445596843957901,0.3864554166793823
1789619983481484500,4.323484619140625,0.6838502287864685,0.4496254324913025,0.34664061665534973
1789619983491457500,4.33345751953125,0.7506803870201111,0.44824424386024475,0.3168852627277374
1789619983501431600,4.343431640625,0.8149799704551697,0.4193175435066223,0.2996665835380554
1789619983511404500,4.353404541015625,0.8538956046104431,0.3841821849346161,0.27041706442832947
1789619983521378600,4.363378662109375,0.8782970309257507,0.39522603154182434,0.229280024766922
1789619983531351600,4.3733515625,0.89295494556427,0.4238875210285187,0.1887582540512085
1789619983541324500,4.383324462890625,0.9025177955627441,0.48131033778190613,0.14434872567653656
1789619983551298600,4.393298583984375,0.921022891998291,0.5627161264419556,0.08558855950832367
1789619983561271600,4.403271484375,0.9497799277305603,0.6193357110023499,0.03333653509616852
1789619983571245600,4.41324560546875,0.9854534268379211,0.6640822887420654,-0.012968665920197964
1789619983581218600,4.423218505859375,1.0321602821350098,0.6872859001159668,-0.07049267739057541
1789619983591192600,4.433192626953125,1.0838600397109985,0.7072197794914246,-0.1197953000664711
1789619983601165600,4.44316552734375,1.13502836227417,0.7267974615097046,-0.15303662419319153
1789619983611139600,4.4531396484375,1.1731644868850708,0.7067070603370667,-0.18287594616413116
1789619983621112600,4.463112548828125,1.215826153755188,0.7109375,-0.2030150443315506
1789619983631085600,4.47308544921875,1.2440532445907593,0.7280860543251038,-0.20547227561473846
1789619983641059600,4.4830595703125,1.2529040575027466,0.749508261680603,-0.22865988314151764
1789619983651032600,4.493032470703125,1.2589083909988403,0.7285189032554626,-0.2608470320701599
1789619983661006600,4.503006591796875,1.2423086166381836,0.6823505759239197,-0.2764164209365845
1789619983670979600,4.5129794921875,1.2275547981262207,0.6580942869186401,-0.2867037057876587
1789619983680953600,4.52295361328125,1.2078461647033691,0.6633074283599854,-0.2829510271549225
1789619983690926600,4.532926513671875,1.1690689325332642,0.6991006135940552,-0.2852860689163208
1789619983700900600,4.542900634765625,1.132999062538147,0.7348034381866455,-0.3049071729183197
1789619983710873600,4.55287353515625,1.1180875301361084,0.7094113826751709,-0.2862963080406189
1789619983720847600,4.56284765625,1.1195272207260132,0.6538996696472168,-0.25719088315963745
1789619983730820600,4.572820556640625,1.140089750289917,0.6417821645736694,-0.22959521412849426
1789619983740793300,4.58279345703125,1.162676215171814,0.6286798715591431,-0.20837940275669098
1789619983750767400,4.592767333984375,1.162737488746643,0.5896076560020447,-0.212203249335289
1789619983760740600,4.60274072265625,1.1659636497497559,0.5722795128822327,-0.19362477958202362
1789619983770714600,4.612714599609375,1.1934168338775635,0.6153726577758789,-0.18672603368759155
1789619983780687600,4.6226875,1.2123452425003052,0.6239453554153442,-0.2130790799856186
1789619983790661600,4.63266162109375,1.2079285383224487,0.5669198632240295,-0.24252942204475403
1789619983800634600,4.642634521484375,1.1870254278182983,0.49543556571006775,-0.28127816319465637
1789619983810608600,4.652608642578125,1.1724568605422974,0.4214324355125427,-0.3030182719230652
1789619983820581600,4.66258154296875,1.140647053718567,0.35451120138168335,-0.31599533557891846
1789619983830555600,4.6725556640625,1.0890130996704102,0.26315000653266907,-0.3550227880477905
1789619983840528400,4.6825283203125,1.0559041500091553,0.3364596366882324,-0.37878721952438354
1789619983850502400,4.69250244140625,1.0200587511062622,0.47643351554870605,-0.41055846214294434
1789619983860475600,4.7024755859375,0.9623717069625854,0.4852965176105499,-0.4591478407382965
1789619983870449700,4.71244970703125,0.9336288571357727,0.45855942368507385,-0.5014151930809021
1789619983880422700,4.722422607421875,0.8928012847900391,0.4208376109600067,-0.49990203976631165
1789619983890395600,4.732395751953125,0.8457452058792114,0.4013202488422394,-0.4866374731063843
1789619983900369700,4.74236962890625,0.8102529644966125,0.3990709185600281,-0.4714103043079376
1789619983910342700,4.7523427734375,0.7824815511703491,0.3930330276489258,-0.4607193171977997
1789619983920316700,4.762316650390625,0.7863425612449646,0.3677998185157776,-0.4516019821166992
1789619983930289400,4.772289306640625,0.7608178853988647,0.3561793863773346,-0.4121555984020233
1789619983940263400,4.782263427734375,0.7314780950546265,0.34120070934295654,-0.3639334738254547
1789619983950236700,4.792236572265625,0.7111650705337524,0.2968358099460602,-0.36823010444641113
1789619983960210700,4.802210693359375,0.7031723856925964,0.2556833028793335,-0.3761780560016632
1789619983970183700,4.81218359375,0.7241077423095703,0.18186920881271362,-0.380964457988739
1789619983980157700,4.82215771484375,0.6629290580749512,0.1239936575293541,-0.34812474250793457
1789619983990130700,4.832130615234375,0.5982266068458557,0.07448633015155792,-0.3213055729866028
1789619984000104700,4.842104736328125,0.5396693348884583,0.045020051300525665,-0.2957935631275177
1789619984010077400,4.852077392578125,0.46656355261802673,0.0021732330787926912,-0.26263895630836487
1789619984020051500,4.862051513671875,0.3777386248111725,-0.07306665927171707,-0.22659067809581757
1789619984030024400,4.8720244140625,0.2734749913215637,-0.11742068827152252,-0.20074383914470673
1789619984039997700,4.881997802734375,0.19658420979976654,-0.10010694712400436,-0.18167613446712494
1789619984049971500,4.891971435546875,0.15255869925022125,-0.09317284822463989,-0.17932891845703125
1789619984059944700,4.90194482421875,0.07860670238733292,-0.0524592399597168,-0.16453371942043304
1789619984069918700,4.911918701171875,0.03823251649737358,0.0054850089363753796,-0.1501159965991974
1789619984079891700,4.9218916015625,0.023380868136882782,0.0684187039732933,-0.14304371178150177
1789619984089865700,4.93186572265625,0.008146919310092926,0.08831915259361267,-0.1444348394870758
1789619984099838500,4.94183837890625,-0.03564583510160446,0.11623920500278473,-0.1292947679758072
1789619984109812500,4.9518125,-0.07140263170003891,0.12936273217201233,-0.10969959199428558
1789619984119785500,4.961785400390625,-0.11810409277677536,0.14143697917461395,-0.08005089312791824
1789619984129759500,4.971759521484375,-0.1775820553302765,0.13972216844558716,-0.046644795686006546
1789619984139732500,4.981732421875,-0.23629304766654968,0.07508911937475204,-0.02282841131091118
1789619984149706500,4.99170654296875,-0.27553442120552063,0.041590895503759384,0.0038737463764846325
1789619984159679700,5.0016796875,-0.3328102231025696,-0.025853658095002174,0.019602641463279724
1789619984169653800,5.01165380859375,-0.3718580901622772,-0.06577745825052261,0.04834962636232376
1789619984179626500,5.02162646484375,-0.3831338882446289,-0.03139125928282738,0.10578282922506332
1789619984189600500,5.0316005859375,-0.3981528580188751,-0.06904715299606323,0.17906467616558075
1789619984199573500,5.041573486328125,-0.41708019375801086,-0.1215476393699646,0.2525511384010315
1789619984209547500,5.051547607421875,-0.4283660650253296,-0.16430456936359406,0.322106271982193
1789619984219520500,5.0615205078125,-0.4226333498954773,-0.18317759037017822,0.37736260890960693
1789619984229494500,5.07149462890625,-0.43398013710975647,-0.1871233433485031,0.40590760111808777
1789619984239467500,5.081467529296875,-0.4454634487628937,-0.20012250542640686,0.416756808757782
1789619984249441500,5.091441650390625,-0.4548824429512024,-0.18980474770069122,0.40760207176208496
1789619984259414800,5.101414794921875,-0.4578816890716553,-0.16977937519550323,0.38321417570114136
1789619984269388800,5.111388916015625,-0.4756363034248352,-0.16027240455150604,0.35633793473243713
1789619984279361500,5.121361572265625,-0.5020087957382202,-0.1472807079553604,0.3219136595726013
1789619984289335600,5.13133544921875,-0.5001115202903748,-0.1380588710308075,0.3001267910003662
1789619984299308500,5.14130859375,-0.5043025612831116,-0.16989296674728394,0.26940324902534485
1789619984309282600,5.151282470703125,-0.5099557042121887,-0.26104071736335754,0.2362775206565857
1789619984319255600,5.161255615234375,-0.5064963102340698,-0.3257387578487396,0.20379841327667236
1789619984329228500,5.171228515625,-0.49734196066856384,-0.3715749680995941,0.14767102897167206
1789619984339202600,5.18120263671875,-0.49882134795188904,-0.4177299439907074,0.0722561702132225
1789619984349175800,5.19117578125,-0.5181068181991577,-0.4794626533985138,-0.0011818096973001957
1789619984359149600,5.201149658203125,-0.5595397353172302,-0.5266573429107666,-0.0624837800860405
1789619984369122300,5.211122314453125,-0.5803565979003906,-0.52138751745224,-0.1296835094690323
1789619984379096300,5.221096435546875,-0.5823038816452026,-0.4669458568096161,-0.19743938744068146
1789619984389069300,5.2310693359375,-0.5709272027015686,-0.4503149092197418,-0.24928195774555206
1789619984399043300,5.241043212890625,-0.5894681215286255,-0.3901740610599518,-0.26477810740470886
1789619984409016300,5.251016357421875,-0.6130641102790833,-0.3548930883407593,-0.2652374505996704
1789619984418990300,5.260990234375,-0.6605669260025024,-0.3147440552711487,-0.2609255313873291
1789619984428963000,5.270963134765625,-0.6904205083847046,-0.26052409410476685,-0.2632744312286377
1789619984438937000,5.28093701171875,-0.7099481225013733,-0.21902617812156677,-0.26114949584007263
1789619984448910300,5.290910400390625,-0.7302935719490051,-0.17437268793582916,-0.24654008448123932
1789619984458884400,5.30088427734375,-0.7489349246025085,-0.16843517124652863,-0.22477459907531738
1789619984468857300,5.310857421875,-0.7705450057983398,-0.17945429682731628,-0.20074503123760223
1789619984478831400,5.320831298828125,-0.79041987657547,-0.21637849509716034,-0.18477299809455872
1789619984488804400,5.330804443359375,-0.8052297234535217,-0.2720792591571808,-0.17396925389766693
1789619984498778400,5.3407783203125,-0.8134687542915344,-0.28346240520477295,-0.16205772757530212
1789619984508751400,5.35075146484375,-0.8237615823745728,-0.28037235140800476,-0.15302607417106628
1789619984518725400,5.360725341796875,-0.8128666281700134,-0.301420658826828,-0.1598392277956009
1789619984528698000,5.370697998046875,-0.8248909711837769,-0.3190370798110962,-0.16501566767692566
1789619984538672000,5.380672119140625,-0.8456079959869385,-0.33610421419143677,-0.1715923398733139
1789619984548645400,5.390645263671875,-0.8677448630332947,-0.42822372913360596,-0.16992191970348358
1789619984558619100,5.400619140625,-0.8791351914405823,-0.5469884872436523,-0.15614965558052063
1789619984568592400,5.41059228515625,-0.865925133228302,-0.6130372881889343,-0.1504107117652893
1789619984578566400,5.42056640625,-0.8484579920768738,-0.675305187702179,-0.1597008854150772
1789619984588539400,5.430539306640625,-0.8474087119102478,-0.7183179259300232,-0.17529015243053436
1789619984598513400,5.440513427734375,-0.8427974581718445,-0.7020374536514282,-0.18646344542503357
1789619984608486100,5.450486083984375,-0.8439791202545166,-0.649719774723053,-0.18073952198028564
1789619984618460200,5.460460205078125,-0.85589998960495,-0.5679019093513489,-0.1638401746749878
1789619984628433200,5.47043310546875,-0.878113329410553,-0.4942637085914612,-0.1398257315158844
1789619984638407200,5.4804072265625,-0.9175091981887817,-0.4317779839038849,-0.10573222488164902
1789619984648380200,5.490380126953125,-0.94568932056427,-0.403288334608078,-0.08408692479133606
1789619984658354200,5.500354248046875,-0.9999914169311523,-0.3385636508464813,-0.048255421221256256
1789619984668327400,5.510327392578125,-0.9882370829582214,-0.359774649143219,-0.04964260011911392
1789619984678301400,5.520301513671875,-0.9979778528213501,-0.347064733505249,-0.0445687435567379
1789619984688274400,5.5302744140625,-1.023296594619751,-0.28079837560653687,-0.04124477505683899
1789619984698248400,5.54024853515625,-1.0143941640853882,-0.22544243931770325,-0.06216923147439957
1789619984708221200,5.55022119140625,-1.070284366607666,-0.07296283543109894,-0.06917932629585266
1789619984718195200,5.5601953125,-1.0802475214004517,0.07517976313829422,-0.09069207310676575
1789619984728168200,5.570168212890625,-1.0464813709259033,0.09435352683067322,-0.1465645730495453
1789619984738142200,5.58014208984375,-1.102268934249878,0.169756680727005,-0.1566973775625229
1789619984748115200,5.590115234375,-1.1109486818313599,0.14592565596103668,-0.1538425087928772
1789619984758089200,5.600089111328125,-1.108568549156189,0.07370872050523758,-0.13644221425056458
1789619984768062500,5.6100625,-1.0784103870391846,-0.05743730813264847,-0.13485707342624664
1789619984778036500,5.620036376953125,-1.0853545665740967,-0.13065852224826813,-0.14395123720169067
1789619984788009500,5.630009521484375,-1.1077072620391846,-0.15832464396953583,-0.1428842544555664
1789619984797983200,5.639983154296875,-1.106564998626709,-0.21350161731243134,-0.1705814003944397
1789619984807956200,5.649956298828125,-1.1153695583343506,-0.21403102576732635,-0.20480845868587494
1789619984817930200,5.65993017578125,-1.0245996713638306,-0.35946306586265564,-0.2676553428173065
1789619984827903200,5.6699033203125,-0.9818896651268005,-0.43766841292381287,-0.2976042628288269
1789619984837877200,5.679877197265625,-0.95189368724823,-0.3993428349494934,-0.31435316801071167
1789619984847850200,5.689850341796875,-0.9157012104988098,-0.33050039410591125,-0.33515065908432007
1789619984857824300,5.69982421875,-0.9118551015853882,-0.2706541121006012,-0.3178454339504242
1789619984867797200,5.70979736328125,-0.8710924983024597,-0.3145955801010132,-0.3147413432598114
1789619984877771300,5.719771240234375,-0.785001277923584,-0.5449193716049194,-0.34305500984191895
1789619984887744300,5.729744140625,-0.7389277219772339,-0.578769862651825,-0.335847407579422
1789619984897718300,5.73971826171875,-0.65821373462677,-0.563583493232727,-0.30625808238983154
1789619984907691300,5.749691162109375,-0.5740200877189636,-0.5485849380493164,-0.23521029949188232
1789619984917665300,5.759665283203125,-0.47858038544654846,-0.4820687472820282,-0.14705142378807068
1789619984927638300,5.76963818359375,-0.4088501036167145,-0.37023690342903137,-0.0705830380320549
1789619984937612300,5.7796123046875,-0.3235085904598236,-0.22935140132904053,0.026227664202451706
1789619984947585300,5.789585205078125,-0.24190568923950195,-0.09308133274316788,0.11812177300453186
1789619984957559300,5.799559326171875,-0.2203596532344818,0.19203083217144012,0.1772197186946869
1789619984967533300,5.809533203125,-0.07839479297399521,0.20464195311069489,0.14629416167736053
1789619984977506300,5.81950634765625,-0.05770789086818695,0.2219378501176834,0.17752611637115479
1789619984987480300,5.829480224609375,-0.02299337461590767,0.2608063220977783,0.18094897270202637
1789619984997453300,5.839453369140625,-0.025860799476504326,0.2727346122264862,0.15241986513137817
1789619985007427300,5.84942724609375,-0.012100176885724068,0.2566215693950653,0.18036329746246338
1789619985017400300,5.859400390625,0.012628604657948017,0.25383350253105164,0.26322993636131287
1789619985027374300,5.869374267578125,0.07166536152362823,0.26048675179481506,0.3204132914543152
1789619985037347300,5.879347412109375,0.09238102287054062,0.41218703985214233,0.356031209230423
1789619985047321300,5.8893212890625,0.2039530873298645,0.2779783606529236,0.33336958289146423
1789619985057294300,5.89929443359375,0.2468443512916565,0.29237276315689087,0.3535211980342865
1789619985067268400,5.909268310546875,0.2780765891075134,0.3277195692062378,0.37134653329849243
1789619985077241000,5.919240966796875,0.2941138744354248,0.34413740038871765,0.40636762976646423
1789619985087215000,5.929215087890625,0.29952260851860046,0.39383170008659363,0.4323568046092987
1789619985097188400,5.939188232421875,0.31553512811660767,0.4839980900287628,0.4601149559020996
1789619985107162000,5.949162109375,0.36718714237213135,0.5544259548187256,0.5005126595497131
1789619985117135400,5.95913525390625,0.4443495571613312,0.598105788230896,0.5167904496192932
1789619985127109400,5.969109375,0.5440452694892883,0.6576157212257385,0.5052956938743591
1789619985137082400,5.979082275390625,0.6613702774047852,0.689714252948761,0.4764781594276428
1789619985147056400,5.989056396484375,0.7754249572753906,0.6666395664215088,0.43722620606422424
1789619985157029400,5.999029296875,0.8849450349807739,0.6238489151000977,0.4016208052635193
1789619985167003400,6.00900341796875,0.9796081781387329,0.5917173624038696,0.3593495488166809
1789619985176976100,6.01897607421875,1.0595083236694336,0.5219252109527588,0.32244932651519775
1789619985186950100,6.0289501953125,1.1417759656906128,0.4582939147949219,0.3047047555446625
1789619985196923100,6.038923095703125,1.2151557207107544,0.4351057708263397,0.2864794135093689
1789619985206897200,6.048897216796875,1.275999665260315,0.42835402488708496,0.25660252571105957
1789619985216870400,6.058870361328125,1.3111821413040161,0.41012468934059143,0.22665955126285553
1789619985226844400,6.068844482421875,1.3444795608520508,0.43652617931365967,0.20238423347473145
1789619985236817400,6.0788173828125,1.3820040225982666,0.4924461841583252,0.1816461980342865
1789619985246791400,6.08879150390625,1.4073841571807861,0.5287716388702393,0.16252394020557404
1789619985256764200,6.09876416015625,1.4313685894012451,0.5378386378288269,0.14727947115898132
1789619985266738200,6.10873828125,1.457236409187317,0.521190881729126,0.1358880251646042
1789619985276712200,6.118712158203125,1.4830243587493896,0.5334920287132263,0.13496416807174683
1789619985286685200,6.128685302734375,1.484683871269226,0.5811519026756287,0.12571673095226288
1789619985296659200,6.1386591796875,1.4747109413146973,0.6472001671791077,0.102909155189991
1789619985306632200,6.148632080078125,1.4760823249816895,0.6994072198867798,0.08135607838630676
1789619985316606200,6.158606201171875,1.4927289485931396,0.7383295893669128,0.069830983877182
1789619985326579500,6.168579345703125,1.491117000579834,0.7447282075881958,0.05824371799826622
1789619985336553200,6.17855322265625,1.4778214693069458,0.6809207201004028,0.028416847810149193
1789619985346526500,6.1885263671875,1.4822375774383545,0.822190523147583,0.013080112636089325
1789619985356500500,6.19850048828125,1.4612877368927002,0.9302277565002441,-0.038838744163513184
1789619985366473200,6.20847314453125,1.4039653539657593,0.9303272366523743,-0.12207086384296417
1789619985376447000,6.218447021484375,1.3485639095306396,0.8343048095703125,-0.1750991940498352
1789619985386420000,6.228419921875,1.304552674293518,0.7703520655632019,-0.20538415014743805
1789619985396394000,6.23839404296875,1.273472785949707,0.7545997500419617,-0.23087672889232635
1789619985406366700,6.24836669921875,1.244808554649353,0.6947829723358154,-0.2676095962524414
1789619985416340700,6.2583408203125,1.216288685798645,0.5914803147315979,-0.3182123005390167
1789619985426314000,6.26831396484375,1.2040270566940308,0.5215626358985901,-0.3758087754249573
1789619985436288000,6.2782880859375,1.1947059631347656,0.5083855986595154,-0.402052640914917
1789619985446261000,6.288260986328125,1.1727745532989502,0.4798955023288727,-0.42339015007019043
1789619985456235000,6.298235107421875,1.1487747430801392,0.39585253596305847,-0.4256591498851776
1789619985466208000,6.3082080078125,1.1346184015274048,0.31953203678131104,-0.42873382568359375
1789619985476182000,6.31818212890625,1.1301724910736084,0.284271240234375,-0.4120400547981262
1789619985486154800,6.32815478515625,1.1223328113555908,0.2400118112564087,-0.38313016295433044
1789619985496128800,6.338128662109375,1.0911850929260254,0.21245768666267395,-0.3487735390663147
1789619985506101800,6.348101806640625,1.0480000972747803,0.18961916863918304,-0.3455301523208618
1789619985516075800,6.35807568359375,1.034717321395874,0.19872026145458221,-0.345889151096344
1789619985526049800,6.3680498046875,0.9910370707511902,0.22610434889793396,-0.3223702907562256
1789619985536022800,6.378022705078125,0.934031069278717,0.1808559149503708,-0.3164415657520294
1789619985545996800,6.387996826171875,0.9068174958229065,0.12481100857257843,-0.31015676259994507
1789619985555970000,6.397969970703125,0.839835524559021,0.07670419663190842,-0.27827364206314087
1789619985565944000,6.407944091796875,0.7745139002799988,0.05998102203011513,-0.2643471658229828
1789619985575917000,6.4179169921875,0.7096318602561951,0.0536927655339241,-0.24973468482494354
1789619985585891000,6.42789111328125,0.6468334794044495,0.010142511688172817,-0.25675392150878906
1789619985595863800,6.43786376953125,0.5751185417175293,-0.039543282240629196,-0.23633119463920593
1789619985605837800,6.447837890625,0.5084891319274902,-0.07654138654470444,-0.20347751677036285
1789619985615810800,6.457810791015625,0.4317869246006012,-0.13300518691539764,-0.17133183777332306
1789619985625784800,6.467784912109375,0.36631977558135986,-0.21508878469467163,-0.13393093645572662
1789619985635757800,6.4777578125,0.3001817762851715,-0.2688063383102417,-0.08877811580896378
1789619985645731800,6.48773193359375,0.2210742086172104,-0.3040303587913513,-0.05478941276669502
1789619985655705000,6.497705078125,0.17133034765720367,-0.27744507789611816,-0.0239646565169096
1789619985665679000,6.50767919921875,0.10509080439805984,-0.2493845671415329,0.0029508406296372414
1789619985675652000,6.517652099609375,0.07000312209129333,-0.24985353648662567,0.023746933788061142
1789620059973245200,80.8152451171875,-0.18585379421710968,-0.036731455475091934,-0.25989624857902527
1789620059983217000,80.825216796875,-0.1467880755662918,-0.002843629103153944,-0.27276864647865295
1789620059993190100,80.83519018554688,-0.11002925038337708,0.04241040349006653,-0.24133457243442535
1789620060003162000,80.845162109375,-0.06514955312013626,-0.049557313323020935,-0.19961799681186676
1789620060013134000,80.85513403320313,-0.025398680940270424,-0.22064730525016785,-0.16265252232551575
1789620060023107000,80.86510717773437,0.026946421712636948,-0.35094138979911804,-0.1329101026058197
1789620060033079000,80.8750791015625,0.09720060974359512,-0.3435708284378052,-0.11462244391441345
1789620060043051000,80.88505102539062,0.17627227306365967,-0.23722325265407562,-0.10372389853000641
1789620060053024000,80.89502392578125,0.2561260759830475,-0.10686498135328293,-0.07399476319551468
1789620060062996200,80.90499633789062,0.31522196531295776,-0.04542781785130501,-0.021411199122667313
1789620060072968000,80.91496801757812,0.3340417444705963,-0.042945221066474915,0.047224584966897964
1789620060082941000,80.92494091796875,0.31952935457229614,-0.06920754909515381,0.13349829614162445
1789620060092913200,80.9349130859375,0.2915685474872589,-0.09205693751573563,0.23074334859848022
1789620060102885000,80.94488500976563,0.26054173707962036,-0.10768860578536987,0.32319819927215576
1789620060112858000,80.95485815429687,0.24291643500328064,-0.0980178639292717,0.387246698141098
1789620060122830000,80.964830078125,0.2288285493850708,-0.05012870579957962,0.42602887749671936
1789620060132802000,80.97480200195312,0.21264931559562683,0.011784727685153484,0.4340745508670807
1789620060142775000,80.98477514648438,0.1812816709280014,0.05540968105196953,0.41866981983184814
1789620060152747300,80.99474731445312,0.13066883385181427,0.10247758775949478,0.37720200419425964
1789620060162719000,81.00471899414063,0.06899549067020416,0.16356180608272552,0.30257362127304077
1789620060172692000,81.01469189453125,0.00983922928571701,0.21193253993988037,0.20568515360355377
1789620060182664000,81.02466381835937,-0.028288234025239944,0.23541320860385895,0.10562552511692047
1789620060192636000,81.03463598632813,-0.035211652517318726,0.22678589820861816,0.0034749177284538746
1789620060202609200,81.04460913085937,-0.015456943772733212,0.1911396086215973,-0.09015046805143356
1789620060212580900,81.05458081054688,0.013310255482792854,0.14838789403438568,-0.17495404183864594
1789620060222553000,81.06455297851562,0.05380982160568237,0.12315717339515686,-0.2403397113084793
1789620060232526000,81.07452612304688,0.08031813055276871,0.13127395510673523,-0.2836805284023285
1789620060242498000,81.084498046875,0.08960893005132675,0.14216020703315735,-0.3075193762779236
1789620060252470000,81.09446997070313,0.08762487769126892,0.1355968415737152,-0.3127628564834595
1789620060262443000,81.10444311523437,0.08849360048770905,0.11766017228364944,-0.30124324560165405
1789620060272415000,81.1144150390625,0.10946120321750641,0.10935323685407639,-0.26802724599838257
1789620060282387000,81.12438696289063,0.1570725291967392,0.12556147575378418,-0.20209719240665436
1789620060292360200,81.13436010742187,0.20785367488861084,0.15751461684703827,-0.09931622445583344
1789620060302332000,81.14433178710938,0.24865767359733582,0.16653530299663544,0.018423208966851234
1789620060312304000,81.15430419921876,0.2698335349559784,0.1353137344121933,0.14255660772323608
1789620060322277000,81.16427709960938,0.28124329447746277,0.09392954409122467,0.2672021687030792
1789620060332248800,81.17424877929687,0.2686622440814972,0.07620514184236526,0.3784615993499756
1789620060342221000,81.18422094726563,0.24171938002109528,0.06228087842464447,0.45587462186813354
1789620060352194000,81.19419409179687,0.20141510665416718,0.03973668813705444,0.4881982207298279
1789620060362166000,81.204166015625,0.16122011840343475,0.025059761479496956,0.47858554124832153
1789620060372138000,81.21413793945312,0.11777011305093765,0.02929259091615677,0.4318388104438782
1789620060382111000,81.22411108398437,0.0554567389190197,0.04682580381631851,0.3630872368812561
1789620060392083000,81.2340830078125,-0.014407563023269176,0.09327398985624313,0.2709863483905792
1789620060402055000,81.24405493164062,-0.057735808193683624,0.11108908802270889,0.15035781264305115
1789620060412028200,81.25402807617188,-0.09019654989242554,0.10619712620973587,0.018981408327817917
1789620060421999900,81.26399975585937,-0.1180650144815445,0.11651626974344254,-0.10006562620401382
1789620060431972000,81.27397216796875,-0.11598428338766098,0.15020020306110382,-0.20094136893749237
1789620060441945000,81.28394506835937,-0.0899924486875534,0.1771237850189209,-0.29316261410713196
1789620060451917000,81.2939169921875,-0.05999380350112915,0.15781214833259583,-0.36941051483154297
1789620060461889300,81.30388916015625,-0.04979192838072777,0.12661854922771454,-0.4102322459220886
1789620060471862000,81.31386206054688,-0.058377426117658615,0.10370232909917831,-0.403812438249588
1789620060481834200,81.32383422851562,-0.06493598222732544,0.09856169670820236,-0.3453703224658966
1789620060491806200,81.33380615234375,-0.05807594954967499,0.08580063283443451,-0.2564316689968109
1789620060501779200,81.343779296875,-0.03076893836259842,0.044783905148506165,-0.16800059378147125
1789620060511751200,81.35375122070313,0.022822383791208267,-0.00023123843129724264,-0.09706463664770126
1789620060521723400,81.36372338867187,0.09336981922388077,-0.033059488981962204,-0.04586593806743622
1789620060531696000,81.37369604492187,0.16788160800933838,-0.036552492529153824,-0.00432914774864912
1789620060541668000,81.38366821289063,0.22237882018089294,-0.0010748293716460466,0.03298526629805565
1789620060551640300,81.39364038085938,0.25963538885116577,0.04548974335193634,0.07041226327419281
1789620060561613000,81.40361303710938,0.27521660923957825,0.07687073200941086,0.1131301075220108
1789620060571585300,81.41358520507812,0.25092485547065735,0.06928152590990067,0.15801875293254852
1789620060581557200,81.42355712890625,0.19374503195285797,0.026686513796448708,0.19096413254737854
1789620060591530000,81.43353002929688,0.12495079636573792,-0.011043555103242397,0.20801661908626556
1789620060601502200,81.44350219726563,0.06742830574512482,-0.015119083225727081,0.19944214820861816
1789620060611474200,81.45347412109375,0.02653520181775093,0.0049414439126849174,0.1652604639530182
1789620060621447200,81.463447265625,-0.0052467952482402325,0.044295020401477814,0.11495397239923477
1789620060631419100,81.47341918945312,-0.022605013102293015,0.09155520796775818,0.06210780516266823
1789620060641391400,81.48339135742188,-0.032131973654031754,0.13979588449001312,0.012449503876268864
1789620060651363000,81.49336303710938,-0.050791144371032715,0.15431995689868927,-0.025652607902884483
1789620060661336000,81.50333618164062,-0.07256852090358734,0.1495675891637802,-0.05350377783179283
1789620060671308300,81.51330834960937,-0.08979038149118423,0.15318895876407623,-0.07011684775352478
1789620060681280300,81.5232802734375,-0.11025276780128479,0.1362403929233551,-0.08535417914390564
1789620060691253200,81.53325317382813,-0.13613629341125488,0.07531765103340149,-0.10642830282449722
1789620060701225000,81.54322485351562,-0.1656435877084732,-0.0300354715436697,-0.1537804752588272
1789620060711197200,81.553197265625,-0.18912707269191742,-0.13329528272151947,-0.25101378560066223
1789620060721170200,81.56317016601562,-0.17258866131305695,-0.15311205387115479,-0.38543960452079773
1789620060731142100,81.57314208984376,-0.13621068000793457,-0.06874151527881622,-0.5214989185333252
1789620060741114000,81.58311401367187,-0.07771406322717667,0.07677553594112396,-0.6334442496299744
1789620060751087000,81.59308715820312,-0.0030510141514241695,0.22527234256267548,-0.6847324371337891
1789620060761059000,81.60305908203125,0.08445778489112854,0.3193188011646271,-0.6507826447486877
1789620060771031000,81.61303100585937,0.16722163558006287,0.3304992914199829,-0.5455872416496277
1789620060781004300,81.62300439453125,0.24714230000972748,0.25510430335998535,-0.3955656588077545
1789620060790976000,81.63297607421875,0.3116762936115265,0.12362991273403168,-0.22309589385986328
1789620060800948200,81.6429482421875,0.3630046844482422,-0.03306668624281883,-0.05414455384016037
1789620060810921200,81.65292114257812,0.40272068977355957,-0.18503065407276154,0.08341570943593979
1789620060820893000,81.66289282226562,0.4220125377178192,-0.29700523614883423,0.17716868221759796
1789620060830865200,81.672865234375,0.4190055727958679,-0.35245782136917114,0.21800106763839722
1789620060840838100,81.68283813476563,0.37987446784973145,-0.3662272095680237,0.21309256553649902
1789620060850810000,81.69281005859375,0.326262891292572,-0.2822287082672119,0.17025960981845856
1789620060860782000,81.70278198242187,0.27678781747817993,-0.11525430530309677,0.09034192562103271
1789620060870755000,81.71275512695313,0.21627706289291382,0.06484995037317276,-0.008902642875909805
1789620060880727000,81.72272705078124,0.13136741518974304,0.20496436953544617,-0.10936080664396286
1789620060890699300,81.73269921875,0.04427112266421318,0.28815168142318726,-0.20557042956352234
1789620060900672300,81.74267236328124,-0.022765278816223145,0.327241450548172,-0.29774120450019836
1789620060910644000,81.75264404296875,-0.06298833340406418,0.33657318353652954,-0.3784131407737732
1789620060920616200,81.7626162109375,-0.07955537736415863,0.309403657913208,-0.44371411204338074
1789620060930589200,81.77258911132813,-0.07100982964038849,0.26379966735839844,-0.48960116505622864
1789620060940561200,81.78256103515625,-0.04092000424861908,0.23492936789989471,-0.5061386823654175
1789620060950533000,81.792533203125,0.004188350401818752,0.22789517045021057,-0.5004318356513977
1789620060960506000,81.80250610351563,0.059559859335422516,0.2294929027557373,-0.4720233678817749
1789620060970478000,81.81247802734374,0.1170140951871872,0.23490259051322937,-0.42483827471733093
1789620060980450000,81.82244995117188,0.18070833384990692,0.23317550122737885,-0.35776662826538086
1789620060990423300,81.83242333984376,0.23827442526817322,0.22751468420028687,-0.2770046889781952
1789620061000395000,81.84239501953125,0.289956659078598,0.20933552086353302,-0.19136080145835876
1789620061010367200,81.8523671875,0.3388746678829193,0.17915311455726624,-0.10278379917144775
1789620061020340200,81.86234033203125,0.3801819384098053,0.1570291817188263,-0.011074167676270008
1789620061030312000,81.87231201171875,0.4075435400009155,0.15943028032779694,0.08222515136003494
1789620061040284200,81.8822841796875,0.41053980588912964,0.1874982863664627,0.17028173804283142
1789620061050257200,81.89225708007812,0.39204442501068115,0.21691448986530304,0.24117961525917053
1789620061060229000,81.90222900390626,0.3496979773044586,0.21933096647262573,0.28502771258354187
1789620061070201000,81.912201171875,0.2923273742198944,0.19433186948299408,0.29622682929039
1789620061080174000,81.92217407226562,0.2242039144039154,0.1746152639389038,0.2882615923881531
1789620061090146000,81.93214599609375,0.15515241026878357,0.18754704296588898,0.2567313611507416
1789620061100118300,81.9421181640625,0.08878931403160095,0.2389858514070511,0.20375803112983704
1789620061110090200,81.95209033203125,0.04007450491189957,0.32808777689933777,0.13463835418224335
1789620061120063000,81.96206298828125,0.00398906460031867,0.39050960540771484,0.056415311992168427
1789620061130035200,81.97203515625,-0.019848089665174484,0.38147908449172974,-0.02642524428665638
1789620061140007200,81.98200708007812,-0.03833570331335068,0.31677544116973877,-0.10224707424640656
1789620061149980200,81.99198022460938,-0.04136718064546585,0.24151211977005005,-0.16371524333953857
1789620061159952100,82.0019521484375,-0.031184323132038116,0.19481824338436127,-0.20376722514629364
1789620061169924400,82.01192431640625,-0.015893785282969475,0.1954219788312912,-0.2209656536579132
1789620061179897000,82.02189697265625,-0.0018019842682406306,0.22827598452568054,-0.2091364711523056
1789620061189869000,82.031869140625,0.011932204477488995,0.26690781116485596,-0.1859789490699768
1789620061199841300,82.04184130859375,0.02529355324804783,0.27715685963630676,-0.1673843115568161
1789620061209814000,82.05181396484375,0.04523050785064697,0.25386378169059753,-0.1600654125213623
1789620061219786200,82.0617861328125,0.08328351378440857,0.22276228666305542,-0.1599258929491043
1789620061229758200,82.07175830078126,0.13429155945777893,0.20997539162635803,-0.1486988067626953
1789620061239731200,82.08173120117188,0.19111378490924835,0.22063395380973816,-0.1161235049366951
1789620061249703200,82.091703125,0.24883033335208893,0.22252026200294495,-0.062264811247587204
1789620061259675400,82.10167529296875,0.294495165348053,0.21346254646778107,0.006778368726372719
1789620061269648100,82.11164819335937,0.3234066963195801,0.18940407037734985,0.09123227000236511
1789620061279620000,82.1216201171875,0.332956463098526,0.15770891308784485,0.18400555849075317
1789620061289592300,82.13159228515624,0.32096344232559204,0.12437307089567184,0.2790045142173767
1789620061299565000,82.14156494140624,0.2870684564113617,0.08761747926473618,0.36304324865341187
1789620061309537300,82.15153735351562,0.24375344812870026,0.038921844214200974,0.41522416472435
1789620061319509200,82.16150927734375,0.1924085021018982,-0.016748342663049698,0.4250600039958954
1789620061329482000,82.17148193359375,0.13529621064662933,-0.04853823035955429,0.39113345742225647
1789620061339454200,82.1814541015625,0.06710810959339142,-0.040193818509578705,0.31897076964378357
1789620061349426200,82.19142626953125,0.0027578799054026604,0.005639716517180204,0.20963895320892334
1789620061359399200,82.20139916992187,-0.06191033124923706,0.07033795118331909,0.06782393157482147
1789620061369371100,82.21137109375,-0.11848519742488861,0.1251324862241745,-0.08893239498138428
1789620061379343400,82.22134326171874,-0.16625989973545074,0.16026805341243744,-0.24307827651500702
1789620061389316000,82.23131616210938,-0.19400551915168762,0.17483314871788025,-0.3710189163684845
1789620061399288000,82.2412880859375,-0.19673237204551697,0.18980635702610016,-0.463142067193985
1789620061409260300,82.25126025390625,-0.18121865391731262,0.21864891052246094,-0.5153611302375793
1789620061419233000,82.26123291015625,-0.1530865877866745,0.2453240156173706,-0.525644838809967
1789620061429205200,82.27120532226563,-0.12231747806072235,0.2507376968860626,-0.4874180555343628
1789620061439177200,82.28117724609375,-0.08966152369976044,0.24006114900112152,-0.4071958363056183
1789620061449150200,82.29115014648437,-0.055794376879930496,0.2062094360589981,-0.2969673275947571
1789620061459122200,82.3011220703125,-0.023691672831773758,0.15803036093711853,-0.16160047054290771
1789620061469094400,82.31109448242188,0.0124974912032485,0.12316960096359253,-0.020152537152171135
1789620061479067400,82.3210673828125,0.04870891943573952,0.10773555189371109,0.10037918388843536
1789620061489039000,82.3310390625,0.09086808562278748,0.09821528196334839,0.18868666887283325
1789620061499011300,82.34101123046875,0.107815220952034,0.08801241219043732,0.24777266383171082
1789620061508984300,82.350984375,0.09968166053295135,0.08058485388755798,0.2906002700328827
1789620061518956300,82.36095629882813,0.07048100978136063,0.08051756024360657,0.31520870327949524
1789620061528928300,82.37092822265625,0.04203870892524719,0.09412471204996109,0.3208759129047394
1789620061538901200,82.3809013671875,0.01974043808877468,0.11943676322698593,0.3052797317504883
1789620061548873200,82.39087329101562,-0.008330346085131168,0.15717002749443054,0.27718687057495117
1789620061558845200,82.40084521484376,-0.0330427810549736,0.18652275204658508,0.22912952303886414
1789620061568818400,82.410818359375,-0.05125267803668976,0.19471755623817444,0.16880172491073608
1789620061578790100,82.4207900390625,-0.07292685657739639,0.19188740849494934,0.10184686630964279
1789620061588762400,82.43076245117187,-0.0971943810582161,0.1839969903230667,0.03740503266453743
1789620061598735400,82.4407353515625,-0.1261948198080063,0.16994597017765045,-0.030373431742191315
1789620061608707000,82.45070703125,-0.15006312727928162,0.16354425251483917,-0.10354005545377731
1789620061618679300,82.46067919921875,-0.15591102838516235,0.16598474979400635,-0.1668100357055664
1789620061628652300,82.47065234375,-0.15645670890808105,0.16515864431858063,-0.19588109850883484
1789620061638624300,82.48062426757812,-0.14544320106506348,0.17268846929073334,-0.19733119010925293
1789620061648596200,82.49059619140625,-0.11303972452878952,0.2104097455739975,-0.17960040271282196
1789620061658569200,82.5005693359375,-0.07066211849451065,0.24197867512702942,-0.15855923295021057
1789620061668541200,82.51054125976563,-0.03684423118829727,0.24829648435115814,-0.13636551797389984
1789620061678514200,82.52051416015625,-0.01098189689218998,0.2142452746629715,-0.10684232413768768
1789620061688486400,82.530486328125,0.01772378385066986,0.14711444079875946,-0.07610970735549927
1789620061698458000,82.5404580078125,0.05734937638044357,0.08784942328929901,-0.04618031904101372
1789620061708431400,82.55043139648437,0.10944399982690811,0.07219350337982178,-0.01195790059864521
1789620061718403300,82.5604033203125,0.14988310635089874,0.09702768921852112,0.03742310404777527
1789620061728375300,82.57037524414062,0.16475632786750793,0.13513804972171783,0.10418349504470825
1789620061738348300,82.58034838867188,0.15624666213989258,0.16525839269161224,0.17296312749385834
1789620061748320300,82.5903203125,0.1452195793390274,0.1843724399805069,0.22434508800506592
1789620061758292200,82.60029223632813,0.1357506513595581,0.2157372683286667,0.2816515564918518
1789620061768265200,82.61026513671875,0.11281044036149979,0.24928058683872223,0.349784255027771
1789620061778237400,82.62023754882813,0.08723243325948715,0.3122154176235199,0.4561823904514313
1789620061788209200,82.63020922851562,0.06460515409708023,0.2955232560634613,0.584373950958252
1789620061798182100,82.64018212890625,0.05957956612110138,0.14736689627170563,0.6394273638725281
1789620061808154400,82.650154296875,0.07402747869491577,-0.0028931829147040844,0.6414316892623901
1789620061818126000,82.6601259765625,0.0732131376862526,-0.11395111680030823,0.5820209383964539
1789620061828099300,82.67009936523438,0.06832889467477798,-0.14909444749355316,0.44302257895469666
1789620061838071300,82.6800712890625,0.05119714140892029,-0.1402689814567566,0.23635420203208923
1789620061848043300,82.69004321289063,0.014566691592335701,-0.06899186968803406,-0.0027880719862878323
1789620061858016300,82.70001635742187,-0.04670841991901398,0.07305840402841568,-0.23555248975753784
1789620061867988200,82.70998828125,-0.14711891114711761,0.2293316274881363,-0.4027923345565796
1789620061877960200,82.71996020507812,-0.2034827023744583,0.37311840057373047,-0.4958617687225342
1789620061887933200,82.72993310546875,-0.2204611599445343,0.4409427344799042,-0.5579227209091187
