time,seconds_elapsed,z,y,x
1789619979219776300,0.0617763671875,0.09982912242412567,0.16049008071422577,-0.08091428875923157
1789619979229749200,0.071749267578125,0.09055466949939728,0.16146612167358398,-0.08323550224304199
1789619979239722200,0.08172216796875,0.08127354830503464,0.12560319900512695,-0.0746326893568039
1789619979249695000,0.091695068359375,0.06823737919330597,0.06132780387997627,-0.055092547088861465
1789619979259668200,0.101668212890625,0.0541018508374691,0.0002519350382499397,-0.03734444081783295
1789619979269641200,0.11164111328125,0.030777886509895325,-0.028073180466890335,-0.012799684889614582
1789619979279614200,0.1216142578125,-0.0010309095960110426,-0.011559717357158661,0.009308014065027237
1789619979289587200,0.131587158203125,-0.04054822400212288,0.012170912697911263,0.0440063402056694
1789619979299560200,0.141560302734375,-0.055720254778862,-0.03710608929395676,0.08370528370141983
1789619979309533200,0.151533203125,-0.03501763939857483,-0.18612699210643768,0.11520248651504517
1789619979319506200,0.161506103515625,0.00440992834046483,-0.41090497374534607,0.1422085464000702
1789619979329479200,0.171479248046875,0.04565190523862839,-0.6182498931884766,0.17350813746452332
1789619979339452200,0.1814521484375,0.10281746089458466,-0.6931031346321106,0.10717172920703888
1789619979349426200,0.19142626953125,0.10854405164718628,-0.39066123962402344,-0.07700024545192719
1789619979359399200,0.201399169921875,0.15600478649139404,-0.15402844548225403,-0.24251490831375122
1789619979369372400,0.211372314453125,0.22403310239315033,-0.009788448922336102,-0.4192689061164856
1789619979379345400,0.221345458984375,0.24218440055847168,0.29227954149246216,-0.5234903693199158
1789619979389318400,0.231318359375,0.23316694796085358,0.47736069560050964,-0.6129089593887329
1789619979399291400,0.24129150390625,0.21697625517845154,0.4337005615234375,-0.6907904148101807
1789619979409264600,0.2512646484375,0.1932845115661621,0.2499951869249344,-0.7389981746673584
1789619979419237400,0.2612373046875,0.17113766074180603,0.05987904593348503,-0.7282568216323853
1789619979429210400,0.27121044921875,0.15626683831214905,-0.06728795915842056,-0.6697338819503784
1789619979439183400,0.281183349609375,0.1506531536579132,-0.14016030728816986,-0.5780186057090759
1789619979449156600,0.291156494140625,0.16265016794204712,-0.1479116976261139,-0.4710703194141388
1789619979459129600,0.301129638671875,0.1827831268310547,-0.0734529122710228,-0.36840784549713135
1789619979469102300,0.311102294921875,0.201531782746315,0.05565846711397171,-0.27716341614723206
1789619979479075300,0.321075439453125,0.2179858535528183,0.2061299979686737,-0.20905840396881104
1789619979489049300,0.33104931640625,0.21684202551841736,0.32062673568725586,-0.16606859862804413
1789619979499022600,0.341022705078125,0.19701160490512848,0.3348429799079895,-0.15419036149978638
1789619979508995600,0.35099560546875,0.18223531544208527,0.2804654836654663,-0.1626048982143402
1789619979518968300,0.36096826171875,0.18383188545703888,0.25084713101387024,-0.1782831847667694
1789619979528941300,0.37094140625,0.2008872926235199,0.2764188051223755,-0.19283230602741241
1789619979538914600,0.38091455078125,0.2185419201850891,0.3180626630783081,-0.1984558403491974
1789619979548887600,0.390887451171875,0.23141485452651978,0.34984880685806274,-0.20012004673480988
1789619979558860500,0.400860595703125,0.22931894659996033,0.3700728714466095,-0.20678406953811646
1789619979568833300,0.410833251953125,0.2170441597700119,0.3705865740776062,-0.21193942427635193
1789619979578806500,0.420806640625,0.18879495561122894,0.3517551124095917,-0.218547523021698
1789619979588779500,0.430779541015625,0.1407960057258606,0.3029681146144867,-0.22368581593036652
1789619979598752500,0.44075244140625,0.08809550106525421,0.2417556345462799,-0.21993768215179443
1789619979608726500,0.4507265625,0.05043600872159004,0.17907467484474182,-0.21916963160037994
1789619979618699500,0.460699462890625,0.03346501663327217,0.0917336493730545,-0.2120443433523178
1789619979628672300,0.47067236328125,0.03392467647790909,-0.043297141790390015,-0.19590985774993896
1789619979638645500,0.4806455078125,0.034754250198602676,-0.2011469602584839,-0.15745167434215546
1789619979648618500,0.490618408203125,0.014771223068237305,-0.30505630373954773,-0.09416085481643677
1789619979658591500,0.500591552734375,-0.026327211409807205,-0.3340597450733185,-0.021879998967051506
1789619979668564500,0.510564453125,-0.07505001127719879,-0.3115168809890747,0.044563207775354385
1789619979678537500,0.520537353515625,-0.12186039239168167,-0.27224910259246826,0.09878623485565186
1789619979688510500,0.530510498046875,-0.15305159986019135,-0.23037461936473846,0.14806430041790009
1789619979698483500,0.5404833984375,-0.16889820992946625,-0.19107568264007568,0.1845935434103012
1789619979708457500,0.55045751953125,-0.16104081273078918,-0.17116987705230713,0.20680829882621765
1789619979718430500,0.560430419921875,-0.1400385946035385,-0.18187712132930756,0.22529064118862152
1789619979728403500,0.570403564453125,-0.12088806927204132,-0.19547894597053528,0.23431396484375
1789619979738376400,0.58037646484375,-0.11229325085878372,-0.19469384849071503,0.23588789999485016
1789619979748349400,0.590349365234375,-0.11536334455013275,-0.17917321622371674,0.2212034910917282
1789619979758322400,0.600322509765625,-0.13327044248580933,-0.14486530423164368,0.18224570155143738
1789619979768295400,0.61029541015625,-0.15591609477996826,-0.1084018424153328,0.11894635856151581
1789619979778268400,0.620268310546875,-0.18469049036502838,-0.09698700159788132,0.03642032667994499
1789619979788242400,0.630242431640625,-0.21580606698989868,-0.0945933535695076,-0.0451728031039238
1789619979798215400,0.64021533203125,-0.24124030768871307,-0.08776900172233582,-0.12589214742183685
1789619979808188400,0.6501884765625,-0.2534184157848358,-0.09024015069007874,-0.1989881992340088
1789619979818161400,0.660161376953125,-0.249015673995018,-0.11434495449066162,-0.2638894319534302
1789619979828134700,0.670134765625,-0.2319892942905426,-0.1494257003068924,-0.3165861964225769
1789619979838107400,0.680107421875,-0.19928354024887085,-0.16229569911956787,-0.35104724764823914
1789619979848080400,0.690080322265625,-0.15658694505691528,-0.16648805141448975,-0.3645066022872925
1789619979858053400,0.700053466796875,-0.10194473713636398,-0.18026112020015717,-0.359205037355423
1789619979868027400,0.71002734375,-0.042999930679798126,-0.1853453516960144,-0.3285999894142151
1789619979878000400,0.72000048828125,0.011324560269713402,-0.16054999828338623,-0.27033162117004395
1789619979887973600,0.7299736328125,0.07369579374790192,-0.10655254125595093,-0.19967982172966003
1789619979897946400,0.7399462890625,0.15507054328918457,-0.04381672292947769,-0.1181575357913971
1789619979907919400,0.74991943359375,0.2336316704750061,0.011484881862998009,-0.031688153743743896
1789619979917892400,0.759892333984375,0.2955267131328583,0.05272393301129341,0.06481335312128067
1789619979927865600,0.769865478515625,0.327339768409729,0.06333636492490768,0.16052763164043427
1789619979937839600,0.779839599609375,0.3215135931968689,0.0190205629914999,0.25358086824417114
1789619979947812600,0.7898125,0.286165714263916,-0.056295763701200485,0.3390611410140991
1789619979957785300,0.799785400390625,0.23189447820186615,-0.10321533679962158,0.4130578935146332
1789619979967758300,0.80975830078125,0.16902311146259308,-0.09060873091220856,0.4711936116218567
1789619979977731600,0.819731689453125,0.10565958172082901,-0.03947550430893898,0.5039083957672119
1789619979987704600,0.82970458984375,0.03463707119226456,0.017654627561569214,0.5032730102539062
1789619979997677600,0.839677490234375,-0.03615347668528557,0.06743896007537842,0.4667477309703827
1789619980007651600,0.849651611328125,-0.09494648873806,0.08598574995994568,0.40026140213012695
1789619980017624300,0.859624267578125,-0.13003070652484894,0.06670819222927094,0.3186384439468384
1789619980027597300,0.869597412109375,-0.14792554080486298,0.0437629260122776,0.2377137541770935
1789619980037570600,0.879570556640625,-0.15571503341197968,0.037153229117393494,0.16811896860599518
1789619980047543600,0.88954345703125,-0.16031403839588165,0.039154861122369766,0.11019201576709747
1789619980057516300,0.899516357421875,-0.16393300890922546,0.03080691397190094,0.0665888786315918
1789619980067490300,0.909490234375,-0.17109425365924835,0.027309652417898178,0.03762434050440788
1789619980077463300,0.91946337890625,-0.17918413877487183,0.04310006648302078,0.022364694625139236
1789619980087436500,0.9294365234375,-0.18464894592761993,0.06972049176692963,0.01973375678062439
1789619980097409500,0.939409423828125,-0.1857200711965561,0.10921676456928253,0.02738581784069538
1789619980107382500,0.949382568359375,-0.17536915838718414,0.15450727939605713,0.03213023766875267
1789619980117355300,0.959355224609375,-0.15108592808246613,0.16633491218090057,0.037811294198036194
1789619980127329300,0.969329345703125,-0.11408236622810364,0.13852138817310333,0.04120655730366707
1789619980137302300,0.97930224609375,-0.0582963302731514,0.09176533669233322,0.04549238458275795
1789619980147275500,0.989275634765625,0.012084892019629478,0.05227199196815491,0.05745397135615349
1789619980157248500,0.99924853515625,0.08593008667230606,0.02509922720491886,0.07273891568183899
1789619980167221500,1.009221435546875,0.14958283305168152,-0.00023329291434492916,0.10106643289327621
1789619980177194200,1.0191943359375,0.19373005628585815,-0.00044474788592197,0.14154328405857086
1789619980187168300,1.029168212890625,0.22394335269927979,0.017540911212563515,0.18761064112186432
1789619980197141500,1.0391416015625,0.2512862980365753,0.04748282954096794,0.23714011907577515
1789619980207114500,1.049114501953125,0.28319787979125977,0.08561636507511139,0.28328657150268555
1789619980217087500,1.05908740234375,0.3083559572696686,0.12376801669597626,0.32105499505996704
1789619980227060500,1.069060546875,0.32459086179733276,0.15078604221343994,0.3458274304866791
1789619980237034500,1.079034423828125,0.33366504311561584,0.14323678612709045,0.3587283194065094
1789619980247007500,1.089007568359375,0.334433376789093,0.11229298263788223,0.36368581652641296
1789619980256980500,1.09898046875,0.3253155052661896,0.08771014213562012,0.3620591461658478
1789619980266953500,1.108953369140625,0.30649256706237793,0.07652220129966736,0.3581264615058899
1789619980276926500,1.118926513671875,0.27588725090026855,0.08458732068538666,0.3542957603931427
1789619980286900500,1.128900390625,0.24151302874088287,0.11762383580207825,0.34472543001174927
1789619980296873500,1.13887353515625,0.20579203963279724,0.15473684668540955,0.33139097690582275
1789619980306846500,1.148846435546875,0.17789089679718018,0.18744152784347534,0.31611162424087524
1789619980316819500,1.1588193359375,0.15198872983455658,0.22469089925289154,0.2997417151927948
1789619980326792400,1.16879248046875,0.12700428068637848,0.2469533234834671,0.2827256917953491
1789619980336765400,1.178765380859375,0.09854254871606827,0.24780820310115814,0.264201819896698
1789619980346739500,1.188739501953125,0.07265342772006989,0.2288462370634079,0.2419053018093109
1789619980356712400,1.19871240234375,0.05643264949321747,0.193461075425148,0.21340681612491608
1789619980366685400,1.208685546875,0.04531741514801979,0.16857090592384338,0.18306195735931396
1789619980376658200,1.218658203125,0.03471430391073227,0.16643957793712616,0.1550292670726776
1789619980386631200,1.228631103515625,0.021519672125577927,0.17099091410636902,0.1449073851108551
1789619980396605200,1.238605224609375,0.00510021997615695,0.1698542833328247,0.15544632077217102
1789619980406578200,1.248578125,-0.025534121319651604,0.15096235275268555,0.18337994813919067
1789619980416551400,1.258551513671875,-0.06329721212387085,0.10532695800065994,0.21207523345947266
1789619980426524400,1.2685244140625,-0.10797680169343948,0.05068155378103256,0.22499848902225494
1789619980436498400,1.27849853515625,-0.14378540217876434,0.007422496099025011,0.22223412990570068
1789619980446471200,1.28847119140625,-0.15695765614509583,-0.017422134056687355,0.21188002824783325
1789619980456444200,1.298444091796875,-0.1511003077030182,-0.026026008650660515,0.2078394740819931
1789619980466417400,1.30841748046875,-0.14810238778591156,-0.016381369903683662,0.21862740814685822
1789619980476390400,1.318390380859375,-0.16244296729564667,-0.014326740987598896,0.2474966198205948
1789619980486364400,1.328364501953125,-0.21070824563503265,-0.023310381919145584,0.2875678539276123
1789619980496337200,1.338337158203125,-0.26523032784461975,-0.05396336689591408,0.30923402309417725
1789619980506310100,1.34831005859375,-0.3147062659263611,-0.11451086401939392,0.3130609691143036
1789619980516283400,1.358283447265625,-0.3483816683292389,-0.18257620930671692,0.30745741724967957
1789619980526256400,1.36825634765625,-0.3565671741962433,-0.2709084749221802,0.3040408492088318
1789619980536230400,1.37823046875,-0.33868512511253357,-0.33926886320114136,0.3284263610839844
1789619980546203400,1.388203369140625,-0.3244832754135132,-0.3688526153564453,0.36669331789016724
1789619980556176100,1.398176025390625,-0.33149003982543945,-0.364730566740036,0.4031650424003601
1789619980566149000,1.408149169921875,-0.3361987769603729,-0.3528054654598236,0.4265369474887848
1789619980576123100,1.418123046875,-0.3166607618331909,-0.3094121813774109,0.4455505609512329
1789619980586096400,1.428096435546875,-0.280446320772171,-0.22621768712997437,0.4716216027736664
1789619980596069400,1.4380693359375,-0.24244779348373413,-0.12957291305065155,0.49252447485923767
1789619980606042400,1.44804248046875,-0.210068017244339,-0.03305355831980705,0.5040099024772644
1789619980616016400,1.458016357421875,-0.18278366327285767,0.06556382775306702,0.5031268000602722
1789619980625989000,1.467989013671875,-0.1565086543560028,0.14830131828784943,0.48581463098526
1789619980635962400,1.47796240234375,-0.13852272927761078,0.1898231953382492,0.45707646012306213
1789619980645935400,1.487935302734375,-0.12835849821567535,0.1985708773136139,0.41740256547927856
1789619980655908400,1.497908447265625,-0.13507819175720215,0.22308580577373505,0.36264610290527344
1789619980665882400,1.50788232421875,-0.15188513696193695,0.368619829416275,0.27768674492836
1789619980675855400,1.51785546875,-0.17367325723171234,0.6205751299858093,0.1731632649898529
1789619980685828000,1.527828125,-0.1649487465620041,0.748589813709259,-0.006532734259963036
1789619980695801300,1.53780126953125,-0.11864329129457474,0.7828385829925537,-0.21604041755199432
1789619980705775400,1.547775390625,-0.020625915378332138,0.8050482869148254,-0.430410236120224
1789619980715748400,1.557748291015625,0.07720610499382019,0.8860616683959961,-0.6752815246582031
1789619980725721300,1.567721435546875,0.15043877065181732,1.148099660873413,-0.9708702564239502
1789619980735694000,1.577694091796875,0.2686655521392822,1.5672743320465088,-1.3194847106933594
1789619980745668000,1.587668212890625,0.46748703718185425,2.1182000637054443,-1.66792893409729
1789619980755641300,1.597641357421875,0.712651789188385,2.7274129390716553,-1.9743376970291138
1789619980765614300,1.6076142578125,0.9822837710380554,3.3430705070495605,-2.2417242527008057
1789619980775587300,1.61758740234375,1.2598110437393188,3.785757064819336,-2.4481706619262695
1789619980785561300,1.627561279296875,1.5003620386123657,3.985891819000244,-2.5799291133880615
1789619980795534300,1.637534423828125,1.67756986618042,3.9488003253936768,-2.6301841735839844
1789619980805507000,1.647507080078125,1.742865800857544,3.7008047103881836,-2.608816146850586
1789619980815480300,1.657480224609375,1.740480899810791,3.5127618312835693,-2.466959238052368
1789619980825454300,1.667454345703125,1.6812045574188232,3.439357280731201,-2.2021844387054443
1789619980835427300,1.67742724609375,1.5574443340301514,3.3817882537841797,-1.855179786682129
1789619980845400300,1.687400390625,1.355965495109558,3.2585933208465576,-1.4453641176223755
1789619980855373300,1.697373291015625,1.0609066486358643,3.0737648010253906,-1.0043855905532837
1789619980865347300,1.707347412109375,0.7011088728904724,2.8084557056427,-0.5521795749664307
1789619980875320300,1.7173203125,0.49329307675361633,2.276982307434082,-0.08827207237482071
1789619980885293300,1.727293212890625,0.2835765779018402,1.7146501541137695,0.4294477701187134
1789619980895266300,1.737266357421875,0.12094719707965851,0.8284004926681519,0.9752200245857239
1789619980905240300,1.747240234375,-0.3025366961956024,-0.7647735476493835,1.3422489166259766
1789619980915213300,1.75721337890625,-1.6945635080337524,-2.694833517074585,1.477538824081421
1789619980925186300,1.767186279296875,-2.89070463180542,-3.9960992336273193,1.6181752681732178
1789619980935159300,1.7771591796875,-3.1765835285186768,-4.692487716674805,1.9287621974945068
1789619980945133300,1.78713330078125,-3.145313024520874,-5.658545970916748,2.036717653274536
1789619980955106300,1.797106201171875,-3.1045591831207275,-6.9974260330200195,1.7781354188919067
1789619980965079300,1.807079345703125,-2.9171125888824463,-8.538227081298828,1.3402289152145386
1789619980975053300,1.81705322265625,-2.3515431880950928,-10.300728797912598,0.7587140798568726
1789619980985026300,1.8270263671875,-1.605667233467102,-11.449458122253418,-0.7007418870925903
1789619980994999300,1.836999267578125,-1.2711403369903564,-9.095903396606445,-2.2387897968292236
1789619981004972300,1.84697216796875,-1.094677209854126,-6.905917644500732,-2.6383986473083496
1789619981014946300,1.8569462890625,-0.725799024105072,-4.797603607177734,-2.578256368637085
1789619981024919300,1.866919189453125,-0.10030636191368103,-3.617361068725586,-2.103687047958374
1789619981034892300,1.876892333984375,0.5835174918174744,-2.788905620574951,-1.2784355878829956
1789619981044865300,1.886865234375,1.2277065515518188,-2.079604387283325,-0.33000266551971436
1789619981054839300,1.89683935546875,1.577515721321106,-1.3314406871795654,0.5113357305526733
1789619981064812300,1.906812255859375,1.5248842239379883,-0.8352147340774536,1.1842176914215088
1789619981074785300,1.916785400390625,1.2983776330947876,-0.8054648041725159,1.711868166923523
1789619981084758300,1.92675830078125,0.9331295490264893,-1.291864037513733,1.7903907299041748
1789619981094732300,1.936732177734375,0.7524213194847107,-2.3163559436798096,1.4778738021850586
1789619981104705300,1.946705322265625,0.8158026933670044,-3.1630606651306152,1.2224103212356567
1789619981114678300,1.95667822265625,1.0491232872009277,-3.494500160217285,1.1145601272583008
1789619981124652300,1.96665234375,1.6917898654937744,-3.4549872875213623,1.1139878034591675
1789619981134625300,1.976625244140625,2.5485968589782715,-3.1903183460235596,1.3629717826843262
1789619981144598300,1.986598388671875,2.3161704540252686,-2.732177257537842,1.3578726053237915
1789619981154571300,1.9965712890625,1.1461427211761475,-2.8132498264312744,0.5571892261505127
1789619981164545300,2.006545166015625,0.6700174808502197,-2.9878265857696533,0.3322194814682007
1789619981174518300,2.016518310546875,0.7218085527420044,-3.2409589290618896,0.3450769782066345
1789619981184491500,2.026491455078125,0.6726194024085999,-3.4668259620666504,0.21846044063568115
1789619981194465300,2.03646533203125,0.6498296856880188,-3.5548806190490723,0.0780111774802208
1789619981204438300,2.046438232421875,0.777129054069519,-3.5815720558166504,-0.017198694869875908
1789619981214411300,2.056411376953125,1.0250648260116577,-3.6661341190338135,-0.11655137687921524
1789619981224384300,2.06638427734375,1.3085479736328125,-3.8558425903320312,-0.2622148394584656
1789619981234358300,2.076358154296875,1.615763545036316,-4.0870161056518555,-0.4302019774913788
1789619981244331300,2.086331298828125,1.9554857015609741,-4.310044765472412,-0.5737175941467285
1789619981254304300,2.09630419921875,2.269382953643799,-4.4525370597839355,-0.6777505278587341
1789619981264278300,2.1062783203125,2.5653512477874756,-4.451993465423584,-0.8136958479881287
1789619981274251300,2.116251220703125,2.8324356079101562,-4.4908270835876465,-0.9587417244911194
1789619981284224300,2.126224365234375,3.1007115840911865,-4.545134544372559,-1.0051456689834595
1789619981294198300,2.1361982421875,3.375986337661743,-4.533977031707764,-0.9670904278755188
1789619981304171300,2.146171142578125,3.6660690307617188,-4.540652275085449,-0.8770037293434143
1789619981314144300,2.156144287109375,4.001777172088623,-4.50667142868042,-0.7323096394538879
1789619981324117200,2.1661171875,4.375710487365723,-4.394700050354004,-0.5357332229614258
1789619981334091300,2.17609130859375,4.762667179107666,-4.170989990234375,-0.2858959436416626
1789619981344064300,2.186064208984375,5.130331516265869,-3.8144497871398926,-0.011866246350109577
1789619981354037200,2.196037353515625,5.391963005065918,-3.4134130477905273,0.24583560228347778
1789619981364010800,2.2060107421875,5.504538536071777,-3.1366093158721924,0.495151162147522
1789619981373983700,2.215983642578125,5.527676105499268,-2.943805456161499,0.7373475432395935
1789619981383957000,2.22595703125,5.379796504974365,-2.7218739986419678,0.9893512725830078
1789619981393931000,2.235930908203125,5.071929931640625,-2.4983415603637695,1.2663922309875488
1789619981403903700,2.24590380859375,4.758181571960449,-2.2262706756591797,1.555393934249878
1789619981413876700,2.255876708984375,4.528698921203613,-1.854844331741333,1.7896088361740112
1789619981423849700,2.265849609375,4.4811577796936035,-1.3190487623214722,1.896535038948059
1789619981433823700,2.27582373046875,4.624773979187012,-0.498665988445282,1.7845700979232788
1789619981443797000,2.285796875,4.685417652130127,0.2331688106060028,1.4914530515670776
1789619981453770000,2.29577001953125,4.667688369750977,0.6142911314964294,1.2334630489349365
1789619981463744000,2.305743896484375,4.291172027587891,0.8891032338142395,0.7115665674209595
1789619981473716700,2.315716796875,3.615668773651123,0.7511304616928101,0.009147425182163715
1789619981483689700,2.325689697265625,2.8013715744018555,0.11745020002126694,-0.10657304525375366
1789619981493663700,2.335663818359375,2.1672604084014893,-0.048053544014692307,0.05066291242837906
1789619981503636700,2.34563671875,1.5424741506576538,0.17210865020751953,0.12082228809595108
1789619981513610000,2.35560986328125,0.9620970487594604,0.3776357173919678,0.23680002987384796
1789619981523584000,2.365583984375,0.628307580947876,1.1430734395980835,0.3263469636440277
1789619981533557000,2.375556884765625,0.46357885003089905,1.9401799440383911,0.22638413310050964
1789619981543529700,2.38552978515625,-0.03145699203014374,1.9014450311660767,-0.028795961290597916
1789619981553502700,2.395502685546875,-0.7865076065063477,1.1067399978637695,-0.1386691927909851
1789619981563476700,2.405476806640625,-1.5712705850601196,-0.13586808741092682,0.11547759175300598
1789619981573449700,2.41544970703125,-2.4081616401672363,-1.3438246250152588,0.851020336151123
1789619981583423000,2.425423095703125,-3.0959670543670654,-2.100738286972046,1.6689609289169312
1789619981593397000,2.43539697265625,-3.2994332313537598,-2.281785249710083,1.9157280921936035
1789619981603369700,2.44536962890625,-2.8516743183135986,-1.8957525491714478,1.4129116535186768
1789619981613342700,2.4553427734375,-2.1148767471313477,-1.2305079698562622,0.30968356132507324
1789619981623316700,2.465316650390625,-2.0332536697387695,-0.8665896654129028,-0.27110472321510315
1789619981633289700,2.475289794921875,-2.3011085987091064,-1.0238906145095825,-0.022220617160201073
1789619981643263000,2.485262939453125,-2.491354465484619,-1.4006041288375854,0.4106080234050751
1789619981653237000,2.495237060546875,-2.509406328201294,-1.6569805145263672,0.6725783944129944
1789619981663210000,2.5052099609375,-2.6311087608337402,-1.637873649597168,0.8179377317428589
1789619981673182700,2.5151826171875,-3.0444018840789795,-1.6433115005493164,1.0075689554214478
1789619981683156700,2.52515673828125,-3.4093174934387207,-1.772734522819519,1.157982349395752
1789619981693129700,2.535129638671875,-3.5586023330688477,-1.814943790435791,1.0915964841842651
1789619981703102700,2.545102783203125,-3.2093424797058105,-1.7563331127166748,1.0886752605438232
1789619981713076700,2.55507666015625,-2.76139497756958,-1.5713881254196167,0.9785827994346619
1789619981723050000,2.565050048828125,-2.2930490970611572,-1.4714617729187012,0.761584460735321
1789619981733023000,2.57502294921875,-1.625846028327942,-1.5498111248016357,0.8036442995071411
1789619981742997000,2.5849970703125,-0.9375349879264832,-1.4615542888641357,0.9156003594398499
1789619981752969700,2.5949697265625,-0.47595667839050293,-1.1682683229446411,0.9219155311584473
1789619981762942700,2.604942626953125,-0.37477654218673706,-0.8501630425453186,0.557165265083313
1789619981772916700,2.614916748046875,-0.30544939637184143,-0.5229114294052124,0.2971680164337158
1789619981782889700,2.6248896484375,0.10097748041152954,0.38929903507232666,0.23947836458683014
1789619981792863000,2.634863037109375,0.41566696763038635,1.136742115020752,-0.2662132978439331
1789619981802837000,2.6448369140625,1.0742017030715942,1.3543294668197632,-0.7819650769233704
1789619981812810000,2.65481005859375,1.8244980573654175,1.0145772695541382,-0.836543083190918
1789619981822782700,2.66478271484375,2.5809648036956787,0.4957205355167389,-0.8967733979225159
1789619981832756700,2.6747568359375,3.2806875705718994,0.42367082834243774,-0.9395296573638916
1789619981842729700,2.684729736328125,3.6605136394500732,0.45203325152397156,-1.1393756866455078
1789619981852703000,2.694702880859375,3.6993396282196045,1.0955770015716553,-1.0508782863616943
1789619981862676700,2.7046767578125,3.5482237339019775,1.8919005393981934,-0.8273754119873047
1789619981872650000,2.71464990234375,3.3630073070526123,2.453310251235962,-0.708911120891571
1789619981882622700,2.724622802734375,2.9884700775146484,2.796372413635254,-0.7250362634658813
1789619981892596700,2.7345966796875,2.3599374294281006,3.24548077583313,-0.8808948397636414
1789619981902569700,2.74456982421875,2.067573070526123,3.5843498706817627,-1.0596030950546265
1789619981912542700,2.754542724609375,2.1519153118133545,3.9847166538238525,-1.281916618347168
1789619981922516700,2.764516845703125,2.3616080284118652,5.192598819732666,-1.4174940586090088
1789619981932490000,2.774489990234375,2.315958023071289,5.4575958251953125,-1.691305160522461
1789619981942463000,2.784462890625,2.0249850749969482,4.492620468139648,-1.4751942157745361
1789619981952437000,2.79443701171875,1.3467108011245728,2.9368317127227783,-1.0601359605789185
1789619981962409700,2.80440966796875,0.612913191318512,1.4579797983169556,-0.673795223236084
1789619981972382700,2.8143828125,0.2617144286632538,0.5723497867584229,-0.397609680891037
1789619981982356700,2.824356689453125,-0.09109023213386536,0.053273074328899384,-0.2958761155605316
1789619981992329700,2.834329833984375,-0.24532799422740936,-0.03195899724960327,-0.3371162414550781
1789619982002303700,2.8443037109375,-0.25826722383499146,-0.029882531613111496,-0.4665836989879608
1789619982012277000,2.854277099609375,-0.3501175343990326,0.10081955790519714,-0.6620844602584839
1789619982022873900,2.864873779296875,-0.5321752429008484,-0.11994317919015884,-0.6087557673454285
1789619982032848000,2.874847900390625,-0.7995691299438477,-0.6544782519340515,-0.5013954639434814
1789619982042820900,2.88482080078125,-1.272524356842041,-1.2328689098358154,-0.7692562341690063
1789619982052793900,2.8947939453125,-1.0408096313476562,-3.7439002990722656,-1.0316513776779175
1789619982062767900,2.904767822265625,-0.14958150684833527,-4.362726211547852,-1.236282467842102
1789619982072740900,2.914740966796875,0.5095497965812683,-1.5493475198745728,-1.5170608758926392
1789619982082713900,2.9247138671875,0.4329215884208679,0.2141314595937729,-1.3939636945724487
1789619982092688000,2.93468798828125,0.129673033952713,0.4576708972454071,-0.9113768339157104
1789619982102660900,2.944660888671875,-0.0578148290514946,0.24307896196842194,-0.3112249970436096
1789619982112633900,2.9546337890625,-0.11845766752958298,0.09561813622713089,0.22661742568016052
1789619982122607900,2.96460791015625,-0.07183690369129181,0.1289028525352478,0.6159403920173645
1789619982132580900,2.974580810546875,-0.052086636424064636,0.1254466027021408,0.794778048992157
1789619982142555000,2.984554931640625,-0.05083708092570305,0.11211349070072174,0.766385555267334
1789619982152528000,2.99452783203125,-0.04153226315975189,0.13542519509792328,0.6059381365776062
1789619982162500900,3.0045009765625,-0.04760613292455673,0.10984447598457336,0.3989841341972351
1789619982172475000,3.014474853515625,-0.05428081378340721,0.044674526900053024,0.18511685729026794
1789619982182447900,3.02444775390625,0.019598202779889107,0.11368688195943832,-0.14556145668029785
1789619982192420600,3.034420654296875,0.3026709258556366,-0.12538056075572968,-0.4071214199066162
1789619982202394600,3.04439453125,0.7922723293304443,-0.5834554433822632,-0.3803982138633728
1789619982212368000,3.054367919921875,1.0178673267364502,-0.6764991283416748,-0.12362393736839294
1789619982222340900,3.0643408203125,0.784389078617096,-0.34653958678245544,0.13731259107589722
1789619982232315000,3.07431494140625,0.26193681359291077,0.04382151737809181,0.3787025809288025
1789619982242287900,3.084287841796875,-0.15217116475105286,0.14491111040115356,0.6319921016693115
1789619982252262000,3.094261962890625,-0.29866287112236023,-0.06027372553944588,0.775047242641449
1789619982262235000,3.10423486328125,-0.03382107987999916,-0.6607702374458313,1.0438719987869263
1789619982272207600,3.11420751953125,0.4122413396835327,-1.061212182044983,1.2430189847946167
1789619982282181600,3.124181640625,0.8930529952049255,-1.0737439393997192,1.2529700994491577
1789619982292155000,3.13415478515625,1.419234275817871,-0.5566555261611938,0.7982223629951477
1789619982302127900,3.1441279296875,1.8830926418304443,-0.1756461262702942,0.22559984028339386
1789619982312102000,3.154101806640625,2.3221020698547363,-0.027751736342906952,-0.2014489620923996
1789619982322075000,3.164074951171875,2.587580442428589,0.024418257176876068,-0.5936446785926819
1789619982332049000,3.174048828125,2.343205213546753,-0.13747210800647736,-0.6490150094032288
1789619982342022000,3.18402197265625,1.8885897397994995,0.1973242610692978,-0.19521982967853546
1789619982351995000,3.193994873046875,1.7151542901992798,1.2016339302062988,0.057611897587776184
1789619982361969400,3.203969482421875,0.5346959233283997,-0.147101029753685,-0.15153279900550842
1789619982371942400,3.2139423828125,-0.7372156977653503,-1.008293867111206,-0.39876362681388855
1789619982381915400,3.223915283203125,-0.709439218044281,-0.09176933765411377,-0.31224897503852844
1789619982391889400,3.233889404296875,-0.606097400188446,-0.17145323753356934,0.018691396340727806
1789619982401862400,3.2438623046875,-0.6107333898544312,-0.2569151520729065,0.3398001790046692
1789619982411836400,3.25383642578125,-0.671635627746582,0.06341678649187088,0.5397617816925049
1789619982421809400,3.263809326171875,-0.21947988867759705,0.11360964924097061,0.47153690457344055
1789619982431782400,3.273782470703125,-0.8239346146583557,-0.5442960858345032,0.0983089953660965
1789619982441756400,3.28375634765625,-1.1114859580993652,-0.6615942120552063,-0.004296211525797844
1789619982451729400,3.2937294921875,-0.9039815068244934,-0.638904869556427,0.03020450845360756
1789619982461702400,3.303702392578125,-0.8372113108634949,-0.4460667073726654,0.13736212253570557
1789619982471676400,3.313676513671875,-0.9047067165374756,-0.3234955072402954,0.15301936864852905
1789619982481649400,3.3236494140625,-0.9911504983901978,-0.3347385823726654,0.08434976637363434
1789619982491623400,3.33362353515625,-1.125983715057373,-0.41338491439819336,-0.02100914530456066
1789619982501596400,3.343596435546875,-1.2986886501312256,-0.47078749537467957,-0.12984108924865723
1789619982511569400,3.3535693359375,-1.421805500984192,-0.3369564414024353,-0.21391548216342926
1789619982521543400,3.36354345703125,-1.5992004871368408,-0.22056938707828522,-0.26378077268600464
1789619982531516400,3.373516357421875,-1.858274221420288,-0.042937081307172775,-0.31267666816711426
1789619982541490400,3.383490478515625,-2.2348480224609375,0.09092138707637787,-0.3995729684829712
1789619982551463400,3.39346337890625,-2.6121814250946045,0.2660423219203949,-0.44862625002861023
1789619982561436400,3.4034365234375,-2.773225784301758,0.5506200194358826,-0.42786291241645813
1789619982571410400,3.413410400390625,-1.6902289390563965,0.3592633605003357,-0.38516393303871155
1789619982581383400,3.423383544921875,-0.4092453122138977,-0.4043288230895996,-0.32589688897132874
1789619982591357400,3.433357421875,-0.2758467495441437,-0.21763938665390015,-0.33992800116539
1789619982601330400,3.443330322265625,-0.5029819011688232,0.20844268798828125,-0.3866741955280304
1789619982611303400,3.453303466796875,-0.5537537336349487,0.10052794218063354,-0.3315387964248657
1789619982621277400,3.46327734375,-0.5341667532920837,-0.15741412341594696,-0.28673055768013
1789619982631250400,3.47325048828125,-0.5211952924728394,-0.3394579589366913,-0.28894391655921936
1789619982641224400,3.483224365234375,-0.538267970085144,-0.439299076795578,-0.2705065906047821
1789619982651197400,3.493197509765625,-0.5379361510276794,-0.5315384268760681,-0.24591682851314545
1789619982661170400,3.50317041015625,-0.5412502288818359,-0.5599269270896912,-0.24208852648735046
1789619982671144400,3.51314453125,-0.5438238978385925,-0.5067324638366699,-0.2400653213262558
1789619982681117200,3.5231171875,-0.5384922623634338,-0.4564319849014282,-0.24126215279102325
1789619982691091200,3.53309130859375,-0.5257055759429932,-0.43625959753990173,-0.251987487077713
1789619982701064400,3.543064453125,-0.505325198173523,-0.44082319736480713,-0.25644803047180176
1789619982711037400,3.553037353515625,-0.4950054883956909,-0.4431758224964142,-0.26406121253967285
1789619982721011500,3.563011474609375,-0.5119500756263733,-0.4110269546508789,-0.2667747139930725
1789619982730984400,3.572984375,-0.5413458347320557,-0.33447277545928955,-0.2611205577850342
1789619982740958500,3.58295849609375,-0.589288592338562,-0.22280031442642212,-0.2399444282054901
1789619982750931500,3.592931396484375,-0.5790777206420898,-0.24016599357128143,-0.23264895379543304
1789619982760904200,3.602904296875,-0.5994671583175659,-0.23206838965415955,-0.24138306081295013
1789619982770878200,3.612878173828125,-0.6590282320976257,-0.1923593282699585,-0.2622199058532715
1789619982780851500,3.6228515625,-0.694496214389801,-0.10553308576345444,-0.28007692098617554
1789619982790825500,3.632825439453125,-0.6897352933883667,-0.1459774523973465,-0.2969035804271698
1789619982800798500,3.642798583984375,-0.6986947059631348,-0.09752202779054642,-0.2961792051792145
1789619982810771500,3.652771484375,-0.701440691947937,-0.046478286385536194,-0.2691188156604767
1789619982820745500,3.662745361328125,-0.6924996376037598,-0.020140422508120537,-0.23486284911632538
1789619982830718500,3.672718505859375,-0.6843098998069763,0.001169127761386335,-0.2056647390127182
1789619982840692500,3.6826923828125,-0.7675403356552124,0.1538795828819275,-0.17417046427726746
1789619982850665200,3.692665283203125,-0.7480334639549255,0.15458185970783234,-0.14978550374507904
1789619982860638500,3.702638427734375,-0.7247784733772278,0.03827868029475212,-0.12905386090278625
1789619982870612500,3.712612548828125,-0.7335951328277588,-0.030253509059548378,-0.1075991615653038
1789619982880585500,3.72258544921875,-0.7441641688346863,-0.09843709319829941,-0.09363514184951782
1789619982890559500,3.7325595703125,-0.7255675792694092,-0.2246869057416916,-0.09513423591852188
1789619982900532500,3.742532470703125,-0.7366085052490234,-0.26445135474205017,-0.0820610448718071
1789619982910505200,3.752505126953125,-0.7847592830657959,-0.23370756208896637,-0.059535764157772064
1789619982920479200,3.762479248046875,-0.8030011057853699,-0.19882680475711823,-0.03921131789684296
1789619982930452200,3.7724521484375,-0.7640159130096436,-0.3163084387779236,-0.042277947068214417
1789619982940426200,3.78242626953125,-0.7593836188316345,-0.3478256165981293,-0.05227572098374367
1789619982950399500,3.7923994140625,-0.7515738606452942,-0.29983413219451904,-0.04557041451334953
1789619982960373500,3.80237353515625,-0.8096699118614197,-0.16661109030246735,-0.02696450613439083
1789619982970346500,3.812346435546875,-0.8130660057067871,-0.12905651330947876,-0.020859209820628166
1789619982980319500,3.822319580078125,-0.7997611165046692,-0.14621900022029877,-0.021146031096577644
1789619982990293500,3.83229345703125,-0.7786161303520203,-0.2119665890932083,-0.042332809418439865
1789619983000266200,3.842266357421875,-0.7887140512466431,-0.23908501863479614,-0.06464157998561859
1789619983010240300,3.852240234375,-0.8260944485664368,-0.17597928643226624,-0.07540047913789749
1789619983020213200,3.862213134765625,-0.8668245673179626,-0.08025462180376053,-0.08356253802776337
1789619983030186500,3.8721865234375,-0.8147618770599365,-0.14036217331886292,-0.12136530876159668
1789619983040160500,3.882160400390625,-0.809942901134491,-0.15399861335754395,-0.14499367773532867
1789619983050133500,3.892133544921875,-0.7978636026382446,-0.0950455591082573,-0.1500302404165268
1789619983060107500,3.902107421875,-0.8136013150215149,0.01883653737604618,-0.1345394402742386
1789619983070080500,3.91208056640625,-0.8438665270805359,0.12212830781936646,-0.11823582649230957
1789619983080054500,3.922054443359375,-0.8414025902748108,0.1896412968635559,-0.14042875170707703
1789619983090027300,3.93202734375,-0.7904493808746338,0.16989663243293762,-0.18475094437599182
1789619983100000300,3.942000244140625,-0.7050175666809082,-0.08133187144994736,-0.2530101537704468
1789619983109974300,3.951974365234375,-0.682539701461792,-0.09200635552406311,-0.29293760657310486
1789619983119947500,3.961947509765625,-0.6817737817764282,-0.022667229175567627,-0.3097623884677887
1789619983129921500,3.971921630859375,-0.6726388335227966,-0.052024584263563156,-0.3301355540752411
1789619983139894500,3.98189453125,-0.6811151504516602,-0.11836285889148712,-0.3386440873146057
1789619983149867300,3.9918671875,-0.6013910174369812,-0.3297049403190613,-0.3920444846153259
1789619983159841300,4.00184130859375,-0.550958514213562,-0.40948686003685,-0.43071624636650085
1789619983169814300,4.011814208984375,-0.4877680838108063,-0.4083422124385834,-0.4504697024822235
1789619983179788300,4.021788330078125,-0.4336923062801361,-0.38359346985816956,-0.4602717161178589
1789619983189761300,4.03176123046875,-0.38432982563972473,-0.3776881694793701,-0.4458254277706146
1789619983199735300,4.0417353515625,-0.3297078609466553,-0.3515377938747406,-0.41009750962257385
1789619983209708500,4.05170849609375,-0.2930734157562256,-0.26209527254104614,-0.35301557183265686
1789619983219681500,4.061681640625,-0.2608369290828705,-0.15703143179416656,-0.2904989421367645
1789619983229655600,4.071655517578125,-0.2408139407634735,-0.004038949962705374,-0.22827790677547455
1789619983239628300,4.081628173828125,-0.22336171567440033,0.3975721299648285,-0.10663829743862152
1789619983249602300,4.091602294921875,-0.1287609040737152,0.040707748383283615,-0.12918753921985626
1789619983259575300,4.1015751953125,-0.1330171674489975,0.0333920456469059,-0.10717971622943878
1789619983269549300,4.11154931640625,-0.15531103312969208,0.10492321848869324,-0.02611895278096199
1789619983279522300,4.121522216796875,-0.14699023962020874,0.16498681902885437,0.050699930638074875
1789619983289495600,4.13149560546875,-0.12483274936676025,0.217576265335083,0.09022603183984756
1789619983299469600,4.141469482421875,-0.11337582767009735,0.24549710750579834,0.10916457325220108
1789619983309442600,4.151442626953125,-0.15669400990009308,0.49647554755210876,0.18362335860729218
1789619983319416600,4.16141650390625,-0.023976972326636314,0.2498186230659485,0.152986079454422
1789619983329389300,4.171389404296875,-0.020301543176174164,0.21975499391555786,0.16720816493034363
1789619983339363300,4.18136328125,0.0041547976434230804,0.23817022144794464,0.22762995958328247
1789619983349336300,4.19133642578125,0.06746026873588562,0.2978969216346741,0.3003707528114319
1789619983359310300,4.201310302734375,0.12947329878807068,0.3243860602378845,0.3669034242630005
1789619983369283600,4.21128369140625,0.21074658632278442,0.41361209750175476,0.3829314112663269
1789619983379256600,4.221256591796875,0.2682245373725891,0.4249451756477356,0.37519651651382446
1789619983389230600,4.231230712890625,0.3121400475502014,0.43592724204063416,0.3775233328342438
1789619983399203600,4.24120361328125,0.3418968915939331,0.4363959729671478,0.4134778678417206
1789619983409177600,4.251177490234375,0.3546220064163208,0.43273332715034485,0.44012969732284546
1789619983419150600,4.261150634765625,0.38326457142829895,0.46257802844047546,0.42748022079467773
1789619983429124600,4.27112451171875,0.42008063197135925,0.4996239244937897,0.41855835914611816
1789619983439097600,4.28109765625,0.4623021185398102,0.5194525122642517,0.42724213004112244
1789619983449070600,4.291070556640625,0.5177227854728699,0.5218461155891418,0.43797600269317627
1789619983459044600,4.301044677734375,0.5749919414520264,0.4887619614601135,0.4327964186668396
1789619983469017600,4.311017578125,0.6210869550704956,0.4493895173072815,0.39490312337875366
1789619983478991600,4.32099169921875,0.672761082649231,0.4460770785808563,0.3514310121536255
1789619983488964600,4.330964599609375,0.7369328737258911,0.4474741816520691,0.3186722695827484
1789619983498938600,4.340938720703125,0.802837610244751,0.43144646286964417,0.2991214692592621
1789619983508911600,4.35091162109375,0.8475339412689209,0.3875756859779358,0.2737138271331787
1789619983518885600,4.3608857421875,0.8756119608879089,0.3895088732242584,0.235846608877182
1789619983528858600,4.370858642578125,0.8925624489784241,0.41614288091659546,0.19510877132415771
1789619983538831400,4.380831298828125,0.9012389779090881,0.46268028020858765,0.15045954287052155
1789619983548805400,4.390805419921875,0.9216827750205994,0.5429410338401794,0.09652574360370636
1789619983558778600,4.400778564453125,0.9427797794342041,0.6081682443618774,0.038176946341991425
1789619983568752600,4.410752685546875,0.9768024682998657,0.6561887860298157,-0.007003847509622574
1789619983578725600,4.4207255859375,1.0205843448638916,0.6835146546363831,-0.06096960976719856
1789619983588699600,4.43069970703125,1.0732395648956299,0.6994060277938843,-0.11619984358549118
1789619983598672600,4.440672607421875,1.1225674152374268,0.7270230054855347,-0.15110217034816742
1789619983608646700,4.450646728515625,1.1674607992172241,0.7089632749557495,-0.17728956043720245
1789619983618619600,4.46061962890625,1.2089883089065552,0.7063326239585876,-0.20467059314250946
1789619983628592400,4.47059228515625,1.2413185834884644,0.7238479852676392,-0.20840300619602203
1789619983638566400,4.48056640625,1.2548604011535645,0.7457135915756226,-0.22545389831066132
1789619983648539600,4.49053955078125,1.262271523475647,0.7375856041908264,-0.2609301209449768
1789619983658513700,4.500513671875,1.2517088651657104,0.6935808658599854,-0.2762182652950287
1789619983668486700,4.510486572265625,1.2334579229354858,0.6567443013191223,-0.2897242307662964
1789619983678460700,4.520460693359375,1.2162363529205322,0.6589794754981995,-0.2896254360675812
1789619983688433700,4.53043359375,1.1818560361862183,0.686129629611969,-0.2854871451854706
1789619983698407700,4.54040771484375,1.1413019895553589,0.732445478439331,-0.30567416548728943
1789619983708380400,4.55038037109375,1.1225085258483887,0.7225355505943298,-0.2997819185256958
1789619983718354400,4.5603544921875,1.1200096607208252,0.6616586446762085,-0.2680724561214447
1789619983728327400,4.570327392578125,1.1358107328414917,0.642043948173523,-0.24074336886405945
1789619983738300700,4.58030078125,1.1590404510498047,0.6344984173774719,-0.21286965906620026
1789619983748274700,4.590274658203125,1.165220856666565,0.6005212664604187,-0.21515224874019623
1789619983758247700,4.60024755859375,1.1642210483551025,0.5699098110198975,-0.20601680874824524
1789619983768221700,4.6102216796875,1.18695867061615,0.6019353866577148,-0.18833476305007935
1789619983778194700,4.620194580078125,1.2127143144607544,0.6286386251449585,-0.21013273298740387
1789619983788168700,4.630168701171875,1.2122893333435059,0.5837113857269287,-0.2387012541294098
1789619983798141400,4.640141357421875,1.1960253715515137,0.5123346447944641,-0.2766244113445282
1789619983808115500,4.650115478515625,1.177976369857788,0.4408072233200073,-0.30575352907180786
1789619983818088400,4.66008837890625,1.1532331705093384,0.36933571100234985,-0.313808798789978
1789619983828062500,4.6700625,1.1049604415893555,0.2987651228904724,-0.34850019216537476
1789619983838035500,4.680035400390625,1.0658090114593506,0.2856277525424957,-0.37916702032089233
1789619983848009500,4.690009521484375,1.0346559286117554,0.4551331698894501,-0.4037626385688782
1789619983857982700,4.699982666015625,0.9808507561683655,0.4852953255176544,-0.4504776895046234
1789619983867956700,4.709956787109375,0.9364920854568481,0.46605610847473145,-0.496046245098114
1789619983877929700,4.7199296875,0.9059000611305237,0.4276309609413147,-0.5063976645469666
1789619983887902500,4.72990234375,0.8592761158943176,0.4026550352573395,-0.4945239722728729
1789619983897876500,4.73987646484375,0.8182224035263062,0.39981159567832947,-0.47985929250717163
1789619983907849500,4.749849365234375,0.7904256582260132,0.393687903881073,-0.4696125090122223
1789619983917823500,4.759823486328125,0.7759657502174377,0.37634512782096863,-0.45734038949012756
1789619983927796500,4.76979638671875,0.7749434113502502,0.35319775342941284,-0.4314350187778473
1789619983937770500,4.7797705078125,0.7411284446716309,0.3513455092906952,-0.37516775727272034
1789619983947743700,4.78974365234375,0.7163852453231812,0.30336812138557434,-0.3684057295322418
1789619983957717800,4.7997177734375,0.7056005597114563,0.2672532796859741,-0.38009220361709595
1789619983967690500,4.8096904296875,0.7358423471450806,0.2013126015663147,-0.3912593722343445
1789619983977664500,4.81966455078125,0.6824033260345459,0.13564997911453247,-0.36017337441444397
1789619983987637500,4.829637451171875,0.6184563040733337,0.08447493612766266,-0.3312714099884033
1789619983997611500,4.839611572265625,0.5563101172447205,0.05109966918826103,-0.3075256049633026
1789619984007584500,4.84958447265625,0.4927353858947754,0.020549217239022255,-0.2765924334526062
1789619984017558500,4.85955859375,0.40358981490135193,-0.05483528599143028,-0.23837395012378693
1789619984027531500,4.869531494140625,0.2996056079864502,-0.11774101108312607,-0.2125367671251297
1789619984037504800,4.8795048828125,0.2171514928340912,-0.10789264738559723,-0.19072841107845306
1789619984047478800,4.889478759765625,0.17266897857189178,-0.0923837274312973,-0.18620476126670837
1789619984057451500,4.899451416015625,0.09686768800020218,-0.06352811306715012,-0.17184126377105713
1789619984067425500,4.909425537109375,0.046654585748910904,-0.012399944476783276,-0.15858298540115356
1789619984077398500,4.9193984375,0.027153324335813522,0.05651653930544853,-0.14815883338451385
1789619984087372500,4.92937255859375,0.017345167696475983,0.08086369186639786,-0.14948056638240814
1789619984097345500,4.939345458984375,-0.020566526800394058,0.11010546237230301,-0.13990357518196106
1789619984107319600,4.949319580078125,-0.060139503329992294,0.12596271932125092,-0.11828243732452393
1789619984117292500,4.95929248046875,-0.10018812119960785,0.13749395310878754,-0.09323540329933167
1789619984127266600,4.9692666015625,-0.15980084240436554,0.14580248296260834,-0.05884014815092087
1789619984137239800,4.97923974609375,-0.21937043964862823,0.0897650420665741,-0.03338006138801575
1789619984147213600,4.989213623046875,-0.25948163866996765,0.050829093903303146,-0.00723527604714036
1789619984157186600,4.9991865234375,-0.31852099299430847,-0.0041518681682646275,0.010838799178600311
1789619984167160600,5.00916064453125,-0.36536145210266113,-0.07330004870891571,0.03389245271682739
1789619984177133600,5.019133544921875,-0.3780876398086548,-0.03477023169398308,0.08666618913412094
1789619984187107600,5.029107666015625,-0.39260134100914,-0.056524261832237244,0.1548452377319336
1789619984197080600,5.03908056640625,-0.4114264249801636,-0.10925165563821793,0.22914956510066986
1789619984207054600,5.0490546875,-0.42398297786712646,-0.1573672592639923,0.30025142431259155
1789619984217027600,5.059027587890625,-0.4228726923465729,-0.18297460675239563,0.35880982875823975
1789619984227001600,5.069001708984375,-0.42866772413253784,-0.18491046130657196,0.39853620529174805
1789619984236974600,5.078974609375,-0.43967458605766296,-0.20057064294815063,0.4105968475341797
1789619984246948600,5.088948486328125,-0.45090484619140625,-0.19639427959918976,0.40889430046081543
1789619984256921600,5.098921630859375,-0.45297813415527344,-0.1733909547328949,0.38527417182922363
1789619984266895600,5.1088955078125,-0.46641990542411804,-0.16490718722343445,0.3584955632686615
1789619984276868600,5.11886865234375,-0.49410560727119446,-0.15013250708580017,0.3269730508327484
1789619984286842600,5.128842529296875,-0.49784573912620544,-0.1403331458568573,0.3001196086406708
1789619984296815600,5.138815673828125,-0.4997086226940155,-0.15691718459129333,0.27282488346099854
1789619984306789600,5.14878955078125,-0.5038993954658508,-0.23616166412830353,0.2420983910560608
1789619984316762600,5.1587626953125,-0.5082829594612122,-0.31180769205093384,0.20905521512031555
1789619984326735600,5.168735595703125,-0.49620896577835083,-0.361552357673645,0.1591489017009735
1789619984336709400,5.17870947265625,-0.4971834123134613,-0.4041333496570587,0.08620679378509521
1789619984346682600,5.1886826171875,-0.508227527141571,-0.4649010896682739,0.012430837377905846
1789619984356656600,5.19865673828125,-0.5459789037704468,-0.518839418888092,-0.05246427282691002
1789619984366629400,5.20862939453125,-0.5759472250938416,-0.5309805274009705,-0.11765259504318237
1789619984376603400,5.218603271484375,-0.5815470218658447,-0.48261353373527527,-0.18503908812999725
1789619984386576100,5.228576171875,-0.570389986038208,-0.45677927136421204,-0.24410080909729004
1789619984396550100,5.238550048828125,-0.5803536772727966,-0.40862104296684265,-0.26812705397605896
1789619984406523100,5.248523193359375,-0.6025423407554626,-0.3611619174480438,-0.2708067297935486
1789619984416497200,5.2584970703125,-0.6466456055641174,-0.32894566655158997,-0.2662988007068634
1789619984426470400,5.268470458984375,-0.6821295619010925,-0.27680256962776184,-0.2673496901988983
1789619984436444200,5.278444091796875,-0.7015517354011536,-0.22924862802028656,-0.26685860753059387
1789619984446417400,5.28841748046875,-0.7227904200553894,-0.1830984503030777,-0.25545573234558105
1789619984456391400,5.298391357421875,-0.740369439125061,-0.1674124300479889,-0.2344343364238739
1789619984466364400,5.308364501953125,-0.7616294622421265,-0.17484717071056366,-0.21095937490463257
1789619984476338400,5.31833837890625,-0.7826647162437439,-0.2049824446439743,-0.19115157425403595
1789619984486311200,5.328311279296875,-0.8018929958343506,-0.26387932896614075,-0.1797569841146469
1789619984496285200,5.33828515625,-0.8105975389480591,-0.28615719079971313,-0.16937385499477386
1789619984506258200,5.348258056640625,-0.8189031481742859,-0.27931714057922363,-0.15964186191558838
1789619984516232200,5.358232177734375,-0.8149768114089966,-0.2970513701438904,-0.16149061918258667
1789619984526205200,5.368205078125,-0.8152886629104614,-0.31676170229911804,-0.17018212378025055
1789619984536179200,5.37817919921875,-0.8407413363456726,-0.3307720720767975,-0.17469218373298645
1789619984546152400,5.38815234375,-0.8566486239433289,-0.3965209722518921,-0.1764296293258667
1789619984556126500,5.39812646484375,-0.8795201182365417,-0.5210493206977844,-0.1635684221982956
1789619984566099500,5.408099365234375,-0.8680349588394165,-0.6042075753211975,-0.1559603065252304
1789619984576073200,5.4180732421875,-0.8476034998893738,-0.6595797538757324,-0.16043680906295776
1789619984586046200,5.428046142578125,-0.8452359437942505,-0.7141919136047363,-0.1762527972459793
1789619984596020200,5.438020263671875,-0.840796947479248,-0.7127470970153809,-0.19139578938484192
1789619984605993200,5.4479931640625,-0.8441144824028015,-0.6637704968452454,-0.1865922510623932
1789619984615967200,5.45796728515625,-0.8445629477500916,-0.590864360332489,-0.17513427138328552
1789619984625940200,5.467940185546875,-0.8713434338569641,-0.5114052295684814,-0.14991173148155212
1789619984635914200,5.477914306640625,-0.9054699540138245,-0.4464946687221527,-0.11809840798377991
1789619984645887500,5.487887451171875,-0.9339777827262878,-0.4111129641532898,-0.09544955939054489
1789619984655861500,5.497861572265625,-0.988064706325531,-0.3567512035369873,-0.06175337731838226
1789619984665834200,5.507834228515625,-0.9867525696754456,-0.3506983518600464,-0.05378706380724907
1789619984675808300,5.517808349609375,-0.9913321733474731,-0.3589578866958618,-0.050756387412548065
1789619984685781200,5.52778125,-1.0259703397750854,-0.29295358061790466,-0.040954358875751495
1789619984695755300,5.53775537109375,-1.0113465785980225,-0.24740473926067352,-0.0618540458381176
1789619984705728300,5.547728271484375,-1.0391353368759155,-0.12473234534263611,-0.07664630562067032
1789619984715702300,5.557702392578125,-1.0782511234283447,0.04594884812831879,-0.09006943553686142
1789619984725675300,5.56767529296875,-1.0538053512573242,0.0981215089559555,-0.13699567317962646
1789619984735649300,5.577649169921875,-1.075471043586731,0.12855876982212067,-0.1679714322090149
1789619984745622300,5.587622314453125,-1.1086981296539307,0.16553623974323273,-0.1633353978395462
1789619984755596300,5.59759619140625,-1.107977271080017,0.08904358744621277,-0.14708265662193298
1789619984765569300,5.6075693359375,-1.0836220979690552,-0.01721733622252941,-0.13565556704998016
1789619984775543300,5.617543212890625,-1.0802332162857056,-0.12423539906740189,-0.14569781720638275
1789619984785516300,5.627516357421875,-1.0908006429672241,-0.159314826130867,-0.1517122983932495
1789619984795490300,5.637490234375,-1.107468843460083,-0.1895156055688858,-0.15940643846988678
1789619984805463300,5.64746337890625,-1.127557396888733,-0.19438625872135162,-0.19619454443454742
1789619984815437300,5.657437255859375,-1.0404664278030396,-0.31498298048973083,-0.25636014342308044
1789619984825410300,5.667410400390625,-0.9871382117271423,-0.432839035987854,-0.2985544800758362
1789619984835384300,5.67738427734375,-0.9563717842102051,-0.4168909788131714,-0.3150396943092346
1789619984845357000,5.687357177734375,-0.9210201501846313,-0.34239888191223145,-0.3345145881175995
1789619984855331000,5.6973310546875,-0.9044446349143982,-0.2961405813694,-0.3327321410179138
1789619984865304300,5.70730419921875,-0.8999412655830383,-0.26716992259025574,-0.3099527955055237
1789619984875278300,5.7172783203125,-0.7840644717216492,-0.5028612613677979,-0.3469012379646301
1789619984885251300,5.727251220703125,-0.7547731399536133,-0.5835822224617004,-0.3425256609916687
1789619984895225300,5.737225341796875,-0.6760085225105286,-0.5658961534500122,-0.3211705684661865
1789619984905198300,5.7471982421875,-0.5959331393241882,-0.5544829368591309,-0.2606944441795349
1789619984915172400,5.75717236328125,-0.4975684881210327,-0.5018556714057922,-0.1716385930776596
1789619984925145300,5.767145263671875,-0.4242309033870697,-0.4045725166797638,-0.09457231312990189
1789619984935119400,5.777119384765625,-0.3404308259487152,-0.2668612599372864,-0.0022836606949567795
1789619984945092000,5.787092041015625,-0.25419846177101135,-0.12643463909626007,0.09046625345945358
1789619984955066000,5.797066162109375,-0.23589880764484406,0.11409088224172592,0.1639990508556366
1789619984965040000,5.8070400390625,-0.1039772629737854,0.1822132170200348,0.1418897658586502
1789619984975013400,5.817013427734375,-0.06408151239156723,0.21414850652217865,0.16625502705574036
1789619984984987100,5.826987060546875,-0.023726634681224823,0.26930445432662964,0.18229736387729645
1789619984994960400,5.83696044921875,-0.02834721840918064,0.2714666724205017,0.15167927742004395
1789619985004934400,5.846934326171875,-0.012027367949485779,0.2566397786140442,0.1616152673959732
1789619985014907400,5.856907470703125,0.004288488067686558,0.25436463952064514,0.23584288358688354
1789619985024881400,5.86688134765625,0.055509597063064575,0.2553441524505615,0.3057663142681122
1789619985034854100,5.876854248046875,0.07648465782403946,0.3623906970024109,0.3470173478126526
1789619985044828200,5.886828125,0.1887001395225525,0.2941288352012634,0.3284897208213806
1789619985054801200,5.89680126953125,0.2343943864107132,0.28253716230392456,0.344077467918396
1789619985064775200,5.906775146484375,0.2726767957210541,0.3178682327270508,0.3593355417251587
1789619985074748200,5.916748046875,0.29497572779655457,0.33807870745658875,0.3928823173046112
1789619985084722200,5.92672216796875,0.3013332188129425,0.37425294518470764,0.42232462763786316
1789619985094695400,5.9366953125,0.3111128807067871,0.4623090624809265,0.44761478900909424
1789619985104669400,5.94666943359375,0.3538539409637451,0.5398933291435242,0.48584499955177307
1789619985114642400,5.956642333984375,0.4264783561229706,0.5874504446983337,0.5099641680717468
1789619985124616400,5.966616455078125,0.5196874141693115,0.6396777033805847,0.5053004622459412
1789619985134589200,5.976589111328125,0.6338573694229126,0.688222348690033,0.4803418517112732
1789619985144563200,5.986563232421875,0.7501142024993896,0.676646888256073,0.44346532225608826
1789619985154536200,5.9965361328125,0.8606827855110168,0.6332051753997803,0.40545350313186646
1789619985164510200,6.00651025390625,0.9606807827949524,0.6032054424285889,0.3665074110031128
1789619985174483200,6.016483154296875,1.042922854423523,0.5396331548690796,0.32474344968795776
1789619985184457200,6.026457275390625,1.1233652830123901,0.4717816412448883,0.3051567077636719
1789619985194430500,6.036430419921875,1.1994765996932983,0.4350374937057495,0.2856583893299103
1789619985204404500,6.046404541015625,1.2646111249923706,0.4317109286785126,0.2601567506790161
1789619985214377500,6.05637744140625,1.3075731992721558,0.4115161895751953,0.22767524421215057
1789619985224351200,6.066351318359375,1.3377100229263306,0.42660218477249146,0.20609989762306213
1789619985234324200,6.07632421875,1.3746153116226196,0.47687387466430664,0.1807764321565628
1789619985244298200,6.08629833984375,1.4055445194244385,0.5196160078048706,0.1618693321943283
1789619985254271200,6.096271240234375,1.4269325733184814,0.5380176305770874,0.14610260725021362
1789619985264245200,6.106245361328125,1.453989028930664,0.5250680446624756,0.13148505985736847
1789619985274219300,6.11621923828125,1.479029893875122,0.5241529941558838,0.13189305365085602
1789619985284192300,6.126192138671875,1.489047884941101,0.563973069190979,0.1260564625263214
1789619985294166300,6.136166259765625,1.4793859720230103,0.6326019763946533,0.10329336673021317
1789619985304139300,6.14613916015625,1.4773592948913574,0.686127245426178,0.08332738280296326
1789619985314113300,6.15611328125,1.4914172887802124,0.7281556129455566,0.06654547154903412
1789619985324086300,6.166086181640625,1.4972171783447266,0.7506212592124939,0.05896931141614914
1789619985334060300,6.176060302734375,1.4807215929031372,0.6848955154418945,0.028355741873383522
1789619985344033300,6.186033203125,1.482415795326233,0.7808486819267273,0.0127570740878582
1789619985354007300,6.19600732421875,1.4715626239776611,0.911925196647644,-0.02503691054880619
1789619985363980300,6.205980224609375,1.422473669052124,0.9427358508110046,-0.10800156742334366
1789619985373953800,6.215953857421875,1.3620647192001343,0.8633422255516052,-0.16901884973049164
1789619985383926800,6.2259267578125,1.3149226903915405,0.7771684527397156,-0.20089448988437653
1789619985393900800,6.23590087890625,1.2826670408248901,0.7597556710243225,-0.22784195840358734
1789619985403874000,6.2458740234375,1.253836989402771,0.7143873572349548,-0.26386067271232605
1789619985413847800,6.255847900390625,1.2253848314285278,0.6177332401275635,-0.30631279945373535
1789619985423821000,6.265821044921875,1.205710768699646,0.5319831967353821,-0.36916500329971313
1789619985433795000,6.275795166015625,1.1998398303985596,0.5087889432907104,-0.4006614089012146
1789619985443768000,6.28576806640625,1.1828917264938354,0.4938001334667206,-0.42394647002220154
1789619985453742000,6.2957421875,1.157214879989624,0.4175751209259033,-0.43230560421943665
1789619985463714800,6.30571484375,1.1388531923294067,0.33283522725105286,-0.43373173475265503
1789619985473688800,6.315688720703125,1.1322932243347168,0.29032236337661743,-0.4236937463283539
1789619985483661800,6.325661865234375,1.1310548782348633,0.2506292760372162,-0.3977138102054596
1789619985493635800,6.3356357421875,1.1015068292617798,0.21539247035980225,-0.35943618416786194
1789619985503608800,6.34560888671875,1.0650156736373901,0.1951702982187271,-0.3478349447250366
1789619985513582800,6.355582763671875,1.0481024980545044,0.19156597554683685,-0.35671499371528625
1789619985523556900,6.365556884765625,1.0044960975646973,0.2204841673374176,-0.3317422568798065
1789619985533530000,6.375530029296875,0.9523738026618958,0.2006140649318695,-0.3221559226512909
1789619985543504000,6.38550390625,0.9178392887115479,0.13403263688087463,-0.3204539120197296
1789619985553476900,6.395476806640625,0.8599885106086731,0.08090630173683167,-0.286578506231308
1789619985563451000,6.405450927734375,0.7945663332939148,0.06420508772134781,-0.2726954519748688
1789619985573423900,6.415423828125,0.7277524471282959,0.05672852694988251,-0.25615641474723816
1789619985583398000,6.42539794921875,0.6717405915260315,0.029351497069001198,-0.26440316438674927
1789619985593371000,6.435370849609375,0.5955147743225098,-0.03111450932919979,-0.2481195330619812
1789619985603345000,6.445344970703125,0.527653157711029,-0.06896388530731201,-0.21822021901607513
1789619985613318000,6.45531787109375,0.45326468348503113,-0.11208818852901459,-0.18279431760311127
1789619985623292000,6.4652919921875,0.38522279262542725,-0.19735807180404663,-0.14865392446517944
1789619985633265000,6.475264892578125,0.3215987980365753,-0.25877004861831665,-0.10521750152111053
1789619985643239000,6.485239013671875,0.23718245327472687,-0.295884370803833,-0.06511588394641876
1789619985653212000,6.4952119140625,0.19201551377773285,-0.29320046305656433,-0.037513021379709244
1789619985663186000,6.50518603515625,0.12225214391946793,-0.25012701749801636,-0.005854959599673748
1789619985673159000,6.515158935546875,0.08199366927146912,-0.24722176790237427,0.014581605792045593
1789620059969505000,80.81150512695312,-0.19594314694404602,-0.0006255765329115093,-0.24137747287750244
1789620059979478000,80.82147802734374,-0.16104188561439514,-0.03158482536673546,-0.2780071198940277
1789620059989450000,80.83144995117188,-0.12189368158578873,0.03681261092424393,-0.25973623991012573
1789620059999422000,80.841421875,-0.08083385974168777,-0.002150768879801035,-0.22005273401737213
1789620060009395200,80.85139526367188,-0.03797561302781105,-0.15230591595172882,-0.1790669560432434
1789620060019367000,80.86136694335937,0.00660597113892436,-0.3162791430950165,-0.14884966611862183
1789620060029339100,80.87133911132813,0.07067177444696426,-0.3639979362487793,-0.12262525409460068
1789620060039312100,80.88131201171875,0.1479758769273758,-0.29011037945747375,-0.11257341504096985
1789620060049284000,80.8912841796875,0.22871945798397064,-0.153860405087471,-0.09410306066274643
1789620060059256000,80.90125610351562,0.29830440878868103,-0.06036986783146858,-0.04699307680130005
1789620060069229000,80.91122900390624,0.33339792490005493,-0.039433158934116364,0.014822355471551418
1789620060079201000,80.92120092773438,0.3308205306529999,-0.05939381942152977,0.09467590600252151
1789620060089173000,80.93117309570313,0.3047947883605957,-0.08445842564105988,0.1881432682275772
1789620060099146200,80.94114624023437,0.27246907353401184,-0.10291945934295654,0.28537821769714355
1789620060109118000,80.95111791992187,0.2507515251636505,-0.10645373910665512,0.36245274543762207
1789620060119090200,80.96109008789062,0.23487669229507446,-0.07290030270814896,0.41097769141197205
1789620060129063200,80.97106323242187,0.22222134470939636,-0.012225240468978882,0.42993593215942383
1789620060139035000,80.98103491210938,0.19783584773540497,0.039210520684719086,0.4240109324455261
1789620060149007000,80.99100708007812,0.1537083387374878,0.08080137521028519,0.39409804344177246
1789620060158980000,81.00097998046876,0.09134376049041748,0.1395307332277298,0.33035874366760254
1789620060168952000,81.0109521484375,0.03129453957080841,0.19619640707969666,0.23903068900108337
1789620060178924000,81.02092407226563,-0.015141935087740421,0.2295578271150589,0.13714800775051117
1789620060188897000,81.03089697265625,-0.03375450149178505,0.23295655846595764,0.039261117577552795
1789620060198869000,81.04086889648437,-0.023486416786909103,0.20561307668685913,-0.062066834419965744
1789620060208841000,81.05084106445312,0.0027838023379445076,0.1623268574476242,-0.1508646160364151
1789620060218814200,81.06081420898437,0.040402017533779144,0.12818700075149536,-0.22100988030433655
1789620060228786000,81.07078588867188,0.07389020174741745,0.12412673979997635,-0.2734091579914093
1789620060238758100,81.08075805664062,0.08849391341209412,0.14061570167541504,-0.30569466948509216
1789620060248731100,81.09073120117188,0.0893852710723877,0.13930995762348175,-0.3178922235965729
1789620060258703000,81.100703125,0.08980897814035416,0.12456216663122177,-0.31279200315475464
1789620060268675000,81.11067504882813,0.10081342607736588,0.10882901400327682,-0.28745654225349426
1789620060278648000,81.12064794921875,0.13849236071109772,0.1154986321926117,-0.23591744899749756
1789620060288620000,81.1306201171875,0.1917601078748703,0.14571885764598846,-0.14681048691272736
1789620060298592000,81.14059204101562,0.2387545257806778,0.16668644547462463,-0.031325966119766235
1789620060308565200,81.15056518554688,0.2669805586338043,0.1488531231880188,0.09268466383218765
1789620060318537000,81.16053686523438,0.28192463517189026,0.10656479001045227,0.2169211208820343
1789620060328509200,81.17050927734375,0.2776864767074585,0.08009643107652664,0.33475613594055176
1789620060338482200,81.18048217773438,0.25413721799850464,0.06718063354492188,0.4280080795288086
1789620060348454000,81.19045385742187,0.21775789558887482,0.04963146895170212,0.4777204990386963
1789620060358426000,81.20042602539063,0.17934605479240417,0.02756611444056034,0.48272910714149475
1789620060368399000,81.21039916992187,0.1369170993566513,0.024522919207811356,0.4472435414791107
1789620060378371000,81.22037109375,0.08221417665481567,0.03526477888226509,0.3863532841205597
1789620060388343000,81.23034301757812,0.01125132292509079,0.07394026964902878,0.3038664162158966
1789620060398316000,81.24031591796874,-0.04020813852548599,0.10835576802492142,0.1964736431837082
1789620060408288000,81.2502880859375,-0.07876698672771454,0.1069437637925148,0.06514917314052582
1789620060418260200,81.26026025390625,-0.10707824677228928,0.11034861207008362,-0.062065236270427704
1789620060428233200,81.27023315429688,-0.12031815201044083,0.13530296087265015,-0.16799353063106537
1789620060438205200,81.280205078125,-0.09977772831916809,0.17166203260421753,-0.26412299275398254
1789620060448177200,81.29017724609375,-0.06804908812046051,0.16807661950588226,-0.3470607399940491
1789620060458150100,81.30015014648437,-0.05000058189034462,0.13685904443264008,-0.4054920971393585
1789620060468122400,81.31012231445312,-0.05180700495839119,0.10845110565423965,-0.41616445779800415
1789620060478094000,81.32009399414062,-0.06162554770708084,0.09731776267290115,-0.37620532512664795
1789620060488067000,81.33006713867188,-0.0629560649394989,0.09439893811941147,-0.2960633635520935
1789620060498039300,81.34003930664062,-0.04006113484501839,0.061285194009542465,-0.20384420454502106
1789620060508011000,81.35001098632813,0.003034672001376748,0.015168566256761551,-0.1258905529975891
1789620060517984300,81.359984375,0.06754601746797562,-0.025300029665231705,-0.06862033903598785
1789620060527956200,81.36995629882813,0.14424718916416168,-0.04048750549554825,-0.023441942408680916
1789620060537928200,81.37992822265625,0.2056724727153778,-0.018880747258663177,0.014592258259654045
1789620060547901200,81.38990112304687,0.24925456941127777,0.028421521186828613,0.050810448825359344
1789620060557873200,81.399873046875,0.2727369964122772,0.06469430774450302,0.09177972376346588
1789620060567845000,81.40984521484376,0.2681044340133667,0.07657307386398315,0.1398066282272339
1789620060577818000,81.41981811523438,0.22011186182498932,0.04379621520638466,0.17664667963981628
1789620060587790300,81.42979028320312,0.15151362121105194,-0.001651692553423345,0.20104415714740753
1789620060597762000,81.43976196289063,0.09163936972618103,-0.016988836228847504,0.20052164793014526
1789620060607735000,81.44973510742187,0.04319780319929123,-0.005264270585030317,0.17548500001430511
1789620060617707300,81.45970727539063,0.00726377172395587,0.024938106536865234,0.13142512738704681
1789620060627679200,81.46967919921875,-0.015970177948474884,0.07184862345457077,0.07685989141464233
1789620060637652200,81.47965234375,-0.02618579752743244,0.12308651208877563,0.025729864835739136
1789620060647624200,81.48962426757812,-0.041432660073041916,0.15227581560611725,-0.017831727862358093
1789620060657596200,81.49959619140625,-0.06315180659294128,0.1492728441953659,-0.048951830714941025
1789620060667569200,81.50956909179688,-0.08242136985063553,0.15181349217891693,-0.07091598212718964
1789620060677541400,81.51954125976563,-0.0998283252120018,0.14380031824111938,-0.08382991701364517
1789620060687513000,81.52951318359375,-0.1237373873591423,0.10274981707334518,-0.10142995417118073
1789620060697486000,81.53948608398437,-0.15282683074474335,0.012023107148706913,-0.13586463034152985
1789620060707458300,81.54945825195313,-0.18234504759311676,-0.10092394798994064,-0.21333225071430206
1789620060717430000,81.55942993164062,-0.18083582818508148,-0.1600586473941803,-0.3351718783378601
1789620060727403300,81.5694033203125,-0.15181322395801544,-0.11159603297710419,-0.47620490193367004
1789620060737375200,81.57937524414062,-0.10157163441181183,0.01589294709265232,-0.6023801565170288
1789620060747347200,81.58934716796875,-0.03169960528612137,0.17197522521018982,-0.6788110136985779
1789620060757319200,81.59931909179687,0.05271460860967636,0.29135701060295105,-0.6764476895332336
1789620060767292200,81.60929223632813,0.1393277943134308,0.336978554725647,-0.5941754579544067
1789620060777264000,81.61926416015625,0.21943329274654388,0.29174530506134033,-0.45820486545562744
1789620060787236000,81.62923608398438,0.29140201210975647,0.17476195096969604,-0.2933999300003052
1789620060797209300,81.63920922851563,0.34750309586524963,0.026371153071522713,-0.1200193464756012
1789620060807181000,81.64918115234374,0.3908761441707611,-0.13367310166358948,0.03280694782733917
1789620060817153300,81.6591533203125,0.41946330666542053,-0.2625003159046173,0.14381656050682068
1789620060827126300,81.66912622070312,0.4263837933540344,-0.33588746190071106,0.20232674479484558
1789620060837098200,81.67909814453125,0.3987332582473755,-0.36982759833335876,0.21332505345344543
1789620060847070200,81.6890703125,0.34765464067459106,-0.3282093107700348,0.18820533156394958
1789620060857043200,81.69904321289063,0.2972162365913391,-0.18447023630142212,0.11973518878221512
1789620060867015200,81.70901513671875,0.2441631406545639,-0.001116130850277841,0.02460521087050438
1789620060876987100,81.71898706054688,0.1686321645975113,0.15775208175182343,-0.07717068493366241
1789620060886960400,81.72896044921875,0.07644923776388168,0.2628990113735199,-0.17403118312358856
1789620060896932000,81.73893212890626,-0.001210939371958375,0.31399574875831604,-0.2676660716533661
1789620060906904300,81.748904296875,-0.04881547763943672,0.3359606862068176,-0.3551202714443207
1789620060916877300,81.75887719726562,-0.07359166443347931,0.32466036081314087,-0.42582374811172485
1789620060926849000,81.76884912109375,-0.07577172666788101,0.28004923462867737,-0.47923344373703003
1789620060936821200,81.7788212890625,-0.05354924499988556,0.2417316734790802,-0.5078136920928955
1789620060946794200,81.78879418945313,-0.013846040703356266,0.22762863337993622,-0.5081138014793396
1789620060956766200,81.79876611328125,0.03984754905104637,0.2273961454629898,-0.48936304450035095
1789620060966738200,81.80873828125,0.09635689854621887,0.2337310016155243,-0.44902145862579346
1789620060976711200,81.81871118164062,0.15723435580730438,0.23431822657585144,-0.38814106583595276
1789620060986683100,81.82868310546876,0.2190106362104416,0.22853544354438782,-0.312547504901886
1789620060996655000,81.83865502929687,0.2711247205734253,0.2166966199874878,-0.2287500947713852
1789620061006628400,81.84862841796875,0.3232116103172302,0.18936273455619812,-0.1409430056810379
1789620061016600000,81.85860009765625,0.3678903877735138,0.16281874477863312,-0.050750527530908585
1789620061026572300,81.868572265625,0.4008062779903412,0.1545858532190323,0.042154643684625626
1789620061036545300,81.87854516601563,0.4142589569091797,0.17396514117717743,0.13180570304393768
1789620061046517200,81.88851733398438,0.4018286466598511,0.20659658312797546,0.21237698197364807
1789620061056489200,81.8984892578125,0.37094131112098694,0.22090281546115875,0.26768577098846436
1789620061066462200,81.90846215820312,0.3167153596878052,0.20511853694915771,0.2925911247730255
1789620061076434200,81.91843408203125,0.2523787319660187,0.1770019382238388,0.2914193272590637
1789620061086406100,81.92840625,0.18294718861579895,0.17810767889022827,0.26850762963294983
1789620061096379400,81.93837939453125,0.11405067145824432,0.212459534406662,0.22072865068912506
1789620061106351000,81.94835107421875,0.058097392320632935,0.2912917733192444,0.1579613983631134
1789620061116323300,81.9583232421875,0.018070081248879433,0.3733554780483246,0.08389569818973541
1789620061126295000,81.968294921875,-0.010512029752135277,0.39249932765960693,0.0017869811272248626
1789620061136268000,81.97826806640624,-0.03134700283408165,0.34541866183280945,-0.07896432280540466
1789620061146240300,81.988240234375,-0.04026592895388603,0.2667853534221649,-0.147269606590271
1789620061156213000,81.998212890625,-0.03592843934893608,0.2046373039484024,-0.19621771574020386
1789620061166185200,82.00818530273438,-0.01830097660422325,0.188828244805336,-0.22220776975154877
1789620061176157200,82.0181572265625,-0.0035902075469493866,0.21352213621139526,-0.21889398992061615
1789620061186130000,82.0281298828125,0.008688030764460564,0.2535449266433716,-0.1993035227060318
1789620061196102100,82.03810205078125,0.019714582711458206,0.27497562766075134,-0.17725041508674622
1789620061206074000,82.04807421875,0.03628131002187729,0.2636694610118866,-0.16477909684181213
1789620061216046000,82.05804614257812,0.06885949522256851,0.2319490760564804,-0.16427496075630188
1789620061226019000,82.06801904296876,0.11591381579637527,0.21103501319885254,-0.16069327294826508
1789620061235991300,82.0779912109375,0.17066948115825653,0.21477381885051727,-0.13559165596961975
1789620061245963000,82.087962890625,0.22886326909065247,0.22289593517780304,-0.08769070357084274
1789620061255936300,82.09793627929687,0.28077414631843567,0.21721087396144867,-0.024380439892411232
1789620061265908200,82.107908203125,0.3171963393688202,0.19899138808250427,0.053337257355451584
1789620061275880200,82.11788012695312,0.3328604996204376,0.16791710257530212,0.14285941421985626
1789620061285853200,82.12785327148437,0.32958322763442993,0.13497193157672882,0.23891137540340424
1789620061295825200,82.1378251953125,0.30340835452079773,0.10130717605352402,0.3297499418258667
1789620061305797000,82.14779711914062,0.26133838295936584,0.058829762041568756,0.396373987197876
1789620061315770000,82.15777001953126,0.21366249024868011,0.0008578042034059763,0.4216447174549103
1789620061325742300,82.16774243164062,0.1578167974948883,-0.04283960908651352,0.4030076563358307
1789620061335714000,82.17771411132813,0.09538590908050537,-0.04805514216423035,0.3445536494255066
1789620061345687000,82.18768701171875,0.028370654210448265,-0.015146994963288307,0.2499469816684723
1789620061355659300,82.1976591796875,-0.038172684609889984,0.04596376419067383,0.11891040951013565
1789620061365631000,82.207630859375,-0.09817396849393845,0.10795789211988449,-0.03406715765595436
1789620061375604200,82.21760424804687,-0.14937616884708405,0.14955593645572662,-0.19205492734909058
1789620061385576200,82.227576171875,-0.18327821791172028,0.17004816234111786,-0.3324325382709503
1789620061395548200,82.23754809570312,-0.19661292433738708,0.1817447692155838,-0.4384247660636902
1789620061405521200,82.24752124023438,-0.18850013613700867,0.2060873806476593,-0.5046610236167908
1789620061415493400,82.25749340820313,-0.16176466643810272,0.23560214042663574,-0.5318066477775574
1789620061425465000,82.26746508789063,-0.1339990794658661,0.24924764037132263,-0.5106310248374939
1789620061435438000,82.27743798828125,-0.1017194390296936,0.24557247757911682,-0.4459654986858368
1789620061445410300,82.28741040039063,-0.06713003665208817,0.21902289986610413,-0.34553050994873047
1789620061455382300,82.29738232421874,-0.034801121801137924,0.1730378270149231,-0.21791236102581024
1789620061465355500,82.30735546875,-0.0008639294537715614,0.1317066252231598,-0.076341912150383
1789620061475327200,82.3173271484375,0.036006469279527664,0.11343841254711151,0.05458015576004982
1789620061485299500,82.32729956054688,0.07826124876737595,0.10136337578296661,0.15485456585884094
1789620061495272400,82.3372724609375,0.10562203079462051,0.08832080662250519,0.22384348511695862
1789620061505244200,82.347244140625,0.10836748778820038,0.08149885386228561,0.27060672640800476
1789620061515216400,82.35721630859375,0.0856001228094101,0.07936619222164154,0.3041095435619354
1789620061525189400,82.367189453125,0.05261500924825668,0.08511915802955627,0.31812232732772827
1789620061535161300,82.37716137695313,0.03014751523733139,0.10842234641313553,0.3080507814884186
1789620061545133300,82.38713330078124,0.0035808864049613476,0.14215314388275146,0.2840666174888611
1789620061555106300,82.39710620117188,-0.022529277950525284,0.17804376780986786,0.24614772200584412
1789620061565078300,82.40707836914062,-0.04240311682224274,0.1941167414188385,0.1890450268983841
1789620061575050200,82.41705029296875,-0.06423012167215347,0.19084079563617706,0.12426016479730606
1789620061585023500,82.4270234375,-0.08575884997844696,0.18595574796199799,0.05730190500617027
1789620061594995200,82.4369951171875,-0.11403389275074005,0.17479684948921204,-0.008783637546002865
1789620061604967400,82.44696752929687,-0.14113955199718475,0.16376124322414398,-0.07935287803411484
1789620061614940400,82.4569404296875,-0.1517072319984436,0.16260835528373718,-0.15072906017303467
1789620061624912400,82.46691235351562,-0.15482047200202942,0.1650344878435135,-0.19487574696540833
1789620061634884400,82.47688427734376,-0.1506534218788147,0.165165513753891,-0.20405885577201843
1789620061644857000,82.48685717773438,-0.1253533959388733,0.19080376625061035,-0.1919206976890564
1789620061654829300,82.49682934570312,-0.08601317554712296,0.23213337361812592,-0.17249880731105804
1789620061664802300,82.50680224609376,-0.04793636500835419,0.24789102375507355,-0.1503964215517044
1789620061674774300,82.51677416992187,-0.018162226304411888,0.23250487446784973,-0.12042760848999023
1789620061684746200,82.52674633789063,0.007289072033017874,0.1719278246164322,-0.09210089594125748
1789620061694719200,82.53671923828125,0.04301218315958977,0.10434291511774063,-0.06126309186220169
1789620061704691200,82.54669116210937,0.09195096045732498,0.07207978516817093,-0.03015071153640747
1789620061714663200,82.5566630859375,0.1383373737335205,0.08515696972608566,0.011776232160627842
1789620061724636400,82.56663647460938,0.16273857653141022,0.12009444832801819,0.07262786477804184
1789620061734608100,82.57660815429688,0.1636941283941269,0.155096635222435,0.14294090867042542
1789620061744580400,82.58658032226562,0.14985740184783936,0.17545944452285767,0.2011978179216385
1789620061754553300,82.59655322265625,0.14274010062217712,0.20037144422531128,0.2529933750629425
1789620061764525000,82.60652514648437,0.12407294660806656,0.2363201230764389,0.31871166825294495
1789620061774497300,82.61649731445313,0.09941420704126358,0.27641135454177856,0.3969116806983948
1789620061784470300,82.62647021484375,0.07231973856687546,0.32697200775146484,0.5437591671943665
1789620061794442200,82.63644213867188,0.06029476597905159,0.20507964491844177,0.6200262308120728
1789620061804414200,82.64641430664062,0.071962870657444,0.050992876291275024,0.6431128978729248
1789620061814387200,82.65638720703124,0.07559569180011749,-0.08123626559972763,0.6084793210029602
1789620061824359200,82.66635913085938,0.0730622261762619,-0.1456722468137741,0.49897757172584534
1789620061834331400,82.67633129882813,0.06149345263838768,-0.14985980093479156,0.31709885597229004
1789620061844304400,82.68630444335938,0.032226912677288055,-0.10677172243595123,0.0847545713186264
1789620061854276000,82.69627612304687,-0.020061058923602104,0.012043879367411137,-0.15299727022647858
1789620061864248300,82.70624829101563,-0.10910598188638687,0.17460669577121735,-0.35936108231544495
1789620061874221300,82.71622119140625,-0.1848718523979187,0.3170756995677948,-0.46865829825401306
1789620061884193300,82.726193359375,-0.21558715403079987,0.43481138348579407,-0.5431320071220398
1789620061894165200,82.73616528320312,-0.219839945435524,0.3944021761417389,-0.5844109654426575
