time,seconds_elapsed,z,y,x
1789799203292710000,0.0457099609375,7.473799757385254,6.357652870941162,0.3890577697753906
1789799203302681600,0.055681640625,7.680000375366211,6.341043096923828,0.5232827003479004
1789799203312653800,0.06565380859375,7.404218271636963,6.328623175811767,0.7802104660034179
1789799203322626800,0.075626708984375,6.996006888580322,6.409427481842041,1.0634744499206543
1789799203332598800,0.085598876953125,6.323236222076416,6.3621419990539545,0.9178770614624023
1789799203342570800,0.09557080078125,5.951237139129638,5.850680669403076,0.07781155395507812
1789799203352542700,0.105542724609375,5.964105973052978,5.19032992401123,-0.5940612869262695
1789799203362514700,0.1155146484375,5.717203926849365,5.589712688446045,-0.16445172653198242
1789799203372487000,0.12548681640625,5.116708222961425,5.859359650421142,0.5746083984375
1789799203382458600,0.135458740234375,5.026925660705566,6.140229432678222,1.0322001907348632
1789799203392430800,0.145430908203125,5.14528900527954,6.4092778442382805,1.4636054023742675
1789799203402403800,0.15540380859375,5.444564212799072,6.532728867340087,1.792059942626953
1789799203412375800,0.165375732421875,6.0619689659118645,6.5038488098144525,1.8894740226745603
1789799203422347800,0.17534765625,6.719626234436035,6.3627405494689935,1.7525556152343749
1789799203432319700,0.18531982421875,7.728632596588135,6.5494882789611815,1.0999860252380371
1789799203442291700,0.195291748046875,8.293664188385009,6.472424913024902,0.6123170745849609
1789799203452264000,0.205263916015625,8.40170253829956,6.28223551864624,0.4644751220703125
1789799203462235600,0.215235595703125,8.40215145111084,6.156091018676757,0.43664252777099605
1789799203472208000,0.225207763671875,8.253561310577393,6.133046827697753,0.33309330596923825
1789799203482180900,0.235180908203125,8.054244022369383,6.284031169891357,0.21353286056518553
1789799203492152600,0.245152587890625,8.07624075012207,6.555922695922852,-0.05731120223999023
1789799203502124800,0.255124755859375,8.23590407333374,6.835745014953613,-0.4608838195800781
1789799203512096800,0.2650966796875,8.108861747741699,6.87584789276123,-0.8203133438110352
1789799203522068700,0.27506884765625,7.71860687713623,6.71648384475708,-1.0895113929748534
1789799203532041000,0.285041015625,7.216123803710937,6.495020191192626,-1.4000094207763671
1789799203542012700,0.2950126953125,6.698078419494628,6.2784945785522455,-1.912069300842285
1789799203551985700,0.304985595703125,6.136338854980468,5.95662409286499,-2.5303718795776367
1789799203561958000,0.3149580078125,5.6389434600830075,5.427655163574219,-2.971802810668945
1789799203571929600,0.3249296875,5.3305403587341305,4.288314448547363,-2.3970447746276853
1789799203581901800,0.33490185546875,6.2681695838928215,4.66091208190918,-1.6771382629394531
1789799203591873500,0.34487353515625,7.936628865814209,5.330241083526611,-1.5480010108947753
1789799203601845800,0.354845703125,8.617779238128662,4.342782536315918,-2.0419547409057617
1789799203611817700,0.364817626953125,9.073126466369628,3.63888724822998,-1.7669208251953124
1789799203621789700,0.374789794921875,10.096946951293944,4.315249217224121,-1.6508020446777343
1789799203631762700,0.3847626953125,10.439766701507567,4.975450325012207,-1.5825672973632812
1789799203641735000,0.39473486328125,10.261548315429687,5.325751955413818,-1.6069582267761229
1789799203651706600,0.40470654296875,9.575010989379882,5.495740273284912,-1.9327192901611328
1789799203661678800,0.414678955078125,8.121580944061279,6.0610711402893065,-2.682104409790039
1789799203671650600,0.424650634765625,6.118382342529297,7.031919913482666,-3.8290766426086424
1789799203681622800,0.434622802734375,5.219209981536865,7.3843164703369135,-4.817433015441894
1789799203691594800,0.4445947265625,5.416432343292236,6.783820766448974,-5.112368732452392
1789799203701566700,0.454566650390625,5.684283654022217,5.882104566192627,-5.0014872680664055
1789799203711539700,0.464539794921875,6.3435869361877435,5.022885445404053,-4.642357019042969
1789799203721512000,0.474511962890625,7.670573206329346,4.592826972198486,-3.936516442108154
1789799203731483600,0.484483642578125,9.734225399780273,4.741417112731933,-2.897133646392822
1789799203741456000,0.494455810546875,10.715099892425537,4.9090112289428705,-1.9170073417663573
1789799203751427600,0.504427490234375,10.761786824798584,5.163245517730712,-1.0947487091064452
1789799203761399800,0.51439990234375,9.469666116333007,5.3567269393920895,-0.2946364418029785
1789799203771371800,0.524371826171875,8.895506630706787,5.5415293800354,0.1854009910583496
1789799203781343700,0.53434375,9.216030377960205,5.831826331329346,0.25348610076904293
1789799203791316700,0.544316650390625,9.105597826385498,5.83526799621582,0.20440496673583983
1789799203801289000,0.5542890625,8.793004872131347,5.89886397781372,0.21996727752685546
1789799203811260700,0.5642607421875,8.60550895462036,6.031592532348633,0.26351182022094727
1789799203821233000,0.57423291015625,8.665663271331786,6.018125148010253,0.48811786346435543
1789799203831204600,0.58420458984375,8.70830998840332,5.854720884704589,0.8053495834350586
1789799203841176800,0.5941767578125,8.662371244049071,5.753116951751709,0.8586205703735351
1789799203851148800,0.604148681640625,8.12173058166504,5.985504150390625,0.6602011077880859
1789799203861120800,0.614120849609375,7.805396687316894,5.945550910186768,0.5472247169494628
1789799203871092700,0.6240927734375,7.408707399749756,5.740547393035889,0.5252279891967773
1789799203881065700,0.634065673828125,7.0078282592773435,5.955726267242431,0.45025954971313475
1789799203891037700,0.64403759765625,6.7271081146240235,6.05209288406372,0.5686228942871093
1789799203901010000,0.654010009765625,6.854898628234863,5.880757827758789,0.86191259765625
1789799203910981600,0.663981689453125,7.091176404571533,5.790227077484131,1.146672957611084
1789799203920953900,0.673953857421875,7.195623451995849,5.893177748870849,1.3166612754821776
1789799203930925800,0.68392578125,7.388655960845947,6.019920799255371,1.3441945945739746
1789799203940897800,0.693897705078125,7.693467759704589,5.995230594635009,1.3150152618408202
1789799203950869800,0.703869873046875,7.838616235351562,5.997624796295166,1.2892775939941405
1789799203960842800,0.7138427734375,7.899967652893066,6.185120713806152,1.1333552108764648
1789799203970814700,0.723814697265625,7.766939823150635,6.49891076889038,1.0547954689025878
1789799203980786700,0.73378662109375,7.522581616210937,6.7274073898315425,1.2277765388488768
1789799203990758700,0.743758544921875,7.320121938323974,6.769006643676757,1.636885747528076
1789799204000731000,0.75373095703125,7.238270169067382,6.77993018875122,2.0192098251342774
1789799204010702800,0.763702880859375,7.513154447174072,6.789058082580566,2.1531354804992673
1789799204020674800,0.7736748046875,7.931690824890136,6.630142947387695,1.9384055191040037
1789799204030646800,0.783646728515625,8.156596143341064,6.351966641998291,1.5753846923828123
1789799204040619800,0.793619873046875,8.053346196746826,6.176292095184325,1.3037924415588378
1789799204050591700,0.803591796875,7.8058456001281735,6.136039579772949,1.271021806335449
1789799204060563700,0.813563720703125,7.61670366897583,6.178536659240723,1.3808558074951172
1789799204070535700,0.82353564453125,7.502829452514648,6.303633695983886,1.6514005950927733
1789799204080507600,0.833507568359375,7.574206589508056,6.438606814575195,1.9850924514770507
1789799204090479900,0.84347998046875,7.5899185379028316,6.469581798553467,2.035370686340332
1789799204100451600,0.85345166015625,7.507168943023681,6.3609448982238765,1.8478747688293455
1789799204110423800,0.863423828125,7.588422161865234,6.214449684143066,1.6349404586791991
1789799204120396800,0.873396728515625,7.7699325752258295,5.98161357269287,1.4333786064147949
1789799204130368800,0.88336865234375,7.868543756103515,5.7611973823547356,1.3224971420288085
1789799204140340700,0.8933408203125,7.788188362884521,5.770474913787841,1.4267945518493652
1789799204150312700,0.903312744140625,7.602637734222411,5.894225212097168,1.7061679580688476
1789799204160284700,0.91328466796875,7.248595163726806,6.022015725708007,2.0534768363952636
1789799204170257000,0.9232568359375,7.063942360687255,6.292710150909423,1.9684826774597166
1789799204180228600,0.933228515625,7.135469135284423,6.526444087982178,1.5240589942932128
1789799204190200800,0.943200927734375,7.127987255096435,6.219836637878418,1.3320739486694335
1789799204200172500,0.953172607421875,7.0938698814392085,5.797260044860839,1.1583446907043455
1789799204210145800,0.963145751953125,7.099855385589599,5.700743790435791,0.7438485282897949
1789799204220117800,0.97311767578125,7.051223164367675,5.696853212738037,0.5029319862365722
1789799204230089700,0.98308984375,6.938097135925292,5.7131637115478515,0.6549637916564941
1789799204240061400,0.9930615234375,6.76765990524292,5.913977375793457,0.9593266777038574
1789799204250033700,1.00303369140625,6.541407848358154,6.121824007415771,1.31516489944458
1789799204260005600,1.013005615234375,6.434117686462402,6.156091018676757,1.3293804718017577
1789799204269977600,1.0229775390625,6.553378856658935,5.9768251693725585,1.0603320602416992
1789799204279949600,1.032949462890625,6.966827555847168,5.655403596496582,0.9211690887451172
1789799204289922800,1.0429228515625,7.15671767501831,5.588365950012206,0.9657610946655273
1789799204299894500,1.05289453125,7.138162612152099,5.829432129669189,0.8906430175781249
1789799204309866800,1.06286669921875,7.2717889923095695,5.978171907806396,0.7881412590026855
1789799204319838500,1.07283837890625,7.527818932342528,5.890334634399414,0.743100340270996
1789799204329810700,1.082810791015625,7.806893063354492,5.772270565032959,0.8014590057373047
1789799204339782700,1.09278271484375,8.035090409088134,5.872976672363281,0.9404723396301269
1789799204349754600,1.102754638671875,8.160187445831298,5.958120468902588,1.0449193870544433
1789799204359726600,1.1127265625,8.359804009246826,5.833023432159424,1.2589011604309082
1789799204369698600,1.122698486328125,8.434323535919189,5.707178207397461,1.2484265281677245
1789799204379671600,1.132671630859375,8.327183011627197,5.740996305847168,1.2756605720520018
1789799204389643800,1.142643798828125,7.9469538604736325,6.018125148010253,1.112106671142578
1789799204399615500,1.152615478515625,7.605480848693847,6.232555834197997,0.8227075454711914
1789799204409587700,1.162587646484375,7.3286512817382805,6.311714126586914,0.6025906303405761
1789799204419559700,1.1725595703125,7.094318794250488,6.4225955909729,0.48826750106811523
1789799204429531600,1.18253173828125,6.988824283599853,6.407631830596923,0.6196493171691894
1789799204439503600,1.192503662109375,6.889913827514648,6.392518432617187,0.8943839576721191
1789799204449475600,1.2024755859375,7.156268762207031,6.456264051818847,1.1695675109863282
1789799204459448600,1.212448486328125,7.370100897979736,6.5117796028137205,1.4221557861328125
1789799204469420500,1.222420654296875,7.357830614471435,6.5868976799011225,1.5038579177856444
1789799204479392500,1.232392578125,7.112574581909179,6.704812111663818,1.5070003074645995
1789799204489364700,1.24236474609375,6.935852571868896,6.653935326385498,1.5505448501586914
1789799204499336700,1.252336669921875,6.798485251617431,6.701520084381103,1.3643956710815428
1789799204509308700,1.26230859375,6.661417206573486,6.785616417694091,1.372027188873291
1789799204519280600,1.27228076171875,6.758232736206054,6.899490634155273,1.703923394012451
1789799204529252600,1.282252685546875,7.020846730804443,6.978948201751709,1.8544588233947752
1789799204539224600,1.292224609375,7.295282096099853,6.890063465118407,1.7284639610290526
1789799204549197600,1.302197509765625,7.5716627502441405,6.555024870300293,1.4333786064147949
1789799204559169500,1.31216943359375,7.73147571105957,6.318896731567382,1.1345523117065428
1789799204569141500,1.3221416015625,7.7316253486633295,6.308422099304199,1.2173019065856934
1789799204579113700,1.33211376953125,7.594557303619385,6.51851329498291,1.5690999130249021
1789799204589085700,1.342085693359375,7.496095760345458,6.6702458251953125,1.523909356689453
1789799204599057700,1.3520576171875,7.4694602668762204,6.6994251579284665,1.4212579605102538
1789799204609029600,1.362029541015625,7.798662995147705,6.374412282562256,1.622221262359619
1789799204619001600,1.372001708984375,8.189666053771973,6.191255855560303,1.5077484954833984
1789799204628973800,1.381973876953125,8.402899639129638,6.113294664001464,1.465849966430664
1789799204638946600,1.391946533203125,8.46619634552002,5.935674828338622,1.6648679794311523
1789799204648918500,1.40191845703125,8.150161726379395,6.046406655120849,1.866729106903076
1789799204658890800,1.411890869140625,7.553556600189209,6.228066706085205,1.9113211128234862
1789799204668862500,1.421862548828125,6.733692169189453,6.458209340667724,1.9979612854003905
1789799204678834700,1.431834716796875,6.105064595794677,6.687454149627685,2.142660848236084
1789799204688806700,1.441806640625,6.101772568511962,6.807014595031738,2.4220342544555664
1789799204698778600,1.451778564453125,6.272060161590576,6.412719509124756,2.6882395515441893
1789799204708750800,1.461750732421875,5.954529166412353,6.134692841339111,2.8516438148498535
1789799204718722600,1.47172265625,5.480776512908935,5.8548705223083495,3.0404864707946775
1789799204728695600,1.481695556640625,5.38201569442749,5.409997926330566,3.240701584625244
1789799204738667800,1.491667724609375,5.396530541992187,5.1134161956787105,3.244592162322998
1789799204748639500,1.501639404296875,5.138555313110351,4.891353991699218,3.294421484375
1789799204758611700,1.51161181640625,4.68605119934082,4.786009118652344,3.3527801498413083
1789799204768583400,1.52158349609375,4.19479094619751,4.500201295471191,3.264344326019287
1789799204778555600,1.5315556640625,3.5863644493103024,4.00938995513916,3.089417967224121
1789799204788527600,1.541527587890625,3.0961516593933105,3.423109823608398,2.7557261108398436
1789799204798499600,1.55149951171875,3.0199861190795896,2.553116795349121,2.5547628089904784
1789799204808471600,1.561471435546875,3.2228947097778318,1.4395137481689453,2.046294231414795
1789799204818444800,1.57144482421875,3.3159692993164063,0.6998550727844238,2.4417864181518554
1789799204828416500,1.58141650390625,3.0891186920166014,1.2925696212768554,2.8752865562438963
1789799204838388700,1.591388671875,2.142660848236084,1.4302362167358398,2.9321488456726073
1789799204848360400,1.6013603515625,1.7440262718200683,-0.2241571304321289,1.3717279136657714
1789799204858332700,1.611332763671875,1.8843863441467283,-2.0808605178833006,0.5232827003479004
1789799204868304600,1.6213046875,1.937657331085205,-3.3610102180480954,0.702847824859619
1789799204878276600,1.631276611328125,1.4592659118652342,-4.397998812103271,0.4996399589538574
1789799204888248600,1.64124853515625,0.34386721343994137,-5.206341147613525,0.680551821899414
1789799204898220500,1.651220458984375,-1.2164040809631347,-5.5081601943969725,1.4612112007141111
1789799204908193500,1.661193603515625,-2.711433380126953,-5.912331362152099,2.589329095458984
1789799204918165800,1.671165771484375,-3.6035727737426755,-6.549039366149902,4.289661186981201
1789799204928137500,1.681137451171875,-3.4030583847045897,-6.7926493850708,6.335955418395995
1789799204938109700,1.691109619140625,-2.9296050064086914,-6.709301239776611,8.418013037109375
1789799204948081700,1.70108154296875,-2.2315455848693846,-6.353463018035888,9.566481645965576
1789799204958053600,1.7110537109375,-1.5517419509887695,-6.391022056579589,10.08003790206909
1789799204968025600,1.721025634765625,-1.2095207511901855,-6.959495313262939,10.397568897247314
1789799204977997600,1.73099755859375,-1.0908581314086914,-7.333290047454834,10.85411322631836
1789799204987969500,1.740969482421875,-0.8087912483215332,-7.8998180152893065,11.478700584411621
1789799204997942800,1.75094287109375,-0.27174188842773433,-8.275707675933837,11.981034020233153
1789799205007914500,1.76091455078125,-0.08020575561523437,-7.701997103118896,13.19654027557373
1789799205017886700,1.77088671875,-0.1427542739868164,-7.325359254455566,14.627973593139648
1789799205027858700,1.780858642578125,-0.4961982940673828,-7.425466811370849,16.162806494903563
1789799205037830700,1.79083056640625,-1.088463929748535,-7.792078940582275,18.172439513397215
1789799205047802600,1.800802734375,-2.1459528755187987,-6.351068816375732,16.737414893341064
1789799205057774600,1.810774658203125,-2.2897546127319335,-5.278167197418212,14.403666825103759
1789799205067746600,1.82074658203125,-0.8860042518615722,-6.688501612854004,13.869161304473876
1789799205077718800,1.83071875,0.6913257293701172,-8.028955267333984,14.800206475067137
1789799205087690500,1.8406904296875,2.3644237770080565,-7.811382191467285,16.244358988952637
1789799205097663700,1.850663818359375,3.4843116035461423,-7.0181532539367675,17.994221127319335
1789799205107635700,1.8606357421875,3.3373674766540526,-6.373215181732177,19.913323395538328
1789799205117607700,1.870607666015625,2.810343836212158,-5.821800611877441,21.160852098083495
1789799205127579600,1.88057958984375,1.7820342231750488,-5.082590849304199,21.197662948608397
1789799205137551600,1.890551513671875,0.42332478103637694,-4.2500072219848635,20.322881517028808
1789799205147523600,1.900523681640625,0.3321954803466797,-3.808127378082275,19.56287212753296
1789799205157495800,1.910495849609375,0.13422493057250975,-3.1070752044677734,19.576339511871335
1789799205167467500,1.920467529296875,-0.651821401977539,-3.0711621795654294,19.903447313690183
1789799205177439700,1.930439697265625,-0.8319850769042968,-3.6988919273376464,20.303727903747557
1789799205187412700,1.940412841796875,-0.2654571090698242,-4.320336895751953,19.789124184417723
1789799205197384700,1.950384765625,1.31516489944458,-4.062212029266357,18.65457187271118
1789799205207356700,1.960356689453125,2.849099975585937,-3.5443162826538086,17.729811481475828
1789799205217328600,1.97032861328125,3.7297172737121578,-3.050961103057861,17.380407676696777
1789799205227300900,1.98030078125,3.3349732749938963,-2.6307787117004393,17.070657836914062
1789799205237272800,1.99027294921875,2.8898014038085935,-2.122908684539795,16.701950781249998
1789799205247244800,2.000244873046875,2.59845698928833,-1.8350059349060057,16.2277492149353
1789799205257216800,2.010216796875,1.6436194396972654,-1.6994342658996582,15.92832436981201
1789799205267188700,2.020188720703125,0.6657376991271973,-1.406443837738037,15.425242745971678
1789799205277161700,2.03016162109375,0.3419219245910644,-0.8975263473510742,14.916025980377196
1789799205287133700,2.0401337890625,0.4215291297912597,-0.9290998817443847,14.602235925292968
1789799205297105700,2.050105712890625,0.37289690856933594,-1.6710031211853027,14.277671962738037
1789799205307078000,2.060077880859375,-0.42931028518676756,-2.1191677444458006,13.98812319946289
1789799205317049900,2.0700498046875,-3.0295629257202146,-1.764676261138916,13.554473423767089
1789799205327021800,2.080021728515625,-5.520879390716552,-1.3766659545898436,13.12650987701416
1789799205336993800,2.089993896484375,-7.493402283477783,-1.7480664871215819,12.657246351623535
1789799205346965800,2.0999658203125,-8.01892954788208,-3.15376213684082,10.957363172912597
1789799205356938000,2.10993798828125,-6.509086125946045,-4.297292704772949,9.11038622970581
1789799205366909700,2.11990966796875,-3.05814370803833,-4.307916974639892,9.023147506713867
1789799205376882700,2.129882568359375,-0.8783727340698242,-4.054430873870849,12.457180875396729
1789799205386855000,2.13985498046875,-1.5785270820617674,-4.148852201843262,13.692738569641113
1789799205396826600,2.14982666015625,-3.2043396469116208,-4.389469468688964,14.797512998199462
1789799205406798800,2.159798828125,-3.0918121688842772,-4.508132088470458,16.00748266220093
1789799205416770800,2.169770751953125,-2.9691093338012693,-4.833743514251709,11.977293080139159
1789799205426742800,2.17974267578125,-3.6462194908142087,-5.968445463562011,8.481758656311035
1789799205436715000,2.189715087890625,-4.480000218963623,-6.740575498962402,4.683806635284424
1789799205446686700,2.199686767578125,-2.5623943267822265,-5.990591828918457,5.290736756134033
1789799205456659000,2.209658935546875,-0.3586813362121582,-4.915296008300781,8.516025667572022
1789799205466632000,2.2196318359375,0.35090018081665036,-4.080767092132568,9.875932210540771
1789799205476603600,2.229603759765625,0.3489548919677734,-3.6043209617614744,10.54705686340332
1789799205486575900,2.239575927734375,1.0146925910949707,-2.9415760147094723,12.134113288879394
1789799205496547600,2.249547607421875,1.5867571502685547,-2.9803321540832517,11.310208642578125
1789799205506519800,2.259519775390625,1.1595417915344237,-3.5523967132568357,8.72671541366577
1789799205516491800,2.26949169921875,0.8104372619628906,-2.523189274597168,8.372822480773925
1789799205526463700,2.279463623046875,0.03591302490234375,-1.6314987937927246,8.034192583465575
1789799205536436000,2.28943603515625,-1.2331634925842285,-1.5221137054443359,6.174945356750488
1789799205546407700,2.29940771484375,-1.7052701324462889,-1.6971897018432616,3.8572085121154784
1789799205556380000,2.3093798828125,-2.363974864196777,-2.0337246726989746,3.0527567543029783
1789799205566353000,2.319352783203125,-2.0591630653381348,-1.3293804718017577,4.141819234466553
1789799205576324600,2.32932470703125,-2.6515783386230467,-1.146672957611084,4.292953214263916
1789799205586296800,2.339296875,-2.9300539192199704,-0.975487538909912,4.851101476287842
1789799205596268800,2.349268798828125,-2.583044316101074,-0.7556698989868164,6.152350078582764
1789799205606240800,2.35924072265625,-2.9747955627441405,-1.5873557006835937,6.300042393493652
1789799205616212700,2.369212646484375,-3.374028689575195,-2.628983060455322,5.032312614440918
1789799205626184700,2.379184814453125,-3.4023101966857907,-2.982576718139648,4.67991605758667
1789799205636156700,2.38915673828125,-4.003554088592529,-2.1781249603271484,6.24347937927246
1789799205646129000,2.39912890625,-2.5149592063903805,-3.1783027038574216,6.851905876159668
1789799205656100900,2.409100830078125,-2.164807213592529,-3.0952538337707516,6.758681649017333
1789799205666073900,2.419073974609375,-2.4836849472045897,-2.6140193000793457,7.97388862915039
1789799205676045800,2.4290458984375,-3.425803300476074,-2.2149358108520505,9.191789086151122
1789799205686017800,2.439017822265625,-3.805583538818359,-0.2255038688659668,9.637858782958984
1789799205695989800,2.44898974609375,-4.877886607360839,-0.5162497329711914,9.48044002380371
1789799205705961700,2.458961669921875,-3.298760974884033,-1.3262380821228026,9.03377177658081
1789799205715933700,2.46893359375,-4.0255508163452145,0.9165303230285644,8.526949212646484
1789799205725906000,2.478906005859375,-4.058321451568603,1.6398784996032714,7.116315522003173
1789799205735877600,2.488877685546875,-2.503736386108398,0.9917980377197265,7.23348176574707
1789799205745849900,2.498849853515625,-2.117072817993164,-0.27174188842773433,8.897900832366943
1789799205755822800,2.50882275390625,-2.5207950729370117,-0.7652467056274413,8.954014933776856
1789799205765794800,2.518794921875,-2.9056629898071287,-2.267458609771728,8.545205000305176
1789799205775766800,2.528766845703125,-3.1762077774047848,-2.8407202697753906,7.855226009368896
1789799205785738800,2.53873876953125,-3.8105215797424314,-2.62389538192749,7.819462622070312
1789799205795710700,2.548710693359375,-3.555539102935791,-3.4118870033264157,7.888744832611083
1789799205805683000,2.558682861328125,-2.9396307258605954,-2.8048072448730466,8.236352986145018
1789799205815654700,2.568654541015625,-3.296366773223877,-1.7944541442871094,8.771457057189942
1789799205825627000,2.578626953125,-3.408744613647461,-2.602497204589844,8.769511768341063
1789799205835598600,2.5885986328125,-2.9689596961975098,-3.287538154602051,8.045565041351319
1789799205845570800,2.59857080078125,-3.1618425674438475,-3.347093920898437,7.65486125793457
1789799205855543800,2.608543701171875,-3.623773850250244,-2.7816134162902832,7.913584674835205
1789799205865515800,2.618515869140625,-3.714304600524902,-1.9801544105529785,8.346037349700927
1789799205875487700,2.62848779296875,-3.368492098236084,-1.9017443061828612,8.336161267852782
1789799205885460000,2.6384599609375,-3.17935016708374,-1.8180968856811521,8.187870402526855
1789799205895431700,2.648431640625,-3.1578023521423337,-1.2108674896240235,8.715492593383788
1789799205905404000,2.65840380859375,-3.1088708557128903,-0.5225345123291015,9.834482594299315
1789799205915375600,2.668375732421875,-3.040935383605957,-0.5448305152893066,9.829544553375243
1789799205925347800,2.678347900390625,-3.614047406005859,-0.45340193939208984,8.92498523864746
1789799205935319800,2.68831982421875,-4.791396072387695,-0.24705168380737302,8.044966490936279
1789799205945292800,2.698292724609375,-4.087051871490479,0.22685060729980466,7.60323628463745
1789799205955264800,2.7082646484375,-2.7111341049194335,-0.529268204498291,6.486939760589599
1789799205965237000,2.718237060546875,-2.477699443054199,-0.9002198242187499,5.112668007659912
1789799205975208700,2.728208740234375,-3.564367721557617,-0.04399345550537109,3.952527665710449
1789799205985181000,2.738180908203125,-2.4340052627563473,-1.0088567245483397,4.335450293731689
1789799205995152600,2.748152587890625,-1.6793828269958495,-1.0483610519409179,4.304026396942138
1789799206005124900,2.758124755859375,-2.258031440734863,-1.6508020446777343,4.587140743255615
1789799206015096800,2.768096923828125,-2.3247698120117186,-2.5794530136108396,6.566397328186035
1789799206025068800,2.77806884765625,-0.8008604553222656,-2.6499323249816893,8.658630303955078
1789799206035040800,2.788040771484375,1.4244003501892089,-2.7865514572143555,6.674884590911865
1789799206045014000,2.798013916015625,1.2880804931640624,-3.8509237327575683,4.979340902709961
1789799206054985700,2.80798583984375,0.2786252182006836,-3.522918105316162,1.740434969329834
1789799206064958000,2.8179580078125,1.1323077476501464,-5.620687672424316,-1.3072341064453123
1789799206074929700,2.8279296875,-0.4176385520935058,-10.184784224700927,-0.946158568572998
1789799206084902000,2.83790185546875,0.5373486351013184,-10.841394029998778,5.28624762802124
1789799206094873900,2.847873779296875,-1.0164882423400878,-9.405022671508789,11.33175645751953
1789799206104845800,2.857845703125,-2.3873183303833008,-6.465840858459472,23.4302559967041
1789799206114817800,2.86781787109375,-1.9948188957214354,-5.014206464385986,30.187441269683838
1789799206124789800,2.877789794921875,0.8885480911254883,-10.524012672424316,15.940594653320312
1789799206134762800,2.8877626953125,1.7860744384765623,-12.644227880096436,12.994828785705566
1789799206144735000,2.89773486328125,-1.0676643028259276,-13.353959034729003,15.43018078689575
1789799206154706700,2.907706787109375,-0.7897872726440429,-11.945569908142089,11.215338401794433
1789799206164679000,2.917678955078125,-0.33010055389404297,-11.399243016815184,10.475679726409911
1789799206174651000,2.92765087890625,0.28535891036987304,-9.974094478607178,10.945392164611816
1789799206184622800,2.937622802734375,0.33473931961059566,-9.369109646606445,11.886911967468262
1789799206194594800,2.9475947265625,0.2567781280517578,-8.315960191345214,11.729044295501708
1789799206204566800,2.95756689453125,0.17253215713500974,-8.269572534179687,11.136180109405517
1789799206214538800,2.967538818359375,0.97039986038208,-7.4703580924987785,11.451915453338623
1789799206224511200,2.97751123046875,0.5985504150390625,-6.3156047042846675,11.609483850097655
1789799206234484200,2.987484130859375,-0.1527799934387207,-5.989394728088379,9.378836090850829
1789799206244456000,2.9974560546875,-1.9654899253845213,-0.9195230751037597,3.106626291656494
1789799206254428200,3.00742822265625,-1.0446201118469238,1.5765817932128905,-2.887407202148437
1789799206264400100,3.017400146484375,-1.073799444580078,0.34012627334594725,-3.2160113800048826
1789799206274372000,3.0273720703125,-0.958877764892578,-3.169174810028076,3.9393595565795896
1789799206284344300,3.03734423828125,-0.2127846725463867,-10.25990230178833,5.6964042999267575
1789799206294316000,3.04731591796875,-1.672050584411621,-8.943540301513671,7.798064444732666
1789799206304288300,3.057288330078125,-0.23552958831787107,-5.503072515869141,10.46999349746704
1789799206314260200,3.06726025390625,-0.3516483688354492,-4.44962378540039,12.776657159423827
1789799206324232200,3.077232177734375,-0.7173626724243164,-8.257751163482666,8.774449809265136
1789799206334205200,3.087205078125,-1.8740613494873046,-7.7218989044189446,8.81036283416748
1789799206344177000,3.097177001953125,-1.352873575592041,-8.394370295715332,7.513603359985352
1789799206354149000,3.107149169921875,-1.5275006591796874,-7.272237905120849,7.013963401031494
1789799206364121000,3.11712109375,-1.0238204849243164,-6.355109031677245,6.673687490081787
1789799206374093000,3.127093017578125,-0.3871124809265136,-5.160701678466797,6.76721099243164
1789799206384065000,3.13706494140625,-0.3630208267211914,-3.451241693115234,7.152228546905517
1789799206394037000,3.147037109375,-0.5111620544433594,-2.2095488571166992,6.985232981109618
1789799206404009200,3.15700927734375,-0.46402620925903315,-0.2389712532043457,6.902932299041748
1789799206413981200,3.166981201171875,-0.14050970993041992,1.7667711875915526,6.907122151947021
1789799206423953200,3.176953125,0.3199251968383789,2.2245126174926755,6.681169370269775
1789799206433926100,3.186926025390625,0.7339724464416504,1.5693991882324219,6.700472621154785
1789799206443898000,3.196898193359375,0.11671733093261719,-0.18914193115234373,6.41586189880371
1789799206453870000,3.2068701171875,-0.01601122360229492,-1.704073031616211,6.517166556549072
1789799206463842000,3.216842041015625,-0.36376901473999024,-4.928015204620361,6.491877801513671
1789799206473814000,3.22681396484375,0.5422866760253906,-7.692569934082031,6.5695397178649895
1789799206483786000,3.236785888671875,0.22939444656372068,-9.354594799041747,7.477391059875488
1789799206493758200,3.24675830078125,-0.48243163452148435,-9.1424086769104,8.138938906097412
1789799206503730200,3.256730224609375,-1.2319663917541503,-9.086294575500487,11.569231334686279
1789799206513702100,3.2667021484375,-0.9217676391601562,-9.403227020263671,14.03899998474121
1789799206523675100,3.276675048828125,-0.0026934768676757813,-6.2304609077453605,12.021286535644531
1789799206533647000,3.286647216796875,0.3136404174804687,-2.0151696098327636,9.771185887908935
1789799206543619000,3.296619140625,-0.05087678527832031,-2.4274212081909177,8.646509658050537
1789799206553591000,3.306591064453125,-0.1788169364929199,-6.6325371490478515,8.750208517456054
1789799206563563000,3.31656298828125,-1.0594342346191405,-11.047445010375975,10.60421842803955
1789799206573535200,3.32653515625,-0.11596914291381835,-12.56447103729248,11.00734213256836
1789799206583507000,3.3365068359375,0.6238391700744629,-16.04174967346191,9.53864905166626
1789799206593479200,3.346479248046875,2.0388123512268064,-17.18109038848877,5.24165562210083
1789799206603451100,3.356451171875,1.9723732551574706,-18.184560159301757,2.63661457824707
1789799206613423000,3.366423095703125,0.09846154327392577,-17.226729857635497,4.004751189422607
1789799206623396000,3.37639599609375,-1.06616792678833,-10.753407118988036,6.057030924987792
1789799206633368000,3.3863681640625,-1.3352163383483886,-7.842506813049316,6.983736605072021
1789799206643340000,3.396340087890625,-1.4239514373779296,-8.045714678955077,6.857442467498779
1789799206653312300,3.406312255859375,-1.1237784042358399,-7.1978680160522455,6.717531307983398
1789799206663284000,3.416283935546875,-1.3762170417785644,-6.507140837097167,7.213579964447021
1789799206673256200,3.426256103515625,-1.2683283294677734,-6.215197872161865,8.237400449371338
1789799206683228000,3.436227783203125,-0.5719149215698242,-5.699995602416992,9.010278672790527
1789799206693200100,3.4462001953125,0.019303250885009764,-4.8989855094909665,9.649530516052245
1789799206703172000,3.456172119140625,-0.23418284988403318,-5.5735518272399895,10.064774866485594
1789799206713144000,3.46614404296875,-0.3559878593444824,-5.108178879547119,10.320804806518554
1789799206723117000,3.476116943359375,-0.14514847564697264,-5.82883357925415,10.128520485687256
1789799206733089300,3.48608935546875,-0.16924012985229492,-6.457760427856445,9.77402900238037
1789799206743061000,3.49606103515625,-0.1623568000793457,-6.642263593292236,9.746794958496093
1789799206753033200,3.506033203125,0.23178864822387693,-6.708403414154052,9.77402900238037
1789799206763005000,3.5160048828125,0.6028899055480956,-6.65902300491333,9.654917469787597
1789799206772977200,3.52597705078125,0.6025906303405761,-6.527940464019775,9.983222372436522
1789799206782949000,3.53594921875,0.361973363494873,-6.322338396453857,10.889278063201903
1789799206792921000,3.545921142578125,0.27787703018188475,-6.232256558990478,11.188702908325194
1789799206802893000,3.55589306640625,0.04189852905273437,-6.337451794433593,10.918307758331299
1789799206812865000,3.565864990234375,-0.2262520568847656,-6.344933674621582,10.575188732910156
1789799206822838000,3.575838134765625,-0.462829108428955,-6.23734423751831,10.806827743530272
1789799206832810200,3.585810302734375,-0.6226420692443847,-6.272509074401855,11.148450392913817
1789799206842782000,3.595781982421875,-0.8180687797546387,-6.162226160430908,10.397718534851073
1789799206852754200,3.605754150390625,-0.621145693206787,-5.934328089904785,9.426420848846435
1789799206862726100,3.61572607421875,-0.4730044654846191,-5.0471267372131345,8.571541218566894
1789799206872698000,3.625697998046875,-0.4842272857666015,-3.0324060401916504,7.921515467834472
1789799206882670000,3.635670166015625,-0.5041290870666504,-3.4056022239685055,8.237400449371338
1789799206892642000,3.64564208984375,-0.9873089096069335,-4.164713787841797,8.277652964782714
1789799206902614000,3.655614013671875,-1.0393827957153319,-4.196885872650146,8.59323867111206
1789799206912586200,3.665586181640625,-0.9398737892150878,-3.7779005821228027,8.41442173461914
1789799206922559000,3.67555908203125,-0.939724151611328,-3.569605037689209,8.470835111236571
1789799206932531200,3.68553125,-0.6599018325805663,-3.539527879333496,8.788964656829833
1789799206942503200,3.695503173828125,-0.8011597305297851,-3.567659748840332,9.391704924774169
1789799206952475100,3.70547509765625,-1.2562076835632323,-3.7132571372985836,9.617059156036376
1789799206962447000,3.715447021484375,-1.1725602630615233,-3.882796542358398,9.551667523193359
1789799206972419000,3.725419189453125,-1.0446201118469238,-4.2682630096435545,9.343820891571044
1789799206982391000,3.73539111328125,-0.785896694946289,-4.349516228485107,8.63872850265503
1789799206992363300,3.74536328125,-0.7106289802551269,-3.577984743499756,7.248894438934326
1789799207002335000,3.7553349609375,-1.1819874320983885,-2.412607085418701,7.592761652374267
1789799207012307200,3.76530712890625,-1.0313023651123046,-2.6235961067199707,7.577498616790771
1789799207022280200,3.7752802734375,-0.5214870491027832,-2.8259061470031734,7.653514519500732
1789799207032252200,3.785252197265625,0.17178396911621094,-2.4857798736572265,7.82080936050415
1789799207042224000,3.79522412109375,-0.05940612869262695,-1.6395792243957519,7.606977224731445
1789799207052196000,3.805196044921875,-1.2122142280578612,-0.7603086647033691,6.817040314483642
1789799207062168000,3.81516796875,-2.1097405754089356,0.8295908752441405,5.339817890167236
1789799207072140300,3.825140380859375,-1.4440028762817383,3.0234277839660644,4.22636448059082
1789799207082112000,3.835112060546875,-0.1322796417236328,2.7947815254211426,4.695179093170165
1789799207092084200,3.845084228515625,0.11297639083862304,1.5343839889526367,5.539733728790283
1789799207102056000,3.855055908203125,-0.2609679809570312,0.42227731781005856,6.225971779632568
1789799207112028200,3.865028076171875,-0.13766659545898435,-0.4604349067687988,6.8128504615783685
1789799207122001200,3.875001220703125,-0.1701379554748535,-1.785625525665283,7.072022791290283
1789799207131973000,3.88497314453125,-0.502483073425293,-3.1536124992370604,7.496694310760498
1789799207141945000,3.894945068359375,0.0809539436340332,-4.045751892852783,7.868094843292236
1789799207151917300,3.904917236328125,0.8174702293395996,-4.5678374923706055,8.021024474334716
1789799207161889000,3.914888916015625,0.6459855354309082,-2.7807155906677243,8.828020071411132
1789799207171861200,3.924861328125,0.06314706878662109,-2.927809355163574,9.101707248687744
1789799207181833000,3.9348330078125,-0.9072527915954589,-4.14960038986206,8.552537242889404
1789799207191805200,3.94480517578125,-1.4312836799621582,-4.091989912414551,7.70573804321289
1789799207201777200,3.954777099609375,-1.6086042404174803,-3.0259716232299803,7.723245642852783
1789799207211750100,3.964750244140625,-1.840692163848877,-2.725499314880371,7.591414913940429
1789799207221722000,3.97472216796875,-1.6340426330566404,-2.955193036651611,7.204003157806396
1789799207231694300,3.9846943359375,-1.451185481262207,-2.672377965545654,7.563283044433593
1789799207241666000,3.994666015625,-1.1722609878540038,-2.5583541114807127,7.745541645812988
1789799207251638300,4.00463818359375,-1.3498808235168456,-2.948459344482422,7.896077075195312
1789799207261610000,4.01460986328125,-1.8388965126037597,-3.160795104217529,8.233958784484862
1789799207271582200,4.024582275390625,-2.007238816833496,-1.2699743431091308,8.640673791503906
1789799207281554200,4.03455419921875,-1.6536451591491699,-3.3241993675231933,6.934056920623779
1789799207291526100,4.044526123046875,-2.7932851493835447,-5.1876364471435545,6.823325093841552
1789799207301498000,4.054498046875,-2.3645734146118165,-4.536413595581054,7.89083975906372
1789799207311471000,4.06447119140625,-1.4579191734313963,-4.528033889770508,7.4980410491943355
1789799207321443000,4.074443115234375,-0.6022913551330566,-4.409221632385254,7.754669539642333
1789799207331415300,4.084415283203125,-0.8641571617126464,-4.872350016021728,8.37521668243408
1789799207341387000,4.094386962890625,-1.5445593460083007,-4.93534744720459,8.695291516876221
1789799207351359200,4.104359130859375,-0.8164227661132812,-2.7992706535339353,9.426720124053954
1789799207361331200,4.114331298828125,-1.465849966430664,-6.7936968482971185,7.491008081817626
1789799207371303200,4.12430322265625,-1.8079215286254882,-6.282834069061279,8.014290782165526
1789799207381275100,4.134275146484375,-0.5479729049682617,-4.741267475128174,8.70112738342285
1789799207391247000,4.1442470703125,-0.4161421760559082,-5.156511825561523,8.583661864471434
1789799207401219000,4.154218994140625,-0.642244595336914,-5.710320597076415,9.127295278930664
1789799207411192000,4.164192138671875,-0.7053916641235352,-6.08456424407959,9.531616084289551
1789799207421164000,4.1741640625,-1.101931314086914,-4.920682962036133,10.076895512390136
1789799207431136300,4.18413623046875,0.023044190979003905,-6.7936968482971185,9.30760859146118
1789799207441108200,4.194108154296875,0.5065232887268066,-5.77780715637207,9.57575917739868
1789799207451080200,4.204080078125,0.4969464820861816,-5.652410844421387,10.498873554992675
1789799207461052200,4.21405224609375,0.3229179489135742,-5.944952359771728,10.089315433502197
1789799207471024000,4.224024169921875,0.19856910018920898,-6.195146433258056,9.993547367095946
1789799207480996000,4.23399609375,0.04249707946777344,-6.372018080902099,10.083030654144286
1789799207490968300,4.24396826171875,0.2524386375427246,-6.232555834197997,10.206631314849853
1789799207500941000,4.253941162109375,0.6738181297302246,-6.153247904205322,10.346243199157714
1789799207510913000,4.2639130859375,0.2733879020690918,-5.532401486206054,10.70746837463379
1789799207520885200,4.27388525390625,0.26261399459838863,-5.447257689666747,10.296413877105712
1789799207530857000,4.28385693359375,0.3495534423828125,-5.750573112487793,9.219472042846679
1789799207540829200,4.2938291015625,0.5117606048583984,-4.995950676727294,8.713696942138672
1789799207550801200,4.30380126953125,0.4991910461425781,-4.559757061767578,8.33122322692871
1789799207560773000,4.313773193359375,0.03800795135498047,-4.242525341796875,8.173355554962157
1789799207570745300,4.323745361328125,-0.8788216468811034,-2.8104934738159177,8.027608528900146
1789799207580717000,4.333717041015625,0.6878840644836426,-2.9574376007080074,8.711003465270995
1789799207590689300,4.343689208984375,1.2820949890136717,-4.52638787612915,8.971372895812987
1789799207600662300,4.353662353515625,0.7115268058776855,-5.702090528869628,8.736741133117675
1789799207610634000,4.363634033203125,0.5883750579833984,-6.872406227874755,8.545504275512695
1789799207620606200,4.373606201171875,0.4246715194702148,-7.629871778106689,8.437316287994385
1789799207630578000,4.383577880859375,0.361374813079834,-8.10152950515747,8.484302495574951
1789799207640550100,4.393550048828125,-0.08813654861450194,-8.209418217468262,8.727912514495848
1789799207650522000,4.403522216796875,-0.5276221908569335,-7.874678897857666,8.852710276031493
1789799207660494000,4.413494140625,-0.5382464607238769,-7.511957346343993,8.658929579162598
1789799207670466300,4.42346630859375,-0.430956298828125,-7.509563144683837,8.518419869232178
1789799207680438000,4.43343798828125,-0.6842927619934082,-7.269694065856934,8.583063314056396
1789799207690411000,4.443410888671875,-0.9419687156677246,-6.576423047637939,8.778041111755371
1789799207700383200,4.45338330078125,-1.0116998390197753,-6.672789664459228,8.379107260131835
1789799207710355000,4.46335498046875,-0.8447042732238769,-7.032518463897705,8.034791133880615
1789799207720327200,4.4733271484375,-0.7523778717041015,-6.88856708908081,7.7784619186401365
1789799207730299100,4.483299072265625,-0.7245452774047851,-6.649146923065185,7.389553786468506
1789799207740271000,4.49327099609375,-0.5720645591735839,-6.564900952148437,7.258770520782471
1789799207750243000,4.5032431640625,-0.09382277755737305,-6.591237170410156,7.2258502479553215
1789799207760215000,4.513215087890625,0.19662381134033202,-6.679972269439697,7.3663599578857415
1789799207770187300,4.523187255859375,0.32411504974365235,-6.834248638916015,7.509712782287597
1789799207780159200,4.5331591796875,0.18046295013427732,-7.101052486419677,7.736114476776122
1789799207790132000,4.543132080078125,0.04249707946777344,-7.4500073783874505,7.830685442352294
1789799207800104200,4.553104248046875,0.005985504150390624,-7.856423110198974,7.781454670715331
1789799207810076200,4.563076171875,-0.024091654205322263,-8.08297444229126,7.831433630371094
1789799207820048100,4.573048095703125,-0.006284779357910156,-8.075492562103271,8.07025524597168
1789799207830020000,4.58302001953125,-0.03516483688354492,-7.791480390167236,8.143876947021484
1789799207839992000,4.592991943359375,-0.21068974609375,-7.3469070693969725,8.285733395385742
1789799207849964000,4.602964111328125,-0.28640637359619137,-7.096862633514404,8.43297679748535
1789799207859936300,4.612936279296875,-0.35523967132568357,-7.109432192230225,8.573636145019531
1789799207869908000,4.622907958984375,-0.38666356811523434,-7.104045238494873,8.734047656249999
1789799207879881200,4.632881103515625,-0.10818798751831055,-7.27163935470581,8.877101205444335
1789799207889853200,4.642853271484375,0.0016460136413574218,-7.267748777008056,8.730755628967284
1789799207899825200,4.6528251953125,-0.12180500946044921,-7.030124262237549,8.51662421798706
1789799207909797000,4.662797119140625,-0.49949032135009763,-6.750301943206787,8.284386656951904
1789799207919769000,4.67276904296875,-0.8714894042968749,-6.542904224395752,7.994239343261718
1789799207929741000,4.682740966796875,-0.9970353538513183,-6.418106462860107,7.921365830230712
1789799207939713300,4.69271337890625,-1.0431237358093262,-6.515819818115234,8.258349713897704
1789799207949685000,4.70268505859375,-1.2286743644714355,-6.552032118225097,8.883834897613525
1789799207959657200,4.7126572265625,-1.4043489112854004,-6.469132885742187,9.547178395080566
1789799207969630200,4.722630126953125,-1.1278186195373534,-6.3992521247863765,9.913790524291992
1789799207979602200,4.732602294921875,-0.7848492317199707,-6.316652167510986,10.040982487487792
1789799207989574100,4.74257421875,-0.6554127044677734,-6.181529411315918,10.005967288208007
1789799207999546000,4.752546142578125,-0.6717232032775878,-5.8940755744934075,9.522787465667724
1789799208009518000,4.76251806640625,-0.5728127471923827,-5.45877978515625,9.490166468048095
1789799208019490300,4.772490234375,-0.6694786392211913,-5.303904865264892,9.476549446105956
1789799208029462000,4.7824619140625,-0.5539584091186524,-5.286696540832519,9.194781838226318
1789799208039434200,4.792434326171875,-0.5503671066284179,-5.3095910942077635,9.068637338256835
1789799208049406000,4.802406005859375,-0.3769371238708496,-5.294776971435547,8.990825784301757
1789799208059378200,4.812378173828125,-0.11282675323486327,-5.2067900604248045,8.890418952178955
1789799208069351200,4.82235107421875,-0.2424129180908203,-5.018845230102539,9.069235888671875
1789799208079323100,4.8323232421875,-0.44202948150634763,-4.800374328613281,9.131335494232177
1789799208089295000,4.842295166015625,-0.5997475158691405,-4.547636415863037,9.370157109832762
1789799208099267300,4.852267333984375,-0.5994482406616211,-4.471919788360595,9.49360813293457
1789799208109239000,4.862239013671875,-0.6539163284301758,-4.448875597381591,9.805901811981201
1789799208119211300,4.872211181640625,-0.7764695259094238,-4.34772057723999,9.855132583618163
1789799208129183000,4.882182861328125,-0.9139864837646484,-4.14391416091919,9.815029705810547
1789799208139155200,4.8921552734375,-1.0612298858642577,-4.173093493652344,9.583689970397948
1789799208149127200,4.902127197265625,-0.955136824798584,-4.376151721954345,9.051578651428223
1789799208159100200,4.91210009765625,-0.9840168823242187,-4.476109641265869,8.758588223266601
1789799208169072000,4.922072021484375,-1.0824784255981446,-4.582053064727783,8.678382467651367
1789799208179044000,4.932044189453125,-0.8773252708435058,-4.717774371337891,8.549993403625487
1789799208189016000,4.94201611328125,-0.5683236190795898,-4.891204354095459,8.63827958984375
1789799208198988300,4.95198828125,-0.39160160903930663,-5.063736511230468,9.004592443847656
1789799208208960000,4.9619599609375,-0.38666356811523434,-5.21606759185791,9.186252494812011
1789799208218932200,4.97193212890625,-0.6801029090881348,-5.332186372375488,9.05921016921997
1789799208228904200,4.981904296875,-0.7908347358703612,-5.17117631072998,9.11083514251709
1789799208238876400,4.99187646484375,-0.9108440940856933,-5.0097173362731935,9.036465253448485
1789799208248848100,5.00184814453125,-0.8948328704833984,-4.809951135253906,9.260472746276855
1789799208258821400,5.0118212890625,-1.0784382102966308,-4.7022120605468745,9.433004903411865
1789799208268793300,5.02179345703125,-1.049558152770996,-4.535216494750976,9.43016178894043
1789799208278765300,5.031765380859375,-1.2476783401489258,-4.321085083770751,9.249100288391112
1789799208288737300,5.0417373046875,-1.3199533027648924,-4.020313500213623,9.381679205322266
1789799208298709200,5.051709228515625,-1.6766893501281737,-3.8913258857727047,9.202562993621825
1789799208308681200,5.06168115234375,-1.6440683525085449,-3.7740100044250484,9.055768504333496
1789799208318653400,5.0716533203125,-1.4227543365478514,-3.640233986663818,9.025092795562744
1789799208328625200,5.081625244140625,-1.0114005638122558,-3.4482489410400388,8.879345769500732
1789799208338597400,5.091597412109375,-0.09995791931152344,-3.242497235870361,8.481609018707275
1789799208348570400,5.1015703125,0.2868552864074707,-2.955193036651611,7.851335431671142
1789799208358542000,5.1115419921875,-0.4234744186401367,-2.5769091743469237,7.053018815612792
1789799208368514300,5.121514404296875,-0.5114613296508789,-2.0611083541870117,6.4351651496887206
1789799208378486300,5.131486328125,0.15846622238159178,-1.4921861846923827,6.195146433258056
1789799208388458200,5.141458251953125,-0.2685994987487793,-1.2370540702819823,5.725583632659911
1789799208398430500,5.151430419921875,-0.755220986175537,-1.362450382232666,5.391742138671875
1789799208408402200,5.161402099609375,-0.5446808776855468,-1.5792752700805663,5.2359693931579585
1789799208418374400,5.17137451171875,-1.1150994232177733,-1.47482822265625,5.392789601898193
1789799208428346000,5.18134619140625,-1.5677531745910644,-1.435174257659912,6.121973645019531
1789799208438319000,5.191319091796875,-1.2645873893737791,-1.3953706550598144,6.60754766921997
1789799208448291300,5.201291259765625,-1.164479832458496,-1.2674305038452147,6.23749387512207
1789799208458263000,5.211262939453125,-1.1438298431396483,-1.1022305892944335,5.817910034179687
1789799208468235300,5.2212353515625,-1.1130044967651367,-0.9352350234985352,5.425410599517822
1789799208478207200,5.231207275390625,-1.2931681716918944,-0.8493430389404296,5.419574732971191
1789799208488179200,5.24117919921875,-1.3941735542297362,-0.7996633544921875,5.84170241317749
1789799208498151400,5.2511513671875,-1.1988964813232421,-0.8815151237487793,6.5686418922424314
1789799208508123100,5.261123046875,-1.3000515014648437,-1.239148996734619,7.037157229614257
1789799208518095400,5.271095458984375,-1.380257257080078,-1.6566379112243652,7.409904500579834
1789799208528068400,5.281068359375,-1.2011410453796385,-1.946485949707031,7.6867340675354
1789799208538040000,5.2910400390625,-1.202188508605957,-2.1143793411254883,7.672368857574463
1789799208548012300,5.30101220703125,-1.145326219177246,-2.324320899200439,7.379528067016601
1789799208557984300,5.310984375,-1.1353004997253417,-2.50238964767456,7.370699448394775
1789799208567956200,5.320956298828125,-1.1507131729125977,-2.5266309394836424,7.60353555984497
1789799208577928200,5.33092822265625,-1.2918214332580567,-2.6843489738464354,7.681347113800048
1789799208587900200,5.340900146484375,-1.4202104972839356,-2.872293804168701,7.596203317260742
1789799208597872400,5.350872314453125,-1.4778209747314452,-2.9893104103088377,7.568370722961426
1789799208607844400,5.36084423828125,-1.3434464065551757,-3.057545157623291,7.472153743743896
1789799208617816300,5.37081640625,-0.8922890312194823,-3.069516165924072,7.542932330322265
1789799208627789300,5.380789306640625,-0.6590040069580078,-3.0927099945068357,7.5731591262817375
1789799208637761300,5.39076123046875,-0.8693944778442382,-3.166032420349121,7.768885111999511
1789799208647733200,5.400733154296875,-1.1046247909545899,-3.425354387664795,8.053795109558106
1789799208657705200,5.410705322265625,-1.361851831817627,-3.8516719207763668,8.189815691375731
1789799208667677200,5.42067724609375,-1.5632640464782714,-4.461594793701171,8.335712355041503
1789799208677649200,5.430649169921875,-1.5484499237060545,-5.2724809684753415,8.64456436920166
1789799208687621400,5.440621337890625,-1.363647483062744,-5.980715747070312,8.82951644744873
1789799208697593000,5.450593017578125,-1.141585279083252,-6.369773516845703,8.996512013244628
1789799208707565300,5.4605654296875,-1.02142628326416,-6.630741497802734,9.184456843566894
1789799208717538300,5.470538330078125,-0.8369231178283691,-6.808062058258057,9.329156406402587
1789799208727510300,5.48051025390625,-0.5671265182495117,-6.819883428955078,9.493757770538329
1789799208737482200,5.490482177734375,-0.5018845230102539,-6.572233194732665,9.795277542114258
1789799208747454200,5.5004541015625,-0.5964554885864257,-6.358550696563721,10.08153427810669
1789799208757426200,5.51042626953125,-0.6200982299804687,-6.292111600494384,10.04831473007202
1789799208767398400,5.5203984375,-0.489015689086914,-6.185120713806152,9.859771349334716
1789799208777370000,5.5303701171875,-0.4086602958679199,-6.041169338989257,9.922918418121338
1789799208787342300,5.54034228515625,-0.4085106582641601,-6.0522425216674804,10.035445896148682
1789799208797314000,5.55031396484375,-0.21921908950805663,-5.889885721588135,10.206032764434815
1789799208807287300,5.560287353515625,-0.2136824981689453,-6.138433781433105,10.043675964355469
1789799208817259300,5.57025927734375,-0.1304839904785156,-6.750152305603027,9.69771382446289
1789799208827231200,5.580231201171875,-0.25902269210815426,-7.094019519042968,9.873986921691895
1789799208837203200,5.590203125,-0.395192911529541,-7.076063006591797,9.913191973876952
1789799208847175400,5.600175537109375,-0.08858546142578125,-7.454795781707763,9.232939427185059
1789799208857147100,5.610147216796875,0.28086978225708004,-7.523479441833496,8.96987651977539
1789799208867119400,5.620119384765625,0.29658173065185545,-7.677456536102294,8.577377085113525
1789799208877091000,5.630091064453125,0.35942952423095703,-7.827842327880859,8.267028694915771
1789799208887063300,5.640063232421875,0.2742857276916504,-7.743596356964111,8.295160564422607
1789799208897035300,5.65003515625,0.21532851181030271,-7.74404526977539,8.451531860351562
1789799208907008300,5.66000830078125,0.10579378585815429,-7.827543052673339,8.669104936218261
1789799208916980200,5.669980224609375,-0.02498947982788086,-7.829189066314697,8.866476935577392
1789799208926952400,5.679952392578125,-0.08110358123779296,-7.715614125061035,9.100061235046386
1789799208936924200,5.689924072265625,-0.45175592575073237,-7.550563848114013,9.044096771240234
1789799208946896400,5.699896484375,-0.8379705810546875,-7.355885325622558,8.885929824066162
1789799208956868000,5.7098681640625,-0.9985317298889159,-7.136217323303223,8.8236805809021
1789799208966840300,5.71984033203125,-0.9626187049865722,-7.00393768157959,8.869918600463867
1789799208976812300,5.729812255859375,-0.6275801101684569,-6.8305076988220215,8.91316386795044
1789799208986784300,5.7397841796875,-0.43499651412963863,-6.54365241241455,9.006986645507812
1789799208996757200,5.74975732421875,-0.3049614364624023,-6.313360140228271,8.998008389282226
1789799209006729500,5.7597294921875,-0.23014263458251952,-6.112097563171386,9.022698593902588
1789799209016701200,5.769701171875,-0.11387421646118163,-6.224924316406249,8.849418248748778
1789799209026673400,5.77967333984375,0.12898761444091797,-6.669796912384033,8.745270476531982
1789799209036645000,5.78964501953125,0.5223848747253418,-7.328800919342041,8.718186070251464
1789799209046617300,5.799617431640625,0.7025485496520996,-8.029254542541503,8.933215306854247
1789799209056589300,5.80958935546875,0.4773439559936523,-8.378359072113037,9.312097719573973
1789799209066561300,5.819561279296875,0.2545335639953613,-8.355015605926512,9.60897872543335
1789799209076533200,5.829533203125,-0.02528875503540039,-8.17126062850952,9.11098478012085
1789799209086506200,5.83950634765625,-0.2989759323120117,-7.813477117919922,8.24173993988037
1789799209096478200,5.849478271484375,-0.40057986526489253,-7.1586629638671875,7.962366533660888
1789799209106450400,5.859450439453125,-0.7939771255493163,-6.903830124664307,7.303961077117919
1789799209116422100,5.869422119140625,-1.1161468864440918,-6.893654767608642,6.972962697601318
1789799209126394400,5.879394287109375,-1.2611457244873046,-6.771101570129394,6.927772141265868
1789799209136366300,5.889366455078125,-1.2345102310180662,-6.70361501083374,6.5774705108642575
1789799209146338300,5.89933837890625,-1.2062287239074707,-6.682516108703613,6.519860033416748
1789799209156310300,5.909310302734375,-1.5867571502685547,-6.592733546447754,6.762572226715087
1789799209166282200,5.9192822265625,-1.8573019378662108,-6.5966241241455075,7.173776361846923
1789799209176255200,5.929255126953125,-2.0866963844299313,-6.606949118804931,8.138190718078613
1789799209186227200,5.939227294921875,-1.7374422172546387,-6.48634121017456,9.317185398101806
1789799209196199200,5.94919921875,-1.0031704956054688,-6.200683024597168,10.397868172454833
1789799209206171400,5.95917138671875,-0.33309330596923825,-5.860257476043701,11.244667372131348
1789799209216143400,5.969143310546875,-0.40237551651000975,-5.595847830200195,11.769895361328125
1789799209226115300,5.979115234375,-0.7193079612731933,-5.549460173034667,11.694777284240722
1789799209236086800,5.989086669921875,-0.9832686943054199,-5.638793822479248,10.563367362213134
1789799209246058800,5.999058837890625,-0.9853636207580566,-5.600935508728027,9.054870678710937
1789799209256030700,6.00903076171875,-1.0078092613220215,-5.057900644683838,8.469189097595214
1789799209266003000,6.0190029296875,-1.1962030044555663,-4.608389282989502,8.283339193725585
1789799209275975700,6.0289755859375,-1.1999439445495605,-4.465784646606445,8.345438799285889
1789799209285948000,6.038947998046875,-0.9712976860046386,-4.531176279449463,8.70217484664917
1789799209295919900,6.048919921875,-0.6208464179992675,-4.687397937774658,9.085546387481688
1789799209305891800,6.058891845703125,-0.5674257934570313,-4.721964224243163,9.662997900390625
1789799209315863800,6.06886376953125,-0.7029974624633789,-4.553472282409667,10.540622446441649
1789799209325835800,6.078835693359375,-0.821061531829834,-4.527584976959228,11.0187145904541
1789799209335807700,6.088807861328125,-0.8292916000366211,-4.675426929473876,11.065551160430907
1789799209345780000,6.098780029296875,-0.9944915145874023,-4.769698619842529,11.287613364410399
1789799209355751700,6.108751708984375,-1.1245265922546386,-5.166238269805908,10.963199039459228
1789799209365725000,6.118724853515625,-1.0161889671325683,-5.563675745391845,10.213065731811524
1789799209375697000,6.12869677734375,-0.9169792358398436,-5.651363381195068,9.605686698150635
1789799209385668900,6.1386689453125,-0.6585550941467285,-5.393986702728271,9.2580785446167
1789799209395640800,6.148640869140625,-0.6425438705444335,-4.9820343795776365,8.796596174621582
1789799209405612800,6.15861279296875,-0.7528267845153808,-4.6447512207031245,8.586355341339111
1789799209415584800,6.168584716796875,-0.5511152946472168,-4.354454269409179,8.57423469543457
1789799209425557000,6.178556884765625,-0.7019499992370605,-4.297591979980469,8.821136741638183
1789799209435528700,6.18852880859375,-0.5508160194396973,-4.388422005462647,9.005340631866455
1789799209445501000,6.1985009765625,-0.31064766540527344,-4.527435339355469,9.256282893371582
1789799209455472600,6.20847265625,-0.33099837951660155,-4.591180958557128,9.134777159118652
1789799209465445600,6.218445556640625,-0.14021043472290037,-4.348169490051269,9.183559017944335
1789799209475417900,6.22841796875,-0.12629413757324218,-4.189254354858398,8.88144069595337
1789799209485389800,6.238389892578125,-0.74699091796875,-4.110245700073242,8.88099178314209
1789799209495361800,6.24836181640625,-0.3628711891174316,-3.980060984802246,8.314912728118896
1789799209505334000,6.258333984375,-0.14215572357177733,-3.5672108360290524,7.7605054061889645
1789799209515305700,6.2683056640625,-0.34671032791137696,-3.1735143005371094,7.273734281158447
1789799209525278000,6.27827783203125,-0.3290530906677246,-2.8329391143798826,6.617274113464355
1789799209535249700,6.288249755859375,-0.037708676147460936,-2.49640414352417,6.025158115386962
1789799209545222000,6.298221923828125,-0.27667992935180663,-2.0886416732788087,5.522675041961669
1789799209555195000,6.30819482421875,-0.8542810798645019,-1.7239748329162596,5.199158542633056
1789799209565166600,6.31816650390625,-0.8641571617126464,-1.5035586425781249,5.050718039703368
1789799209575138800,6.328138916015625,-0.5472247169494628,-1.4440028762817383,5.163245517730712
1789799209585110800,6.33811083984375,-0.3872621185302734,-1.534084713745117,5.193023400878906
1789799209595082800,6.348082763671875,-1.0606313354492187,-2.020855838775635,5.367201571655273
1789799209605055000,6.358054931640625,-1.7374422172546387,-2.555810272216797,5.719149215698242
1789799209615026700,6.368026611328125,-1.871218235015869,-2.5568577354431152,6.437409713745117
1789799209624999000,6.3779990234375,-1.6558897232055663,-2.443432431793213,7.000346379089355
1789799209634971000,6.387970947265625,-1.6497545814514158,-2.21553436126709,6.902034473419189
1789799209644942800,6.39794287109375,-1.9155109657287597,-1.9258359603881834,6.743119338226318
1789799209654915800,6.407915771484375,-1.731456713104248,-1.8372504989624023,6.369025328826904
1789799209664887800,6.4178876953125,-1.57044665145874,-1.8819921424865722,5.848585742950439
1789799209674859800,6.42785986328125,-1.4327800559997559,-1.8071733406066894,5.572803639221191
1789799209684831700,6.437831787109375,-1.448492004394531,-1.6175824966430663,5.7311202239990235
1789799209694803700,6.4478037109375,-1.3358148887634276,-1.4755764106750486,6.0339867340087885
1789799209704776000,6.45777587890625,-0.9666589202880859,-1.392976453399658,6.221482651519775
1789799209714748000,6.467747802734375,-1.015740054321289,-1.3410522048950195,6.572981382751465
1789799209724719900,6.477719970703125,-1.1142015975952149,-1.3799579818725585,7.180061141204834
1789799209734691800,6.48769189453125,-1.4034510856628417,-1.5466542724609373,7.6294228652954095
1789799209744664800,6.497664794921875,-1.871816785430908,-1.9062334342956542,7.812878567504883
1789799209754636800,6.50763671875,-1.1894693122863769,-2.3509563926696777,7.4597338226318355
1789799209764608800,6.51760888671875,-0.8179191421508789,-2.747645680236816,7.015908689880371
1789799209774580700,6.527580810546875,-0.9585784896850585,-2.9785365028381348,6.897395707702636
1789799209784552700,6.537552734375,-1.0102034629821777,-3.0988451362609863,6.992116310882568
1789799209794525000,6.54752490234375,-1.0541969184875488,-3.3010055389404296,7.1309800071716305
1789799209804496600,6.55749658203125,-1.1026795021057127,-3.5116952850341794,7.313088970947265
1789799209814468900,6.56746875,-1.0133458526611328,-3.769221601104736,7.457788533782958
1789799209824440800,6.57744091796875,-0.762253953552246,-4.085405857849121,7.803002485656738
1789799209834412800,6.587412841796875,-0.40716391983032224,-4.408473444366455,8.257751163482666
1789799209844385800,6.5973857421875,-0.4444236831665039,-4.869357263946533,8.821436016845702
1789799209854357800,6.607357666015625,-0.5645826789855957,-5.557989516448974,9.497199435424804
1789799209864329700,6.617329833984375,-0.7896376350402832,-6.3423898353576655,10.007613301849364
1789799209874302000,6.627302001953125,-0.699705435180664,-6.874800429534912,10.315268215179442
1789799209884273700,6.637273681640625,-0.6361094535827636,-7.371447636413574,10.474183350372314
1789799209894246000,6.647245849609375,-0.787841983795166,-7.719803977966309,10.657938327789306
1789799209904217600,6.657217529296875,-0.7094318794250488,-7.561188117980957,10.641178916168212
1789799209914189800,6.66718994140625,-0.2748842781066894,-7.234678866577148,10.261997228240967
1789799209924161800,6.677161865234375,-0.3420715621948242,-6.899041721343994,9.822511585998535
1789799209934134800,6.687134765625,-0.7978677032470702,-6.795941412353515,9.715969612121581
1789799209944106800,6.697106689453125,-0.7294833183288574,-6.692541828155517,9.804106160736083
1789799209954078700,6.70707861328125,-0.3773860366821289,-6.68386284713745,10.044873065185547
1789799209964050700,6.71705078125,0.06778583450317383,-6.817638864898681,10.37497361907959
1789799209974023000,6.72702294921875,0.022296002960205077,-6.95919603805542,10.50171666946411
1789799209983994600,6.73699462890625,0.013916297149658202,-7.256675594329834,10.190320816040039
1789799209993966800,6.746966796875,-0.1822586013793945,-7.496993585968017,9.854384395599364
1789799210003938600,6.7569384765625,-0.21727380065917967,-7.670273931121826,9.437494031524658
1789799210013910800,6.766910888671875,-0.15307926864624022,-7.774720978546142,9.274239405822753
1789799210023882800,6.7768828125,-0.2645592834472656,-7.62912359008789,9.347711469268798
1789799210033855700,6.786855712890625,-0.20425532913208005,-7.415141816711425,9.291597367858886
1789799210043827700,6.79682763671875,-0.21592706222534178,-7.38072516784668,9.150189832305907
1789799210053800000,6.806800048828125,-0.54902036819458,-7.125742691040038,9.358485376739502
1789799210063771600,6.816771728515625,-0.5463268913269043,-6.852654064178466,9.338882850646971
1789799210073744000,6.826743896484375,-0.8063970466613769,-6.807014595031738,9.44258171005249
1789799210083715600,6.836715576171875,-0.7058405769348144,-6.858041017913818,9.522188915252684
1789799210093687800,6.846687744140625,-0.41539398803710936,-7.044489472198486,9.024194969940185
1789799210103659800,6.85665966796875,-0.04773439559936523,-6.966677918243408,8.281543542480469
1789799210113631700,6.8666318359375,0.047884033203124995,-6.673088939666748,7.968052762603759
1789799210123603700,6.876603759765625,0.0652419952392578,-6.297947467041015,7.86585027923584
1789799210133577000,6.886576904296875,-0.20515315475463866,-5.9670987251281735,8.223783427429199
1789799210143548700,6.896548583984375,-0.45400048980712887,-5.84828646774292,8.645911107635497
1789799210153521000,6.90652099609375,-0.2510918991088867,-6.161777247619629,8.562413324737548
1789799210163492600,6.91649267578125,0.061949967956542965,-6.494870553588867,8.397363047790527
1789799210173464800,6.92646484375,0.1927332336425781,-6.69104545211792,8.277054414367676
1789799210183436800,6.936436767578125,0.3716998077392578,-6.952911258697509,8.218546111297607
1789799210193408800,6.94640869140625,0.5852326683044433,-7.2337810409545895,8.2736127494812
1789799210203380700,6.956380615234375,0.6010942543029785,-7.376385677337646,8.513332190704345
1789799210213352700,6.966352783203125,0.32995091629028317,-7.427711375427245,8.56750100326538
1789799210223325700,6.97632568359375,0.036361937713623046,-7.300968325042724,8.747664678192137
1789799210233298200,6.986298095703125,0.07601590270996093,-7.296329559326171,8.717737157440185
1789799210243270400,6.9962705078125,-0.03366846084594726,-7.284059275817871,8.38943225479126
1789799210253242400,7.006242431640625,-0.36795886764526364,-6.995857250976562,8.611644096374512
1789799210263214300,7.01621435546875,-0.7362170104980469,-6.845770734405517,8.468141634368896
1789799210273186600,7.0261865234375,-0.98955347366333,-6.7377323844909665,8.379256897735596
1789799210283158300,7.036158203125,-1.3672387855529784,-6.592134996032715,8.621669815826415
1789799210293130500,7.046130615234375,-1.492635097503662,-6.443395217895508,8.93171893081665
1789799210303102500,7.0561025390625,-1.341351480102539,-6.474819114685058,9.195380388641357
1789799210313074400,7.066074462890625,-1.172859538269043,-6.504297722625732,9.124302526855468
1789799210323047400,7.07604736328125,-1.1228805786132812,-6.5020531585693355,9.128342742156981
1789799210333019400,7.086019287109375,-1.280748250579834,-6.3524155548095695,9.184157568359375
1789799210342991400,7.095991455078125,-1.0978910987854003,-6.147262400054931,9.189993434906006
1789799210352963300,7.10596337890625,-0.6477811866760254,-5.9862523384094235,9.296086495971679
1789799210362935300,7.115935302734375,-0.25962124252319335,-5.795464393615722,9.510816457366943
1789799210372907500,7.125907470703125,-0.1696890426635742,-5.661688375854492,9.774777190399169
1789799210382879500,7.13587939453125,-0.29777883148193357,-5.497535924530029,10.011354241943359
1789799210392851500,7.1458515625,-0.6584054565429687,-5.492148970794678,10.030657492828368
1789799210402823400,7.155823486328125,-0.7278373046875,-5.544372494506836,9.524882392120361
1789799210412795400,7.16579541015625,-0.7242460021972655,-5.3576247650146485,8.879345769500732
1789799210422768400,7.175768310546875,-0.527322915649414,-5.215469041442871,8.258948264312744
1789799210432740400,7.185740234375,-0.28999767608642574,-5.212925202178955,7.954435740661621
1789799210442712300,7.19571240234375,-0.17372925796508787,-5.037998843383789,8.285284482574463
1789799210452684300,7.205684326171875,-0.04638765716552734,-4.965274967956542,9.011026860809325
1789799210462656500,7.215656494140625,-0.05880757827758789,-4.876689506530761,9.963619846343994
1789799210472628500,7.22562841796875,-0.16130933685302734,-4.938789112091064,10.592546694946288
1789799210482600400,7.235600341796875,-0.5288192916870117,-5.232228453063964,11.01257944869995
1789799210492572400,7.245572509765625,-0.5826888290405273,-5.4978351997375485,11.109694253540038
1789799210502544400,7.25554443359375,-0.4782417816162109,-5.597643481445312,11.324573852539062
1789799210512516600,7.2655166015625,-0.678007982635498,-5.604826086425781,11.1474029296875
1789799210522489300,7.2754892578125,-0.2302922721862793,-5.687725318908691,11.104756212615966
1789799210532461300,7.28546142578125,-0.00029927520751953123,-5.7052329185485835,10.656441951751708
1789799210542433500,7.29543359375,-0.4068646446228027,-5.59869094467163,9.960926369476319
1789799210552405200,7.3054052734375,-0.3799298759460449,-5.110872356414794,9.536703762817382
1789799210562377500,7.31537744140625,-0.17328034515380858,-4.582801252746582,9.205555745697021
1789799210572349200,7.32534912109375,0.16415245132446288,-4.425981044006347,8.66326906967163
1789799210582321400,7.3353212890625,-0.12659341278076172,-4.195688771820068,8.224232340240478
1789799210592293400,7.34529345703125,-0.011671733093261718,-3.6424785507202144,7.570764924621582
1789799210602265300,7.355265380859375,-0.09906009368896483,-3.162141842651367,6.629544396972656
1789799210612237600,7.365237548828125,-0.12644377517700195,-3.243694336700439,5.848735380554199
1789799210622210600,7.37521044921875,-0.10564414825439453,-3.312976547241211,5.474342095947265
1789799210632182300,7.385182373046875,0.007930792999267577,-2.7724855224609373,5.471947894287109
1789799210642154500,7.395154541015625,-0.22655133209228515,-2.17707749710083,5.705532193756103
1789799210652126200,7.405126220703125,-1.0232219345092772,-2.0497358963012693,5.412092852783203
1789799210662098400,7.415098388671875,-1.2116156776428222,-2.2928970024108883,4.812046061706543
1789799210672070400,7.4250703125,-0.8967781593322753,-2.4130559982299804,4.563198726654052
1789799210682042400,7.43504248046875,-0.9192237998962401,-2.1390695457458495,4.997596690368652
1789799210692014300,7.445014404296875,-1.5158289260864257,-2.1130326026916504,5.015553202819824
1789799210701986300,7.454986328125,-1.7491139503479003,-2.2981343185424805,5.2639516250610345
1789799210711958500,7.46495849609375,-1.383399646759033,-2.1058499977111813,5.749076736450195
1789799210721931500,7.474931640625,-1.175852290344238,-1.6195277854919432,6.358550696563721
1789799210731903200,7.4849033203125,-1.5140332748413086,-1.4986206016540526,6.365434026336669
1789799210741875500,7.49487548828125,-1.6949451377868652,-1.6690578323364256,6.082020404815673
1789799210751847400,7.504847412109375,-1.7082628845214842,-1.777395457458496,5.868337906646728
1789799210761819400,7.5148193359375,-1.7381904052734374,-1.7977461715698242,5.951386776733398
1789799210771791400,7.524791259765625,-1.4541782333374023,-1.7319056259155272,6.317998905944824
1789799210781763300,7.534763427734375,-1.4290391159057616,-1.7993921852111816,6.433070223236084
1789799210791735300,7.5447353515625,-1.5086463211059569,-1.9589058708190916,6.235249311065673
1789799210801707500,7.55470751953125,-1.167023671722412,-2.016217073059082,6.13514175415039
1789799210811679500,7.564679443359375,-1.0995371124267577,-2.0293851821899414,6.083666418457031
1789799210821652500,7.574652587890625,-1.402702897644043,-2.094627177429199,6.226420692443847
1789799210831624400,7.58462451171875,-1.5855600494384765,-2.089389861297607,6.653336775970459
1789799210841596400,7.594596435546875,-1.163282731628418,-2.1321862159729004,6.498012943267822
1789799210851568400,7.604568359375,-0.9789292037963867,-2.2123919715881346,6.3064768104553215
1789799210861540400,7.614540283203125,-1.0491092399597168,-2.3183353950500485,6.353163742828369
1789799210871512300,7.62451220703125,-1.1149497856140136,-2.507028413391113,6.629993309783935
1789799210881484500,7.634484619140625,-0.867598826599121,-2.818124991607666,7.055712292480468
1789799210891456300,7.644456298828125,-0.8520365158081055,-3.333476898956299,7.375637489318847
1789799210901428500,7.654428466796875,-0.7522282341003418,-3.9395091941833495,7.725789482116698
1789799210911400200,7.664400146484375,-0.46806642456054687,-4.408174169158936,8.231714220428467
1789799210921372400,7.674372314453125,-0.28924948806762696,-4.859032269287109,8.732401642608641
1789799210931345400,7.684345458984375,-0.3021183219909668,-5.358223315429687,9.280973097991943
1789799210941317400,7.6943173828125,-0.4095581214904785,-5.877615438079833,9.692626145935058
1789799210951289300,7.704289306640625,-0.4535515769958496,-6.469731436157226,9.976638317871092
1789799210961261600,7.714261474609375,-0.29613281784057616,-6.9992989158630365,10.186579875946045
1789799210971233300,7.7242333984375,-0.07362170104980469,-7.17557201309204,10.040234299468993
1789799210981205500,7.73420556640625,-0.12330138549804687,-7.152078909301758,10.070610733032225
1789799210991177200,7.74417724609375,0.03995324020385742,-7.099107197570801,9.957335066986083
1789799211001149400,7.7541494140625,0.07107786178588867,-7.100304298400879,9.935188701629638
1789799211011121400,7.764121337890625,-0.14290391159057617,-7.184250994110107,9.998485408020018
1789799211021093400,7.77409326171875,-0.15337854385375976,-7.253084291839599,9.904961905670165
1789799211031066400,7.78406640625,-0.13901333389282225,-7.324910341644287,10.092607460784912
1789799211041038600,7.79403857421875,-0.034715924072265626,-7.202207506561279,10.428992794036864
1789799211051010300,7.80401025390625,-0.232387198638916,-7.212083588409423,10.728417639160156
1789799211060982500,7.813982421875,-0.405368268585205,-7.129333993530273,10.949432379913329
1789799211070954200,7.823954345703125,-0.24869769744873046,-7.064391273498535,10.936114633178711
1789799211080926500,7.833926513671875,-0.2941875289916992,-6.889764189910888,10.432434458923339
1789799211090898400,7.8438984375,-0.1605611488342285,-6.747907741546631,9.701005851745604
1789799211100870400,7.853870361328125,-0.5069722015380859,-6.7453639022827145,8.994117811584472
1789799211110842400,7.86384228515625,-0.854879630279541,-6.6629135826110835,8.572289406585693
1789799211120814300,7.873814453125,-0.6917746421813964,-6.610839696502685,8.304587733459472
1789799211130786300,7.883786376953125,-0.22071546554565427,-6.542305673980713,8.24248812789917
1789799211140759600,7.893759521484375,-0.11537059249877929,-6.590488982391357,8.195501920318604
1789799211150731300,7.903731201171875,-0.07272387542724609,-6.675782416534424,8.166322587585448
1789799211160703500,7.913703369140625,0.201112939453125,-6.882731222534179,8.136395066833495
1789799211170675500,7.923675537109375,0.0674865592956543,-7.423820797729491,8.2743609375
1789799211180647400,7.9336474609375,0.18914193115234373,-7.902960404968261,8.405892391204834
1789799211190619400,7.943619384765625,0.37888241271972656,-8.087613208007811,8.7853733543396
1789799211200591400,7.95359130859375,0.47884033203125,-7.689577182006835,9.30252091293335
1789799211210563300,7.963563232421875,0.3859153800964355,-7.027730060577392,9.707440268707275
1789799211220535600,7.97353564453125,0.13138181610107422,-6.501304970550537,9.803058697509766
1789799211230506800,7.9835068359375,0.08454524612426757,-6.2964510910034175,9.726144969177245
1789799211240479700,7.993479736328125,0.10773907470703124,-6.3533133804321285,9.56363853149414
1789799211250451500,8.003451416015626,0.15547347030639647,-6.467786147308349,9.279925634765624
1789799211260423700,8.013423583984375,0.1836053398132324,-6.575076309204102,9.076568131256103
1789799211270395600,8.023395751953124,0.20006547622680662,-6.6711436508178705,8.91211640472412
1789799211280367600,8.03336767578125,0.27144261322021485,-6.80551821899414,8.661922331237793
1789799211290339600,8.043339599609375,0.24405893173217771,-6.848164936065674,8.46559779510498
1789799211300311600,8.0533115234375,0.07496843948364257,-6.802375829315185,8.38943225479126
1789799211310283800,8.06328369140625,-0.42721535873413086,-6.700173345947265,8.105270445251465
1789799211320255700,8.073255859375,-0.4756979423522949,-6.578966886901855,8.169913890075684
1789799211330227700,8.083227783203125,-0.7416039642333984,-6.545298426055908,8.136694342041014
1789799211340199700,8.09319970703125,-1.2454337760925291,-6.518662932586669,8.24218885269165
1789799211350172700,8.103172607421875,-1.6322469818115233,-6.613682810974121,8.324040621948242
1789799211360144600,8.11314453125,-1.709160710144043,-6.694786392211913,8.411279344940185
1789799211370116600,8.12311669921875,-1.4698901817321777,-6.720972972869872,8.584709327697754
1789799211380088600,8.133088623046875,-0.9047089523315429,-6.696582043457031,8.913612780761719
1789799211390060500,8.143060546875,-0.2371756019592285,-6.604554917144775,9.235782541656494
1789799211400032800,8.15303271484375,0.043245267486572266,-6.48020606842041,9.421632445526123
1789799211410004700,8.163004638671875,-0.1406593475341797,-6.234800398254394,9.623044660186768
1789799211419976700,8.172976806640625,-0.31663316955566406,-6.12287147064209,9.611372927093505
1789799211429948700,8.18294873046875,-0.5781997009277343,-6.129156249999999,9.44183352203369
1789799211439920600,8.192920654296875,-0.8952817832946777,-6.308571736907958,9.357737188720703
1789799211449892900,8.202892822265625,-1.1327566604614256,-6.5786676116943354,9.327211117553711
1789799211459865600,8.212865478515624,-1.233462767791748,-6.659920830535889,9.475950895690918
1789799211469837600,8.222837646484376,-1.2217910346984862,-6.736984196472168,9.638906246185302
1789799211479809800,8.232809814453125,-1.022773021697998,-6.681618283081054,9.846004689788817
1789799211489781500,8.242781494140624,-0.9507973342895507,-6.379051048278808,9.922469505310058
1789799211499753700,8.252753662109376,-0.7914332862854003,-6.367229677581787,9.750236623382568
1789799211509725700,8.2627255859375,-0.7451952667236328,-6.236596049499512,9.749787710571288
1789799211519697700,8.27269775390625,-0.6980594215393066,-5.989694003295898,9.887603943634033
1789799211529670000,8.282669921875,-0.7062894897460937,-5.800103159332275,10.099191515350341
1789799211539641600,8.2926416015625,-0.6940192062377929,-5.593603266143798,10.457872851562499
1789799211549613800,8.30261376953125,-0.7420528770446777,-5.5440732192993165,10.733954230499267
1789799211559585500,8.31258544921875,-0.5541080467224121,-5.593902541351318,10.60990465698242
1789799211569558500,8.32255859375,-0.5829881042480468,-5.716605376434326,9.989956064605712
1789799211579530800,8.33253076171875,-0.4469675224304199,-5.633706143951415,9.663446813201904
1789799211589502500,8.34250244140625,-0.548421817779541,-5.386953735351562,9.384522319793701
1789799211599474700,8.352474609375,-0.7697358337402344,-5.1696799346923825,9.26331586074829
1789799211609446700,8.36244677734375,-0.6724713912963867,-4.840776481628418,9.031826487731934
1789799211619418600,8.372418701171876,-0.2572270408630371,-4.495113616943359,8.57438433303833
1789799211629390600,8.382390625,-0.3371335212707519,-4.382137226104736,7.742399256134033
1789799211639362600,8.392362548828125,-0.6657376991271973,-4.248510845947266,7.120505374908447
1789799211649334800,8.402334716796876,-0.6178536659240722,-3.8582559753417964,6.752546507263183
1789799211659306800,8.412306640625,-0.25528175201416015,-3.3387142150878906,6.796091049957275
1789799211669278700,8.42227880859375,0.3462614151000976,-2.787449282836914,6.796988875579833
1789799211679250700,8.432250732421876,0.2929904281616211,-2.5176526832580564,6.590189707183837
1789799211689223700,8.4422236328125,0.013168109130859374,-2.4163480255126952,6.500257507324219
1789799211699195600,8.452195556640625,0.6048351943969726,-2.3042694602966307,6.483049182891845
1789799211709167600,8.462167724609374,0.5060743759155273,-2.332102054595947,6.473023463439941
1789799211719139600,8.4721396484375,-0.3308487419128418,-2.3139959045410157,6.09054974822998
1789799211729111600,8.482111572265625,-1.830367169189453,-2.4628853202819823,5.823895538330078
1789799211739083800,8.492083740234374,-1.2038345222473144,-2.403030278778076,5.887341882324218
1789799211749055700,8.5020556640625,-1.3007996894836424,-2.4953566802978515,6.015730946350097
1789799211759027700,8.51202783203125,-1.9460370368957518,-2.507178050994873,5.5535003883361815
1789799211768999700,8.521999755859374,-1.5809212837219238,-2.369810730743408,5.480177962493896
1789799211778971600,8.5319716796875,-1.119738188934326,-1.899350104522705,5.4266077003479
1789799211788944000,8.54194384765625,-1.178545767211914,-1.4525322196960448,5.277867922210693
1789799211798916600,8.55191650390625,-1.5364789154052734,-1.2856862915039062,4.987421333312988
1789799211808888600,8.561888671875,-1.615936483001709,-0.97683427734375,5.099799173736572
1789799211818860800,8.57186083984375,-1.500865165710449,-0.9030629386901855,5.515642074584961
1789799211828832500,8.58183251953125,-1.4839561164855957,-1.205330898284912,5.676502498626709
1789799211838804700,8.5918046875,-1.6768389877319334,-1.6282067665100097,5.699097776794433
1789799211848776700,8.601776611328125,-1.7178396911621092,-1.984194625854492,5.729174935150146
1789799211858748700,8.611748779296875,-1.6002245346069335,-2.2533926750183104,5.673509746551513
1789799211868721000,8.621720947265626,-1.5433622451782225,-2.4383447532653806,5.505167442321777
1789799211878692600,8.631692626953125,-1.574935779571533,-2.553116795349121,5.483469989776611
1789799211888664800,8.641664794921875,-1.4377180969238281,-2.456750178527832,5.84828646774292
1789799211898636500,8.651636474609376,-1.4429554130554199,-2.3198317710876464,6.334309404754638
1789799211908609500,8.661609619140625,-1.51942022857666,-2.32387198638916,6.738480572509765
1789799211918581800,8.671581787109375,-1.471536195373535,-2.5459341903686523,6.974159798431396
1789799211928553500,8.681553466796874,-1.3703811752319335,-2.937535799407959,7.075464456176757
1789799211938525700,8.691525634765625,-1.1751041023254394,-3.336320013427734,7.20804337310791
1789799211948497700,8.70149755859375,-1.247528702545166,-3.601328209686279,7.748085485076904
1789799211958469600,8.7114697265625,-1.055244381713867,-3.867533506774902,8.172906642150878
1789799211968441600,8.721441650390625,-0.9120411949157714,-4.338143770599365,8.250269283294678
1789799211978413600,8.73141357421875,-0.734870272064209,-4.982184017181396,8.448838383483887
1789799211988385800,8.7413857421875,-0.7118260810852051,-5.623530786895752,8.910021478271483
1789799211998357800,8.751357666015625,-0.5087678527832031,-6.255600025177001,9.488819729614256
1789799212008329700,8.761329833984375,-0.36975451889038086,-6.913706206512451,10.024671988677978
1789799212018301700,8.7713017578125,-0.5059247383117675,-7.272537180328369,10.250325495147704
1789799212028274700,8.781274658203126,-0.3494038047790527,-7.4682631660461425,10.241796151733398
1789799212038246700,8.79124658203125,-0.06449380722045898,-7.823951750183105,10.34310080947876
1789799212048218600,8.801218505859374,0.12569558715820311,-7.936928141021728,10.287136345672607
1789799212058190600,8.811190673828126,0.041000703430175776,-7.66099639968872,10.216507396697997
1789799212068162600,8.82116259765625,-0.2642600082397461,-7.423820797729491,10.475829364013672
1789799212078134800,8.831134765625,-0.39653964996337887,-7.125593053436279,10.85979945526123
1789799212088106800,8.841106689453126,-0.24181436767578124,-6.929867067718505,10.892270815277099
1789799212098078700,8.85107861328125,-0.2079962692260742,-6.71648384475708,10.59868183670044
1789799212108050700,8.86105078125,-0.35883097381591794,-6.786963156127929,10.311826550292968
1789799212118022700,8.871022705078126,-0.1580173095703125,-6.771700120544433,10.254664985656738
1789799212127995000,8.880994873046875,-0.1144727668762207,-7.015310139465331,10.201094723510742
1789799212137966600,8.890966552734374,-0.2871545616149902,-7.249492989349365,10.090961447143554
1789799212147939600,8.900939697265626,-0.4860229370117187,-7.672967407989502,9.795427179718017
1789799212157911800,8.910911865234375,-0.44487259597778317,-7.68703334274292,9.741108729553222
1789799212167883500,8.920883544921875,-0.2041056915283203,-7.920767279815673,9.548076220703125
1789799212177855700,8.930855712890626,-0.2018611274719238,-8.257601525878906,9.029731561279297
1789799212187827700,8.94082763671875,-0.3672106796264648,-8.142081295776366,8.754996920776367
1789799212197799700,8.950799560546875,-0.6667851623535156,-7.917175977325439,8.417115211486816
1789799212207772000,8.96077197265625,-1.1176432624816894,-7.654412345123291,8.275408400726318
1789799212217743600,8.97074365234375,-0.9944915145874023,-7.409754862976074,8.220341762542724
1789799212227715800,8.9807158203125,-0.6554127044677734,-7.194575988769531,8.594585409545898
1789799212237688800,8.990688720703124,-0.6751648681640625,-6.863876884460449,9.131634769439696
1789799212247660500,9.00066064453125,-0.30137013397216794,-6.457461152648926,9.70369932861328
1789799212257632800,9.0106328125,-0.09112930068969725,-6.068702658081055,10.072406384277343
1789799212267605800,9.020605712890625,-0.08664017257690429,-5.846790091705322,10.102932455444336
1789799212277577700,9.03057763671875,-0.2653074714660644,-5.8654947921752925,9.963170933532714
1789799212287549700,9.0405498046875,-0.48018707046508785,-6.205022515106201,9.72330185470581
1789799212297521700,9.050521728515625,-0.5508160194396973,-6.711695441436767,9.53894832687378
1789799212307493600,9.06049365234375,-0.22296002960205077,-6.933757645416259,9.488969367218017
1789799212317465900,9.0704658203125,-0.016460136413574217,-6.903381211853027,9.209147048187255
1789799212327437600,9.0804375,0.06075286712646484,-6.772298670959472,8.850016799163818
1789799212337409800,9.090409912109376,-0.09472060317993164,-6.610989334106445,8.802731316375732
1789799212347381500,9.100381591796875,-0.24181436767578124,-6.506392649078369,8.911817129516601
1789799212357353700,9.110353759765625,-0.07152677459716797,-6.579864712524413,8.93815334777832
1789799212367325700,9.12032568359375,-0.08230068206787108,-6.632387511444091,9.119963036346435
1789799212377297700,9.130297607421875,-0.49859249572753905,-6.551732843017578,8.965985942077635
1789799212387269600,9.14026953125,-0.7646481552124023,-6.603357816314697,8.424297816467284
1789799212397243000,9.150242919921874,-1.209071838378906,-6.801478003692626,7.555352251434326
1789799212407214600,9.160214599609375,-1.257105509185791,-7.030423537445068,6.707206313323974
1789799212417186800,9.170186767578125,-1.27042325592041,-7.221959670257568,6.266523570251464
1789799212427158500,9.180158447265624,-1.377713417816162,-7.302614338684082,6.580912175750732
1789799212437130800,9.190130859375,-1.2996025886535645,-7.277475221252441,7.241262921142578
1789799212447102700,9.200102783203125,-0.752677146911621,-7.180061141204834,8.094047624969482
1789799212457074700,9.21007470703125,0.14589666366577148,-7.123797402191162,9.37823754043579
1789799212467046700,9.220046630859375,0.6789058082580566,-7.071124965667724,10.762684650421141
1789799212477018600,9.2300185546875,-0.07811082916259765,-7.209090836334228,11.720365314483642
1789799212486990600,9.239990478515624,-1.423053611755371,-7.34825380783081,12.25202772064209
1789799212496962800,9.249962890625,-2.063951468658447,-7.257124507141113,11.599308493041992
1789799212506934500,9.2599345703125,-1.9372084182739258,-6.962039152526855,10.137199466705322
1789799212516906800,9.26990673828125,-1.7287632362365721,-6.579715074920654,9.2182749420166
1789799212526879700,9.279879638671876,-1.3985130447387695,-6.217741711425781,9.00833338394165
1789799212536851700,9.289851806640625,-0.8777741836547851,-5.944204171752929,9.175029674530029
1789799212546823700,9.29982373046875,-0.6141127258300781,-5.590011963653565,9.74245546798706
1789799212556795600,9.309795654296876,-0.8556278182983398,-5.307795442962647,10.520122094726561
1789799212566767600,9.319767578125,-1.143380930328369,-5.440673635101318,10.705223810577392
1789799212576739600,9.329739501953124,-1.2370540702819823,-5.530456197357178,10.570849242401122
1789799212586711600,9.339711669921876,-1.103876602935791,-5.56711741027832,10.178948358154296
1789799212596683800,9.349683837890625,-1.0577882209777831,-5.576394941711426,9.868899243164062
1789799212606655500,9.359655517578124,-0.4800374328613281,-5.4053591606140134,9.74799205932617
1789799212616627700,9.369627685546876,-0.29433716659545894,-5.336226587677001,9.886257205200195
1789799212626599400,9.379599365234375,-0.49739539489746093,-5.231929177856445,9.896282924652098
1789799212636571600,9.389571533203124,-0.09950900650024413,-5.0951604080200195,9.97888288192749
1789799212646543600,9.399543701171876,-0.722749626159668,-5.102642288208007,9.749638072967528
1789799212656516600,9.4095166015625,-0.9528922607421875,-4.976198513031005,9.379434641265869
1789799212666488600,9.419488525390625,-0.9201216255187987,-4.823717794799804,8.826822970581054
1789799212676460800,9.429460693359376,-0.845901374053955,-4.286069884490966,8.09539436340332
1789799212686432500,9.4394326171875,-0.579696076965332,-3.6483144172668456,7.476792509460449
1789799212696404700,9.44940478515625,-0.6545148788452148,-3.10273571395874,6.937947498321533
1789799212706376400,9.45937646484375,-0.41539398803710936,-2.7157728706359863,6.731148329925537
1789799212716348700,9.4693486328125,0.16789339141845702,-2.5707740325927735,6.424690517425537
1789799212726320600,9.479320556640625,0.3182791831970215,-2.4383447532653806,6.179733760070801
1789799212736292600,9.489292724609374,0.3413233741760254,-2.1341315048217773,5.7885810638427735
1789799212746264600,9.4992646484375,0.26440964584350585,-1.8739117118835449,5.455338120269775
1789799212756236500,9.509236572265625,0.21428104858398436,-1.7048212196350097,4.835389527893066
1789799212766208800,9.519208740234374,0.04878185882568359,-1.4917372718811035,4.18805725402832
1789799212776180700,9.5291806640625,-0.28356325912475583,-1.5975310577392576,3.99023634185791
1789799212786153500,9.539153564453125,-0.4987421333312988,-1.5330372505187988,4.058770364379883
1789799212796125700,9.549125732421874,-0.8460510116577148,-1.4315829551696777,4.489277750396728
1789799212806097700,9.55909765625,-1.1872247482299805,-1.5210662422180175,4.585794004821777
1789799212816069600,9.569069580078125,-1.1969511924743652,-1.5750854171752928,4.268711922454834
1789799212826041600,9.57904150390625,-1.1677718597412108,-1.2222399475097656,4.3993455505371095
1789799212836013600,9.589013671875,-1.0000281059265137,-1.071405242919922,5.017348854064941
1789799212845985500,9.598985595703125,-1.2805986129760742,-1.2271779884338379,5.2433016357421875
1789799212855957800,9.608957763671874,-1.5396213050842285,-1.6059107635498047,5.045031810760498
1789799212865929700,9.6189296875,-1.5035586425781249,-1.8787001152038574,4.969913733673096
1789799212875901700,9.628901611328125,-1.5174749397277831,-1.842487815093994,5.612307966613769
1789799212885873700,9.638873779296874,-1.3932757286071777,-1.8230349266052246,6.2684688591003415
1789799212895845600,9.648845703125,-1.6229694503784178,-2.1273978126525876,6.236596049499512
1789799212905817900,9.65881787109375,-1.7908628417968748,-2.507178050994873,6.013037469482422
1789799212915789600,9.66878955078125,-1.6894085464477537,-2.6548703659057615,6.315305429077148
1789799212925762600,9.678762451171876,-1.650353131866455,-2.6976667205810547,6.9439330024719235
1789799212935734800,9.68873486328125,-1.770362490081787,-2.8520927276611325,7.548917834472656
1789799212945706500,9.69870654296875,-1.9448399360656736,-3.1762077774047848,7.950694800567627
1789799212955678700,9.7086787109375,-1.9922750564575193,-3.5947441551208494,7.985111449432373
1789799212965650400,9.718650390625,-1.8496704200744627,-4.078672165679931,7.81452458114624
1789799212975622700,9.72862255859375,-1.6593313880920408,-4.527136064147949,7.719953615570068
1789799212985594600,9.7385947265625,-1.2732663703918456,-4.876839144134522,7.904905693817138
1789799212995566600,9.748566650390625,-1.0218751960754393,-5.17791000289917,8.298302954101562
1789799213005538800,9.758538818359375,-0.8274959487915039,-5.480626875305176,8.355464518737792
1789799213015510500,9.768510498046876,-0.7324760704040527,-5.920411792755127,8.103923706817627
1789799213025482800,9.778482666015625,-0.48018707046508785,-6.4740709266662595,8.125471521759033
1789799213035454700,9.788454833984375,-0.11118073959350586,-6.947524304962158,8.480561555480957
1789799213045426700,9.7984267578125,-0.08723872299194335,-7.335384973907471,8.932916031646728
1789799213055399700,9.808399658203125,-0.011821370697021483,-7.907599170684814,9.355941537475585
1789799213065371600,9.81837158203125,-0.017357962036132813,-8.5678002784729,10.029161116790771
1789799213075343600,9.828343505859374,-0.09591770401000976,-8.834304850769042,10.70642091140747
1789799213085315600,9.838315673828125,-0.08035539321899414,-8.668805661010742,11.404480332946777
1789799213095287600,9.84828759765625,-0.07287351303100585,-8.135197966003417,12.092214759826659
1789799213105259800,9.858259765625,-0.04683656997680664,-7.550863123321533,12.421118212890624
1789799213115231700,9.868231689453125,-0.34326866302490233,-7.064540911102294,12.352434552764892
1789799213125203700,9.87820361328125,-0.4783914192199707,-6.675782416534424,11.85608662109375
1789799213135175700,9.88817578125,-0.3963900123596191,-6.3898249557495115,11.270405039978026
1789799213145147600,9.898147705078125,-0.6401496688842773,-6.23764351272583,10.940603761291504
1789799213155119600,9.90811962890625,-0.9596259529113769,-6.258592777252197,10.505906522369385
1789799213165091800,9.918091796875,-1.0735001693725585,-6.355557944488525,10.284293231201172
1789799213175063600,9.9280634765625,-0.5517138450622558,-6.578517974090576,10.298508803558349
1789799213185035800,9.938035888671875,-0.11252747802734374,-6.927472866058349,10.252570059204102
1789799213195007500,9.948007568359374,-0.13572130661010742,-7.192331424713134,10.1644335105896
1789799213204980700,9.957980712890626,-0.3393780853271484,-7.368305246734619,9.93997710494995
1789799213214952700,9.96795263671875,-0.13422493057250975,-7.357381701660156,9.993248091888427
1789799213224924700,9.977924560546874,-0.5102642288208008,-7.293336807250976,9.680056587219237
1789799213234895600,9.9878955078125,-0.6863876884460449,-7.026233684539794,9.077615594482422
1789799213244867800,9.997867919921875,-0.830638338470459,-6.775291423034668,8.499565531158447
1789799213254839600,10.007839599609374,-1.1243769546508788,-6.602609628295898,8.309525774383545
1789799213264811800,10.017811767578126,-1.284489190673828,-6.177189920806884,8.610746270751953
1789799213274783700,10.02778369140625,-1.1948562660217283,-5.9962780578613275,9.115324270629882
1789799213284755700,10.037755615234374,-0.9897031112670898,-6.1161377784729,9.322123439025878
1789799213294727700,10.047727783203126,-0.6196493171691894,-6.231658008575439,9.425523023223876
1789799213304699600,10.05769970703125,-0.2659060218811035,-6.391470969390869,9.517101236724853
1789799213314671900,10.067671875,0.09427169036865234,-6.5972226745605465,9.593715689849853
1789799213324643800,10.077643798828126,0.3381809844970703,-6.724713912963867,9.624840311431884
1789799213334615800,10.08761572265625,0.5117606048583984,-6.874800429534912,9.616610243225097
1789799213344588800,10.0975888671875,0.5737105728149414,-7.000944929504394,9.419238243865966
1789799213354560800,10.107560791015626,0.7778162643432617,-6.979995664978027,9.101557611083983
1789799213364532700,10.11753271484375,0.29448680419921874,-6.891260565948486,8.764723365020751
1789799213374504700,10.127504638671875,-0.34222119979858395,-6.69733023147583,8.665214358520508
1789799213384476700,10.1374765625,-0.6798036338806152,-6.519261483001708,8.715791868591308
1789799213394448600,10.14744873046875,-0.9117419197082519,-6.336553968811034,8.557325646209716
1789799213404420900,10.1574208984375,-0.9599252281188965,-6.048800856781005,8.594884684753417
1789799213414392800,10.167392822265626,-1.1119570335388183,-5.839158573913574,8.364891687774657
1789799213424364800,10.17736474609375,-1.3418003929138183,-5.884199492645263,8.083273717498779
1789799213434336800,10.187336669921875,-1.7052701324462889,-6.1273605987548825,7.915679601287842
1789799213444308700,10.197308837890626,-1.9457377616882323,-6.363039824676513,8.262090653991699
1789799213454281000,10.207281005859375,-1.7489643127441405,-6.535422344207763,8.781333139038086
1789799213464252700,10.217252685546875,-1.079635311126709,-6.492326714324951,9.221716606903076
1789799213474225000,10.227224853515626,-0.22400749282836913,-6.241833365631103,9.708787007141114
1789799213484196600,10.237196533203125,0.5304653053283691,-6.006752690124511,10.406846428680419
1789799213494169600,10.247169677734375,0.6926724678039551,-5.923105269622803,10.841543667602538
1789799213504141800,10.257141845703124,-0.13916297149658202,-6.161926885223388,11.05791964263916
1789799213514113800,10.26711376953125,-1.1288660827636718,-6.532130316925048,10.950180567932128
1789799213524085800,10.277085693359375,-1.1966519172668457,-6.7094508773803705,10.583718076324462
1789799213534057700,10.2870576171875,-0.5391442863464355,-6.70989979019165,10.091260722351073
1789799213544029700,10.29702978515625,-0.012569558715820313,-6.72935267868042,9.863213014221191
1789799213554002000,10.307001953125,-0.04399345550537109,-6.490082150268554,10.08677159423828
1789799213563973600,10.3169736328125,-0.3851671920776367,-6.104914958190918,10.539126070404052
1789799213573945900,10.32694580078125,-0.8448539108276367,-5.825691189575195,10.804433541870116
1789799213583917800,10.336917724609375,-0.9796773918151855,-5.792322003936767,10.587309378814696
1789799213593889800,10.346889892578124,-0.7754220626831054,-5.718849940490722,10.373477243041991
1789799213603861800,10.35686181640625,-0.6630442222595214,-5.619490571594238,10.319308430480957
1789799213613833700,10.366833740234375,-0.23343466186523437,-5.448903703308106,10.181192922210693
1789799213623805700,10.3768056640625,0.29867665710449215,-5.34400774307251,9.979481432342528
1789799213633778000,10.38677783203125,-0.05746083984375,-5.265896913909912,9.61421604156494
1789799213643749600,10.39674951171875,-0.10205284576416015,-4.9066170272827145,9.240122032165527
1789799213653723000,10.406722900390625,-0.07197568740844726,-4.4762592788696285,8.748861779022215
1789799213663694800,10.41669482421875,-0.5678747062683105,-4.017171110534668,7.926303871154785
1789799213673666800,10.426666748046875,-0.8563760063171386,-3.535038751220703,7.469310629272461
1789799213683638800,10.436638671875,-0.7261912910461426,-3.141641490936279,6.700322983551025
1789799213693610800,10.44661083984375,-0.6368576416015624,-2.7967268142700195,6.119130530548095
1789799213703582700,10.456582763671875,-0.21263503494262695,-2.514809568786621,6.083367143249512
1789799213713555000,10.466554931640625,-0.20395605392456054,-2.34302559967041,5.857713636779785
1789799213723526700,10.476526611328126,-0.10983400115966796,-2.1082441993713377,5.97547843093872
1789799213733499000,10.486498779296875,0.20305822830200193,-1.8203414497375487,6.158335582733154
1789799213743470600,10.496470703125,0.2284966209411621,-1.6090531532287597,5.989394728088379
1789799213753442800,10.50644287109375,0.025737667846679687,-1.4628572143554686,5.144989730072021
1789799213763414800,10.516414794921875,-0.5253776268005371,-1.317110188293457,4.441692992401123
1789799213773386800,10.52638671875,-0.6859387756347656,-1.2987047630310058,4.219032238006592
1789799213783358700,10.536358642578126,-0.979976667022705,-1.2150573425292968,4.2773909034729005
1789799213793330700,10.54633056640625,-0.9412205276489257,-1.3066355560302734,4.390666569519043
1789799213803302700,10.556302734375,-0.7100304298400878,-1.432031867980957,4.240430415344238
1789799213813276000,10.56627587890625,-1.333719962310791,-1.5291466728210448,4.459649504852295
1789799213823247600,10.57624755859375,-1.5976806953430174,-1.3643956710815428,5.076455707550049
1789799213833219800,10.5862197265625,-1.2876315803527831,-1.3084312072753905,5.52881018371582
1789799213843191800,10.59619189453125,-1.5222633430480956,-1.3097779457092285,5.572354726409912
1789799213853163800,10.606163818359375,-1.3416507553100585,-1.1788450424194334,5.640888748931885
1789799213863135700,10.6161357421875,-1.0097545501708984,-1.0863690032958984,5.376628740692138
1789799213873107700,10.626107666015624,-1.240495735168457,-1.2093711135864258,4.953603234863281
1789799213883079700,10.63607958984375,-1.4226046989440917,-1.430685129547119,4.767454055786133
1789799213893052000,10.646052001953125,-1.4610615631103514,-1.5598223815917969,5.13945313873291
1789799213903023600,10.656023681640624,-1.3947721046447754,-1.5689502754211424,5.826439377593994
1789799213912995800,10.665995849609375,-1.309478670501709,-1.7649755363464354,5.935824465942383
1789799213922967600,10.675967529296875,-1.3242927932739257,-2.174533657836914,5.753715502166748
1789799213932939800,10.685939697265624,-1.0473135887145995,-2.506579500579834,5.821950249481201
1789799213942911700,10.695911865234375,-0.826149210357666,-2.7219080123901365,6.319495281982421
1789799213952883700,10.7058837890625,-0.946757118988037,-2.915539071655273,6.97834965133667
1789799213962856000,10.71585595703125,-1.1233294914245604,-3.2481834648132324,7.43788673248291
1789799213972829000,10.725828857421876,-1.3775637802124023,-3.8045360755920408,7.752424975585937
1789799213982800600,10.735800537109375,-1.2150573425292968,-4.368520204162597,8.206575102996826
1789799213992772900,10.74577294921875,-1.1245265922546386,-4.981735104370117,8.58680425415039
1789799214002744600,10.75574462890625,-1.1103110198974608,-5.7529673141479485,8.846575134277343
1789799214012716800,10.765716796875,-0.9252093040466308,-6.573430295562744,9.072976828765869
1789799214022688800,10.775688720703124,-0.7224503509521484,-7.404517546844482,9.513210659027099
1789799214032660700,10.78566064453125,-0.5787982513427734,-8.148814987945556,10.113407087707518
1789799214042632700,10.7956328125,-0.527322915649414,-8.571391580963134,10.43213518371582
1789799214052604700,10.805604736328124,-0.5014356101989745,-8.870966063690185,10.760290448760985
1789799214062577000,10.815576904296876,-0.39010523300170896,-9.08464856185913,10.970232006835937
1789799214072548900,10.825548828125,-0.4209305793762207,-8.651298061370849,10.892121177673339
1789799214082520800,10.835520751953124,-0.5627870277404785,-7.704391304779052,10.759991173553466
1789799214092492800,10.845492919921876,-0.5994482406616211,-6.7830725784301755,10.632051022338867
1789799214102464800,10.85546484375,-0.8659528129577636,-6.092046124267577,10.487201821899413
1789799214112436700,10.865436767578124,-0.9790788414001464,-5.7966614944458,10.563816275024413
1789799214122409000,10.875408935546876,-0.7263409286499023,-5.795464393615722,10.678588317108154
1789799214132380700,10.885380615234375,-0.49814358291625976,-5.987599076843261,10.663175643920898
1789799214142353700,10.895353759765625,-0.5834370170593262,-6.0996776420593255,10.533589479064942
1789799214152326000,10.905325927734374,-1.0544961936950683,-6.376956121826171,10.215759208679199
1789799214162297600,10.915297607421875,-1.096095447540283,-6.528239739227295,9.973645565795898
1789799214172269800,10.925269775390625,-0.5373486351013184,-7.066935112762451,10.088866520690917
1789799214182241800,10.93524169921875,-0.3363853332519531,-7.583484120941161,10.008211852264404
1789799214192213800,10.9452138671875,-0.4112041351318359,-7.729979335021972,9.871443082427978
1789799214202186000,10.95518603515625,-0.8444049980163574,-7.794772417449951,9.464428800201416
1789799214212157700,10.96515771484375,-0.5581482620239258,-7.634061631011963,9.18744959564209
1789799214222130000,10.9751298828125,-0.5731120223999023,-7.536946826171874,8.926182339477538
1789799214232101600,10.9851015625,-0.45549686584472654,-7.352593298339843,9.178321701812743
1789799214242073900,10.995073974609374,-0.23612813873291014,-7.200112580108642,9.51964507598877
1789799214252045800,11.0050458984375,0.018555062866210937,-7.062894897460937,9.752630825042724
1789799214262017800,11.015017822265625,-0.1788169364929199,-6.8134490119934075,10.129717586517334
1789799214271989800,11.02498974609375,-0.4026747917175293,-6.863278334045409,10.41911671218872
1789799214281961700,11.034961669921875,-0.2518400871276855,-7.122899576568603,10.375272894287109
1789799214291933700,11.04493359375,-0.2458545829772949,-7.236624155426025,10.141239682006836
1789799214301906000,11.054906005859374,-0.019003975677490233,-7.251139002990723,9.79976667022705
1789799214311877600,11.064877685546875,0.5663783302307128,-7.03536157836914,9.444078086090087
1789799214321849900,11.074849853515625,0.9361328491210937,-6.564003126525878,9.080757984161377
1789799214331822800,11.08482275390625,0.5366004470825195,-6.064812080383301,8.884283810424805
1789799214341794800,11.094794921875,-0.24435820693969726,-5.740098480224609,8.575880709075927
1789799214351766800,11.104766845703125,-0.6599018325805663,-5.766733973693848,7.964611097717285
1789799214361738800,11.11473876953125,-0.48497547378540035,-5.806238301086426,7.41184978942871
1789799214371710700,11.124710693359376,-0.47629649276733393,-5.640589473724365,7.06723438796997
1789799214381683000,11.134682861328125,-0.8397662322998046,-5.499181938171386,6.998700365447998
1789799214391654700,11.144654541015624,-1.3718775512695311,-5.568913061523437,7.350199096679687
1789799214401627000,11.154626953125,-1.2271779884338379,-5.830479592895507,8.09479581298828
1789799214411598600,11.1645986328125,-1.0516530792236327,-6.302436595153808,8.911068941497803
1789799214421570800,11.17457080078125,-1.0371382316589355,-6.7742439598083495,9.983372010040283
1789799214431542800,11.184542724609376,-0.9102455436706542,-7.238419806671142,10.918906308746337
1789799214441514800,11.1945146484375,-0.7273883918762206,-7.528267845153808,11.347468405914306
1789799214451486700,11.20448681640625,-0.3859153800964355,-7.631068878936767,11.29434705657959
1789799214461458700,11.214458740234376,-0.32561142578124996,-7.490409531402587,11.03906530456543
1789799214471430700,11.2244306640625,-0.34431612625122066,-7.13726478652954,10.702231058502196
1789799214481403000,11.23440283203125,-0.5758054992675781,-6.640916854858398,10.277110626220702
1789799214491374800,11.244374755859376,-1.3111246841430664,-6.2295630821228025,9.922020592498779
1789799214501346800,11.254346923828125,-1.2837410026550293,-6.2499137962341305,9.619902270507811
1789799214511319800,11.26431982421875,-0.8041524826049804,-6.182576874542236,9.526977318572998
1789799214521291800,11.274291748046876,-0.3904045082092285,-6.162076522827148,9.433753091430663
1789799214531263700,11.284263671875,-0.19647417373657225,-6.011690731048583,9.411008175659179
1789799214541235700,11.294235595703125,-0.30181904678344723,-5.7897781646728514,9.713276135253906
1789799214551207700,11.304207763671876,-0.6085761344909668,-5.660341637420654,10.198550884246826
1789799214561180000,11.314179931640625,-0.6863876884460449,-5.801898810577392,10.276512075805664
1789799214571151600,11.324151611328125,-0.7100304298400878,-5.833173069763183,10.038887561035155
1789799214581123800,11.334123779296876,-0.9548375495910644,-5.810278516387939,9.730484459686279
1789799214591095800,11.344095703125,-0.7320271575927734,-5.681440539550781,9.508571893310547
1789799214601067800,11.35406787109375,-0.16415245132446288,-5.438129795837402,9.478345097351074
1789799214611040000,11.3640400390625,-0.08783727340698241,-5.298667549133301,9.69786346206665
1789799214621011700,11.37401171875,0.006883329772949218,-5.1596542152404785,9.832537305450439
1789799214630984000,11.38398388671875,-0.015861585998535155,-4.830002574157715,9.935787252044678
1789799214640955600,11.39395556640625,-0.09995791931152344,-4.453664000701904,9.831489842224121
1789799214650927900,11.403927978515625,-0.08394669570922851,-4.158429008483886,9.310002793121336
1789799214660899800,11.41389990234375,-0.3485059791564941,-4.157680820465088,8.360701834869385
1789799214670871800,11.423871826171874,-0.7682394577026367,-3.9366660797119137,7.397185304260254
1789799214680843800,11.43384375,-0.5505167442321777,-3.363254782104492,6.936600759887695
1789799214690815700,11.443815673828125,-0.4978443077087402,-2.7670985687255856,6.5026517089843745
1789799214700787700,11.45378759765625,-0.3790320503234863,-2.402581365966797,6.05897621383667
1789799214710760700,11.4637607421875,0.007781155395507812,-2.1820155380249022,5.709273133850098
1789799214720732700,11.473732666015625,0.4700117134094238,-1.9632453613281249,5.311087470245361
1789799214730705000,11.483704833984374,0.6610989334106445,-1.7197849800109861,4.763563478088378
1789799214740676900,11.4936767578125,0.361973363494873,-1.5150807380676268,4.004302276611328
1789799214750648800,11.50364892578125,-0.29568390502929687,-1.394323191833496,3.424456562042236
1789799214760620800,11.513620849609374,-0.44143093109130854,-1.4469956283569334,3.348440659332275
1789799214770592800,11.5235927734375,-0.38202480239868164,-1.0998363876342774,3.7440824836730955
1789799214780564700,11.533564697265625,-0.785896694946289,-0.89378540725708,3.989039241027832
1789799214790537000,11.543536865234374,-1.1851298217773436,-1.389235513305664,4.081664917755127
1789799214800508700,11.5535087890625,-0.8583212951660156,-1.8248305778503418,3.775805655670166
1789799214810481000,11.56348095703125,-0.8463502868652343,-1.7721581413269043,3.4729391456604004
1789799214820452600,11.57345263671875,-1.2618939125061035,-1.407042388153076,3.8482302558898924
1789799214830424800,11.5834248046875,-1.4190133964538574,-1.1311106468200682,4.475960003662109
1789799214840396800,11.593396728515625,-1.6356886466979979,-1.193210252380371,5.043086521911621
1789799214850368800,11.60336865234375,-1.7755998062133789,-1.4423568626403809,5.429600452423095
1789799214860340700,11.6133408203125,-1.6395792243957519,-1.6093524284362792,5.881356378173828
1789799214870312700,11.623312744140625,-1.6925509361267088,-1.8276736923217773,6.236446411895751
1789799214880284700,11.63328466796875,-1.790114653778076,-2.0664953079223634,6.507140837097167
1789799214890257000,11.6432568359375,-1.5809212837219238,-2.3120506156921383,6.6820671958923334
1789799214900228900,11.653228759765625,-1.4577695358276366,-2.48323603439331,6.936750397491455
1789799214910200800,11.663200927734374,-1.3961188430786131,-2.609979084777832,7.193977438354492
1789799214920173800,11.673173828125,-1.319654027557373,-2.837278604888916,7.524526905059814
1789799214930145800,11.683145751953125,-1.4164695571899413,-3.228730576324463,7.688529718780517
1789799214940117800,11.69311767578125,-1.2825439018249511,-3.7388451675415038,7.536647550964355
1789799214950089700,11.70308984375,-1.159990704345703,-4.278139091491699,7.285106739044189
1789799214960061700,11.713061767578125,-1.0121487518310546,-4.688894313812256,7.344812142944336
1789799214970034000,11.723033935546875,-0.9293991569519042,-5.07525860671997,7.864503540802001
1789799214980005600,11.733005615234376,-0.6579565437316894,-5.472546444702148,8.386439502716064
1789799214989977900,11.742977783203125,-0.30750527572631836,-5.879411089324951,8.594884684753417
1789799214999949600,11.752949462890625,-0.12060790863037109,-6.379948873901367,8.735394394683837
1789799215009921800,11.762921875,-0.11342530364990233,-6.818087777709961,8.997409838867187
1789799215019893800,11.772893798828125,-0.13916297149658202,-7.173327449035644,9.456946920013428
1789799215029865700,11.78286572265625,-0.1452981132507324,-7.596801867675781,10.102483542633056
1789799215039838000,11.792837890625,-0.18510171585083007,-8.139387818908691,10.758644435119628
1789799215049809700,11.8028095703125,-0.3939958106994629,-8.259696452331543,11.404629970550536
1789799215059782000,11.812781982421875,-0.35179800643920894,-8.1717095413208,11.881824288940429
1789799215069753900,11.82275390625,0.018704700469970702,-7.802703210449218,12.229582080078124
1789799215079725800,11.832725830078125,0.1261444999694824,-7.245452774047851,12.234669758605957
1789799215089697800,11.84269775390625,-0.0626981559753418,-6.788160256958007,11.781866369628906
1789799215099669800,11.852669677734376,-0.469862075805664,-6.392518432617187,11.226710859680175
1789799215109641700,11.862641845703125,-0.634014527130127,-6.333860491943359,10.92294652404785
1789799215119614000,11.872614013671875,-0.7249941902160644,-6.6346320755004875,10.582371337890624
1789799215129585700,11.882585693359376,-0.5834370170593262,-6.840383780670166,10.014197356414794
1789799215139559000,11.892558837890626,-0.21308394775390624,-6.8682163749694825,10.0617821144104
1789799215149531000,11.90253076171875,-0.3229179489135742,-7.1878422966003415,10.122684619140625
1789799215159502800,11.9125029296875,-0.29224224014282224,-7.572859851074218,9.944615870666503
1789799215169474800,11.922474853515626,-0.27039514999389647,-7.7316253486633295,9.954043039703368
1789799215179446800,11.93244677734375,-0.2775777549743652,-7.539191390228271,9.94072529296875
1789799215189418800,11.942418701171874,-0.07167641220092773,-7.1404071762084955,9.580098667907714
1789799215199391000,11.952390869140626,-0.8533832542419433,-6.637325552368163,9.118466660308837
1789799215209362700,11.96236279296875,-1.3859434860229491,-6.235548586273193,8.813954136657715
1789799215219335000,11.9723349609375,-1.2699743431091308,-5.734561888885498,9.08539674987793
1789799215229306600,11.982306640625,-1.0215759208679198,-5.476736297607421,9.751433724212646
1789799215239279000,11.992279052734375,-0.4869207626342773,-5.588665225219726,9.806500362396239
1789799215249250800,12.002250732421874,-0.4029740669250488,-5.859060375213622,9.479242922973633
1789799215259223000,12.01222314453125,-0.9980828170776367,-6.099976917266845,9.503783489990234
1789799215269195000,12.022195068359375,-1.3019967903137206,-6.426037255859375,9.4618849609375
1789799215279167000,12.0321669921875,-0.9706991355895995,-6.964433354187011,9.214833277130126
1789799215289139000,12.042138916015626,-0.414346524810791,-7.302464701080321,9.025242433166504
1789799215299111000,12.05211083984375,-0.0020949264526367185,-7.285106739044189,8.878148668670654
1789799215309083000,12.062082763671874,0.015861585998535155,-6.987926457977294,8.906879088592529
1789799215319055000,12.07205517578125,0.037708676147460936,-6.774393597412109,8.890269314575194
1789799215329026800,12.08202685546875,0.19033903198242186,-6.59512774810791,8.689754925537109
1789799215338999000,12.0919990234375,-0.07032967376708985,-6.404190165710449,8.42744020614624
1789799215348971000,12.101970947265626,-0.3054103492736816,-6.3715691680908195,8.129362099456786
1789799215358943000,12.11194287109375,-0.5927145484924317,-6.433219860839843,8.22288560180664
1789799215368915200,12.121915283203125,-0.8381202186584472,-6.402095239257812,8.778041111755371
1789799215378888000,12.131887939453126,-0.8550292678833007,-6.468085422515869,9.303718013763428
1789799215388860000,12.14185986328125,-0.8707412162780761,-6.732943981170654,9.586233809661865
1789799215398832000,12.15183203125,-1.296759474182129,-7.081449960327148,9.662548987579346
1789799215408803800,12.161803955078126,-1.7518074272155761,-7.146991230773925,9.72943699645996
1789799215418776000,12.171776123046875,-1.6724994972229004,-6.834099001312255,9.807398188018798
1789799215428747800,12.181747802734375,-1.1532570121765136,-6.547542990112304,9.886706118011475
1789799215438720000,12.191719970703126,-0.7052420265197753,-6.35226591720581,10.005219100189208
1789799215448692000,12.20169189453125,-0.44367549514770505,-6.261735166931152,10.199448709869385
1789799215458664000,12.211663818359375,-0.8122329132080077,-6.260837341308593,10.365546450042723
1789799215468636200,12.22163623046875,-1.107018992614746,-6.169708040618896,10.19555813217163
1789799215478608000,12.23160791015625,-1.4477438163757324,-5.983409223937988,10.034697708129881
1789799215488580000,12.241580078125,-1.1164461616516113,-6.107309159851074,9.74245546798706
1789799215498552000,12.251552001953126,-0.28490999755859375,-6.373664094543456,9.52533130493164
1789799215508524000,12.26152392578125,0.1879448303222656,-6.273107624816894,9.854683670806883
1789799215518496000,12.27149609375,-0.001197100830078125,-6.104166770172119,10.118045853424071
1789799215528468000,12.281468017578124,-0.5071218391418457,-5.954978079223633,10.091709635162353
1789799215538440000,12.29143994140625,-0.9572317512512206,-5.711218422698974,10.038737923431396
1789799215548412200,12.301412109375,-1.213560966491699,-5.5823804458618165,10.127921935272216
1789799215558383900,12.3113837890625,-1.271171443939209,-5.62427897491455,10.420613088226318
1789799215568356000,12.321356201171875,-0.6072293960571289,-5.578789143371582,11.033229438018799
1789799215578327800,12.331327880859375,-0.3381809844970703,-5.709123496246337,10.960804837799072
1789799215588300000,12.341300048828124,-0.4346972389221191,-5.746532897186279,10.825233168792725
1789799215598272000,12.35127197265625,-0.07945756759643555,-5.54811343460083,10.156502717590332
1789799215608244000,12.361243896484375,0.001197100830078125,-4.959588739013672,9.2060046585083
1789799215618216000,12.3712158203125,0.14185644836425781,-4.254645987701416,8.32553699798584
1789799215628188000,12.38118798828125,-0.32187048568725585,-3.8967128395080564,7.023540207672118
1789799215638161000,12.391160888671875,-0.6163572898864745,-3.593696691894531,6.158335582733154
1789799215648133000,12.401133056640624,-0.5776011505126952,-3.3316812477111815,5.564573571014404
1789799215658104800,12.411104736328125,-0.4736030158996582,-2.9816788925170896,5.219658894348144
1789799215668077000,12.4210771484375,-0.5295674797058105,-2.6651953605651855,4.873696754455566
1789799215678049000,12.431049072265624,-0.5979518646240234,-2.3362919075012205,4.433462924194336
1789799215688021000,12.44102099609375,-0.2958335426330566,-1.8478747688293455,4.287117347717285
1789799215697993000,12.450992919921875,0.4944026428222656,-1.376516316986084,3.932176951599121
1789799215707965000,12.46096484375,0.26605565948486326,-0.9894038360595703,3.3918355644226073
1789799215717937000,12.47093701171875,-0.5638344909667968,-0.8827122245788573,3.003226707458496
1789799215727909000,12.4809091796875,-1.2783540489196776,-0.9252093040466308,2.940678189086914
1789799215737880800,12.490880859375,-1.0761936462402344,-0.8764274452209472,3.4350808319091795
1789799215747853000,12.50085302734375,-1.3314753982543945,-1.0170867927551268,4.2506057723999024
1789799215757825000,12.510824951171875,-1.769165389251709,-1.4440028762817383,4.171148204803466
1789799215767797000,12.520796875,-1.9859902770996092,-1.8160019592285155,4.316895230865478
1789799215777769200,12.530769287109376,-1.5364789154052734,-1.7772458198547363,4.904222825622559
1789799215787741000,12.540740966796875,-1.555782166290283,-1.735197653198242,5.551854374694824
1789799215797713200,12.550713134765624,-1.7833809616088867,-1.7636287979125975,5.550058723449706
1789799215807684900,12.560684814453126,-1.7685668388366698,-1.8739117118835449,5.111321269226074
1789799215817657000,12.570656982421875,-1.8204910873413085,-1.9559131187438963,4.905868839263916
1789799215827629000,12.580629150390624,-1.60246909866333,-1.9672855766296387,4.981286191558838
1789799215837601000,12.59060107421875,-1.1162965240478515,-1.8209400001525877,5.300612837982177
1789799215847573000,12.600572998046875,-1.1016320388793945,-1.707215421295166,5.601085146331787
1789799215857545000,12.610544921875,-1.1950059036254883,-1.8477251312255858,5.642834037780761
1789799215867517000,12.620516845703126,-1.098788924407959,-2.113930428314209,5.726331820678711
1789799215877489200,12.6304892578125,-0.9026140258789062,-2.3632266761779785,6.022614276123046
1789799215887460900,12.6404609375,-0.936581761932373,-2.607285607910156,6.548740090942382
1789799215897434000,12.65043408203125,-1.0615291610717772,-3.0008325057983396,7.17602092590332
1789799215907406000,12.660406005859375,-1.0260650489807128,-3.610755378723144,7.759457942962646
1789799215917378000,12.6703779296875,-0.9156324974060058,-4.29639487915039,8.428338031768797
1789799215927350000,12.68035009765625,-0.827346311187744,-5.134215822601318,9.025990621185302
1789799215937322000,12.690322021484375,-0.9000701866149902,-6.265775382232666,9.46787046508789
1789799215947294000,12.7002939453125,-0.6573579933166503,-7.557297540283202,9.779116680908203
1789799215957266200,12.71026611328125,-0.49021278991699213,-8.554033618927,10.181641835021972
1789799215967238000,12.72023779296875,-0.2319382858276367,-9.036165978240966,10.47747537765503
