time,seconds_elapsed,z,y,x
1789799203301435000,0.054434814453125,0.4732318444997072,-0.337868265286088,0.18648463984290137
1789799203311406800,0.06440673828125,0.4076256921231746,-0.3558873215794563,0.4191410290783271
1789799203321378800,0.07437890625,0.02623334240913391,-0.32680268139243124,0.764771781592071
1789799203331351800,0.084351806640625,-0.4519429727554321,-0.24118308403491973,0.969265157263726
1789799203341323800,0.09432373046875,-1.2035218030363322,-0.47387014240324493,0.534332977074571
1789799203351295700,0.104295654296875,-1.2724457016587256,-1.1514391490995883,-0.3050443289728835
1789799203361267700,0.114267822265625,-1.4689444253146648,-1.1910527820855379,-0.3091405487779528
1789799203371239700,0.12423974609375,-1.9734587123066185,-0.6386883641600608,0.5470670056371018
1789799203381211600,0.134211669921875,-2.506041740441322,-0.3324900793790817,1.2692571347504853
1789799203391184000,0.144183837890625,-2.489785017645359,0.09187164348959923,1.8326392057746648
1789799203401156600,0.154156494140625,-2.410752981984615,0.3947738093346357,2.382539571674168
1789799203411128800,0.16412890625,-1.994435449361801,0.5683166048169136,2.709633344967663
1789799203421100800,0.174100830078125,-1.4158265831112862,0.5183230321139097,2.8378794933915135
1789799203431072800,0.18407275390625,-0.6378402228981256,0.6668892072498798,2.525969260704517
1789799203441044700,0.194044677734375,0.23543431124985217,0.8373287760198116,1.9802207537874579
1789799203451016700,0.2040166015625,0.4643652319550514,0.703159375026822,1.7886431199207902
1789799203460988700,0.21398876953125,0.5065647897809744,0.5685930836707354,1.8254088161297142
1789799203470961000,0.2239609375,0.44639527550041674,0.5148860434025526,1.8826077901668845
1789799203480933600,0.23393359375,0.24212474879920481,0.589097527039051,1.8568709991030394
1789799203490905900,0.24390576171875,0.14813772059082983,0.8230378003388643,1.8062207160569725
1789799203500877800,0.2538779296875,0.2958873186469078,1.1351719049096107,1.5168373724766075
1789799203510849800,0.263849853515625,0.36724808902740474,1.3334446525007486,1.2332136153362692
1789799203520821800,0.27382177734375,0.09086275870800017,1.2617518736869096,1.0082179882533848
1789799203530793700,0.283793701171875,-0.35920272973775863,1.0823755497455596,0.8281320547379553
1789799203540765700,0.293765625,-0.8720762642741203,0.8636883751571178,0.48121933612227435
1789799203550738000,0.303738037109375,-1.4019091169178486,0.624799539539218,-0.11298121314421296
1789799203560710700,0.313710693359375,-1.9889216543763875,0.21785130828619,-0.7258025839895009
1789799203570683000,0.323682861328125,-2.4482366172045467,-0.575870965719223,-0.9783476045161486
1789799203580654800,0.33365478515625,-2.3770459426939485,-1.2754331930369138,-0.09599413024708628
1789799203590626800,0.343626708984375,-0.8772042748123406,-0.17136545144319534,0.055040334698557854
1789799203600598800,0.353598876953125,0.33632863462865353,-0.41584699250161644,-0.2938916147850454
1789799203610570800,0.36357080078125,0.6161299108713865,-1.4726777666240929,-0.6529353545688092
1789799203620542700,0.373542724609375,1.39614339299798,-1.3502946650147438,-0.3557737782023847
1789799203630515000,0.383514892578125,2.1526818915128705,-0.5083154328405857,-0.397869145001471
1789799203640487700,0.39348779296875,2.1541835282474753,0.03491699960231781,-0.2701682093702257
1789799203650459600,0.403459716796875,1.7760615785062313,0.24778292069137095,-0.38999037445038554
1789799203660432000,0.413431884765625,0.7409083831846713,0.5416302579432726,-0.8363176992811262
1789799203670403800,0.42340380859375,-1.1046090088635683,1.3873790717840193,-1.792013473136723
1789799203680375800,0.433375732421875,-2.788714772728085,2.1992595182925463,-3.0284961732715368
1789799203690347800,0.44334765625,-2.97073079752326,2.0189093808829783,-3.7587446307539936
1789799203700319700,0.45331982421875,-2.7525650164604185,1.220991408753395,-3.952510130053758
1789799203710292000,0.4632919921875,-2.3753806398302317,0.30702070707976814,-3.92438293672204
1789799203720264700,0.4732646484375,-1.4256699317336081,-0.40062195084095,-3.649913961417973
1789799203730236700,0.483236572265625,0.32506840494573114,-0.4955746092110872,-2.9707448260486125
1789799203740209000,0.493208984375,2.087075739136338,-0.2865519195467233,-2.0926270896531642
1789799203750180600,0.5031806640625,2.4731390032708642,-0.1326028823286295,-1.339771809695661
1789799203760152800,0.51315283203125,1.8840987593770027,0.16727788986861705,-0.5949610853102058
1789799203770124800,0.523124755859375,0.5980839665710925,0.2916822681725025,0.0273970821090159
1789799203780096800,0.5330966796875,0.7143401097327471,0.574315552970767,0.22920926272254435
1789799203790069000,0.543069091796875,0.8692097689270972,0.7128232754290104,0.15737734943265094
1789799203800041700,0.553041748046875,0.6267927591830492,0.6603004765093327,0.06486288712802343
1789799203810013700,0.563013671875,0.3762076405525207,0.7540110258638858,0.013103391597885638
1789799203819986000,0.57298583984375,0.36427287260890007,0.7474339855611324,0.00717599257659167
1789799203829957600,0.58295751953125,0.4924252052694559,0.5929997951745987,0.231803918858245
1789799203839929900,0.592929931640625,0.6026981823682784,0.3174193514972925,0.31862518362309783
1789799203849901600,0.602901611328125,0.3255728473365307,0.323028423550725,0.16875811848901212
1789799203859873800,0.612873779296875,-0.07750117283165454,0.44650633465945716,-0.11034881881400942
1789799203869845800,0.622845703125,-0.37864217422306534,0.16509937678575515,-0.1568070569977164
1789799203879818800,0.63281884765625,-0.7557984938025474,0.13211129941940306,-0.26108561598733065
1789799203889790700,0.642790771484375,-1.1061205824702978,0.34130350043177604,-0.2819454486645758
1789799203899763000,0.652762939453125,-1.1739070014953612,0.24112463184595107,-0.10442863498479127
1789799203909734700,0.662734619140625,-0.9031891954183578,0.05794657753407955,0.16979374514706433
1789799203919707000,0.672706787109375,-0.7258107672959566,0.052476621690392494,0.33140966373123226
1789799203929678600,0.6826787109375,-0.5810679498404264,0.1620949342727661,0.3423579048555344
1789799203939650800,0.69265087890625,-0.2701847221136093,0.18551321926116943,0.22101671351455152
1789799203949622800,0.702622802734375,0.02238075863420963,0.1127998652279377,0.10228102849684655
1789799203959595800,0.712595703125,0.14582009129822254,0.18566051877737044,-0.10802008360549807
1789799203969567700,0.722567626953125,0.16299392893910408,0.4180015401870012,-0.3433798683144152
1789799203979539700,0.732539794921875,-0.02200608010292053,0.7066822884559631,-0.37678923983275886
1789799203989511700,0.74251171875,-0.23190964425504207,0.8110562706440687,-0.1007799032188952
1789799203999484000,0.75248388671875,-0.39304830071628094,0.8174398342013358,0.28965529238954185
1789799204009455600,0.76245556640625,-0.30226620602905746,0.8431360009938478,0.5440452101305127
1789799204019427800,0.772427734375,0.10399228939414024,0.7765414221018553,0.471617102779448
1789799204029399600,0.782399658203125,0.4741021975934505,0.5336468579739332,0.13351108321473001
1789799204039372800,0.792372802734375,0.5342021537691355,0.2697095058172941,-0.2513110948175192
1789799204049344800,0.8023447265625,0.35128479622006414,0.1507324132591486,-0.41226358105689287
1789799204059316700,0.812316650390625,0.13868015641570092,0.13707915095984935,-0.4080393874906003
1789799204069288700,0.822288818359375,0.010792612171173095,0.20276129118204117,-0.2768989789299667
1789799204079261000,0.832260986328125,0.026985622081160544,0.32558746038377284,0.032989684801548715
1789799204089232600,0.842232666015625,0.1290647713303566,0.3951572556942701,0.21657851187139748
1789799204099204900,0.852204833984375,0.07720949640870094,0.3404278866410255,0.12422244586572051
1789799204109176600,0.862176513671875,0.06182078861892223,0.2026812116831541,-0.0978251450665295
1789799204119148800,0.872148681640625,0.20304478429853914,0.024363456884026528,-0.25194544719830153
1789799204129121800,0.882121826171875,0.33553836103379725,-0.23482582396268845,-0.375518050853163
1789799204139093800,0.89209375,0.3502022616803646,-0.3490560142546892,-0.3214502144485712
1789799204149065700,0.902065673828125,0.2062754367828369,-0.27588322601616383,-0.0662431351058185
1789799204159038000,0.912037841796875,-0.07701426609754562,-0.15107961926162242,0.32177813122868537
1789799204169009700,0.922009765625,-0.3821691793054342,-0.0024058920979499816,0.5666679608270525
1789799204178982000,0.93198193359375,-0.40165655458569527,0.31038170794546605,0.21652239776998758
1789799204188953600,0.94195361328125,-0.3321376126796007,0.26548224351108074,-0.08760565660819411
1789799204198925800,0.95192578125,-0.3659755848735571,-0.20990590223968028,-0.18376155328825114
1789799204208898800,0.96189892578125,-0.3714771048992872,-0.4892512514084577,-0.4407636993542313
1789799204218870500,0.97187060546875,-0.3698170627325773,-0.5147819985061883,-0.8040192116141319
1789799204228842800,0.9818427734375,-0.4666624029815197,-0.5337625933080912,-0.7914853087335825
1789799204238814700,0.991814697265625,-0.5818570543915033,-0.4501707023859024,-0.5123113706089556
1789799204248786700,1.00178662109375,-0.8031149562507868,-0.20511925248503685,-0.1265920976065099
1789799204258758700,1.011758544921875,-0.9815314952492713,-0.08923428072333335,0.12548998158350586
1789799204268730600,1.021730712890625,-1.0155173514813185,-0.15726853702962398,-0.04575812709033489
1789799204278702800,1.031702880859375,-0.6958417454898357,-0.44450317814350127,-0.2948335718102753
1789799204288674600,1.041674560546875,-0.34229309599101543,-0.6727583915442228,-0.28613442478701473
1789799204298647600,1.0516474609375,-0.31279402978420257,-0.5564613318502902,-0.29044527372345325
1789799204308619800,1.061619873046875,-0.29982232000827785,-0.2843628850698471,-0.3946402460828423
1789799204318591500,1.071591552734375,-0.07995265763700007,-0.2620505154967308,-0.4579943817488849
1789799204328563700,1.081563720703125,0.1521171456158161,-0.37476094887554645,-0.45784247912280257
1789799204338535400,1.091535400390625,0.43245267486572264,-0.38197570255994795,-0.34176081574521955
1789799204348507600,1.101507568359375,0.5503226829648018,-0.21811960383355616,-0.23866036062426862
1789799204358479600,1.111479736328125,0.7282248427003621,-0.24582711044847963,-0.08514438106119632
1789799204368451600,1.12145166015625,0.8623018892347812,-0.3812707691609859,0.02670402866080403
1789799204378424600,1.131424560546875,0.8843518084794283,-0.45326165413856506,-0.03553776184916496
1789799204388396800,1.141396728515625,0.6409937184929847,-0.2886024223357439,-0.06440174502283334
1789799204398368500,1.151368408203125,0.24882453869879245,-0.015541852524876594,-0.38183205630555744
1789799204408340700,1.1613408203125,-0.03317687793672085,0.11039046599864959,-0.6339803325995802
1789799204418312400,1.1713125,-0.3060731970965862,0.20626725347638128,-0.8563197460852563
1789799204428284700,1.18128466796875,-0.46002749501168727,0.2727501886874437,-0.8656437470085918
1789799204438256600,1.191256591796875,-0.5869347960472107,0.22373276754021643,-0.6613536388240754
1789799204448228600,1.201228515625,-0.5001771345704794,0.27661797003149985,-0.40410102512836454
1789799204458200600,1.21120068359375,-0.20271920560598372,0.32522914846539497,-0.1597036552220583
1789799204468173800,1.221173828125,-0.09084814566075801,0.38209552954733367,0.010075842203944921
1789799204478145500,1.2311455078125,-0.2233165879547596,0.48094928700923917,-0.01351297704577446
1789799204488117800,1.24111767578125,-0.4574328023433685,0.5117623584240675,-0.00023527006059885023
1789799204498089500,1.25108935546875,-0.5580225898176431,0.45265608946084973,-0.09288125892356038
1789799204508061700,1.261061767578125,-0.717301882147789,0.5464613313615322,-0.29545769505798813
1789799204518033700,1.27103369140625,-0.7288403442502022,0.6263093595802783,-0.11623685393929481
1789799204528005600,1.281005615234375,-0.5316822799026966,0.7367752289026975,0.1376120887927711
1789799204537977600,1.2909775390625,-0.23720073640048503,0.7628811455398797,0.11062573605924844
1789799204547950800,1.300950927734375,0.04708323821425438,0.5412018033981323,-0.14977876579612492
1789799204557922600,1.310922607421875,0.2904477579414844,0.19198972179889678,-0.48086833072751756
1789799204567894800,1.320894775390625,0.36059038470387456,0.0947615197122097,-0.6641065907940268
1789799204577866500,1.330866455078125,0.28442250630259513,0.18680676620304584,-0.37165436116233463
1789799204587838700,1.340838623046875,0.18392507328689098,0.4016407724946737,-0.23144991778880356
1789799204597810700,1.350810791015625,0.1192436345398426,0.46883565536737437,-0.42167569865509863
1789799204607782700,1.36078271484375,0.27352000401616094,0.32897593377828593,-0.3955985697209835
1789799204617754600,1.370754638671875,0.7338058577030897,-0.03864508021473884,-0.3201584210723638
1789799204627726600,1.3807265625,1.0348264475852251,-0.10102993245720862,-0.5481342330098152
1789799204637699600,1.390699462890625,1.2494447652995586,-0.3206733848571777,-0.4516629867702722
1789799204647671800,1.400671875,1.1442863547354936,-0.3597340601354837,-0.30299174382463095
1789799204657643500,1.4106435546875,0.7565519425183534,-0.2606213594764471,-0.20270254673212765
1789799204667615700,1.42061572265625,0.060765142086148256,-0.06572656388580798,-0.30393253180608154
1789799204677587500,1.43058740234375,-0.6208522632181644,0.08337795591056346,-0.2153572995133698
1789799204687559700,1.4405595703125,-0.9130261142998933,0.31541093428432937,-0.13004866780117152
1789799204697531600,1.45053173828125,-0.6422434262931347,0.09731704941391944,0.08792524395138025
1789799204707503600,1.460503662109375,-0.6558464197099209,-0.31783962273597716,0.23513035986721514
1789799204717475600,1.4704755859375,-1.0715081187725066,-0.5477601390004158,0.29047873760163784
1789799204727448600,1.480448486328125,-1.3570909010261296,-0.9630863224983215,0.4470420489713549
1789799204737420500,1.490420654296875,-1.285481708842516,-1.3459025675356386,0.4419309895679354
1789799204747392800,1.500392822265625,-1.3661702795386315,-1.6059364825129507,0.3631567280605435
1789799204757364500,1.510364501953125,-1.711730268371105,-1.738226645630598,0.3474102928742766
1789799204767336700,1.520336669921875,-2.154627180361748,-1.8797908330500124,0.2298077035397291
1789799204777308700,1.53030859375,-2.658345933061838,-2.2643723341941833,-0.037404432503879065
1789799204787280600,1.54028076171875,-3.2209985207676888,-2.7724644796729088,-0.428809642188251
1789799204797252600,1.550252685546875,-3.4558091471612453,-3.4239679017424582,-0.9150731099575757
1789799204807224600,1.560224609375,-3.291237009119987,-4.391890558356047,-1.45239193444252
1789799204817197600,1.570197509765625,-2.967724016922712,-5.417286329773068,-2.0485019705921412
1789799204827169500,1.58016943359375,-2.8064731322586534,-5.435789954712987,-1.626253586615622
1789799204837141500,1.5901416015625,-3.242588421285152,-4.664755897855758,-1.7151099739372728
1789799204847113700,1.60011376953125,-3.8188697213709353,-5.474385935088992,-2.7380922544717787
1789799204857085700,1.610085693359375,-3.5566333279132842,-7.362904264473915,-4.766827448320388
1789799204867057700,1.6200576171875,-3.0374668307125567,-8.863391244521736,-5.228197590112686
1789799204877029600,1.630029541015625,-2.8352427151471375,-9.80554876075983,-5.684266118365525
1789799204887001600,1.640001708984375,-3.235675865417719,-10.623463226735591,-6.228810802450775
1789799204896973600,1.6499736328125,-4.243862143358588,-10.876142687296866,-6.14407441766858
1789799204906946600,1.659946533203125,-5.373049128639698,-10.86229887086153,-5.626072872593999
1789799204916918500,1.66991845703125,-6.266499020332097,-11.044999370789528,-4.642931019538641
1789799204926890500,1.679890380859375,-6.1049763329893345,-11.13984973782897,-3.1178619714200493
1789799204936862700,1.68986279296875,-5.248752886885404,-10.699013850021363,-1.3077245203107595
1789799204946834700,1.699834716796875,-4.227967824134231,-10.006195251744986,0.08540040164887905
1789799204956806700,1.709806640625,-3.0279753642678258,-9.221163649195432,0.5922638821154832
1789799204966778600,1.719778564453125,-2.1232634893268347,-9.136044402575493,0.7772516161978245
1789799204976750600,1.72975048828125,-1.578971903219819,-9.099372083738446,0.9906804318666458
1789799204986722800,1.739722900390625,-1.1985843466341495,-8.974435790514946,1.4666881708204746
1789799204996695600,1.749695556640625,-0.5697136121332645,-9.080347649794817,1.9353876325875519
1789799205006667500,1.75966748046875,-0.06083586010164581,-8.382888532236217,2.6814292870074508
1789799205016639700,1.7696396484375,-0.013262801676988602,-7.217360652029514,4.161079815253615
1789799205026611500,1.779611572265625,-0.16851532270908354,-6.620999855989218,5.494208241412044
1789799205036583700,1.789583740234375,-0.6452560521125793,-6.513488744819164,7.604529247057437
1789799205046555400,1.799555419921875,-1.4040180718958377,-5.728727775904536,8.24095726507008
1789799205056527600,1.809527587890625,-2.101211231994629,-3.514857840718329,5.792921723395586
1789799205066499600,1.81949951171875,-1.1423579439561813,-3.3745018600448966,4.407034351474047
1789799205076471600,1.829471435546875,0.6845721634566784,-4.754094807997346,4.8502960051238535
1789799205086443800,1.83944384765625,2.4821394713282583,-4.832575931777059,6.285698810842633
1789799205096416800,1.849416748046875,4.139075488716363,-3.785976628811657,8.030226017922162
1789799205106388500,1.859388427734375,4.653485146778822,-2.6392174542218445,10.102254410052298
1789799205116360700,1.869360595703125,4.209273060536384,-1.7123381711363792,11.980075404334068
1789799205126332400,1.87933251953125,3.4611961008965966,-0.8112386414736509,12.78939038426876
1789799205136304600,1.8893046875,2.1987654511652885,0.3636690614968538,12.457109563726187
1789799205146276600,1.899276611328125,1.238708121099323,1.1663742679029703,11.620680951416492
1789799205156248600,1.90924853515625,1.5542423895023763,2.007973560848832,11.419565673875809
1789799205166220500,1.919220458984375,0.6972644717693328,2.664519068738818,11.764819373238087
1789799205176192500,1.929192626953125,0.36545945204496383,2.481234046921134,12.338567355453968
1789799205186165500,1.93916552734375,0.4519220760978758,1.8502111028224228,12.468127801346778
1789799205196137700,1.9491376953125,1.7517944216035306,1.761781708741188,11.636819600790739
1789799205206109400,1.959109375,3.436398051987588,2.361977552899718,10.600213284051417
1789799205216081700,1.96908154296875,4.759883328270912,2.9426988812595605,10.05293946726322
1789799205226053600,1.9790537109375,4.969748898500204,3.472197387382388,9.86429788684845
1789799205236025900,1.98902587890625,4.34890394180566,4.013589744916558,9.570411971151827
1789799205245997800,1.998997802734375,4.018377563714981,4.501036577251553,9.16473215239942
1789799205255969800,2.0089697265625,3.357234498901665,4.713077153432369,8.81206028573513
1789799205265941800,2.018941650390625,2.1777413678370414,4.930932553371787,8.460968966260552
1789799205275913700,2.028913818359375,1.4490670278035103,5.377530073446035,7.88061997834444
1789799205285886700,2.03888671875,1.3706103078126906,5.710981691333651,7.501977804121375
1789799205295859000,2.04885888671875,1.358781922852993,5.239879260078072,7.137165417808294
1789799205305830700,2.05883056640625,1.1030839912533759,4.452084038034081,6.824474848398566
1789799205315803000,2.068802978515625,-0.7819136897247284,4.40708403583467,6.408556544226408
1789799205325774800,2.07877490234375,-3.5767981640636917,4.8345793805539605,5.896571482962369
1789799205335746800,2.088746826171875,-5.873159043192863,4.880362642085552,5.451199705290794
1789799205345718800,2.09871875,-7.273133392655849,3.8413258833289143,4.512070012441277
1789799205355690800,2.108690673828125,-6.7175663792967795,2.294247832497954,2.2539029626280067
1789799205365662700,2.118662841796875,-4.073201040792465,1.5891981136798858,1.0795166531831026
1789799205375636000,2.128635986328125,-0.7746644492488354,1.8821978941917419,2.5257734458714722
1789799205385607700,2.138607666015625,-0.047126492834091184,1.6460720935463904,6.094007195207476
1789799205395580000,2.148579833984375,-1.7507506116390228,1.3604367043226957,5.164826649442315
1789799205405551900,2.1585517578125,-2.4253180984318257,0.846253840753436,8.54689485308826
1789799205415523800,2.16852392578125,-2.2487468950390817,0.5012883106827736,5.333703791201114
1789799205425495800,2.178495849609375,-2.271491810810566,-0.5161760832130908,2.0185510689646002
1789799205435467800,2.1884677734375,-3.413667457002401,-1.9498305839598178,-2.3673048854023215
1789799205445439700,2.198439697265625,-2.8564555990457534,-2.127699133686721,-4.484406344968081
1789799205455412000,2.208411865234375,-0.10230886635184287,-1.2154106860116123,-1.5822048937916755
1789799205465383700,2.2183837890625,1.3414229379035532,-0.435749378323555,0.40320612211525436
1789799205475357000,2.22835693359375,1.7563363028168677,-0.010674538749456406,1.283636957758665
1789799205485328600,2.23832861328125,1.9761599340893328,0.36223522930145263,2.3381647156357763
1789799205495300900,2.24830078125,3.068115651476383,0.6394649014905095,3.1703134586691855
1789799205505272800,2.25827294921875,3.1265269239127633,-0.14884002364128826,0.8126064226955175
1789799205515244800,2.268244873046875,2.8385470173895357,-0.23794892441928386,-0.98780049251616
1789799205525216800,2.278216796875,2.4601345602691174,0.9790110368609428,-0.5662491508930921
1789799205535188700,2.288188720703125,1.4273171144187449,0.981862334638834,-2.148227250191569
1789799205545160700,2.29816064453125,0.6610343437418341,1.001733740800619,-4.16067941775918
1789799205555133000,2.3081328125,0.24408348165154456,0.31226693717017767,-6.2277726915746925
1789799205565105700,2.318105712890625,-0.08411576866582035,0.42163317468762396,-5.6483577696383
1789799205575078000,2.328077880859375,0.5051514158517122,1.0052201216116547,-4.928141461348534
1789799205585049900,2.3380498046875,-0.5328896098658442,0.7556983944289386,-4.84424152739048
1789799205595021800,2.348021728515625,0.13821516925245522,1.0989940915912388,-3.7253579094588756
1789799205604993800,2.357993896484375,0.11785510279089212,0.7620473250642419,-2.685752410903573
1789799205614965800,2.3679658203125,-0.24778321295231578,-0.5015680044069886,-3.5207910301595926
1789799205624937700,2.377937744140625,-0.31282004100829364,-1.369650084478408,-4.566529916903376
1789799205634910000,2.387909912109375,-0.7049670089706778,-0.9114670482896268,-3.796815125951171
1789799205644881700,2.397881591796875,-0.16951251705288886,-1.1721296165592967,-2.392250526088476
1789799205654854000,2.40785400390625,1.0092881017029285,-1.8531553395807743,-2.4501912584036587
1789799205664827000,2.417826904296875,0.9999909887865185,-1.5811225053824483,-1.9564532169699669
1789799205674798800,2.427798828125,0.3411120695129037,-1.0048080336794256,-0.36181904971599577
1789799205684770800,2.437770751953125,-0.5954942423388362,-0.7758156651105731,0.1500742416113615
1789799205694742800,2.44774267578125,-0.8636182325303554,2.173055548108369,0.6889063932687044
1789799205704714800,2.45771484375,-1.0417851806819438,-1.0500411870475859,-0.19074585921764373
1789799205714687000,2.46768701171875,-0.17788959251493214,1.0167450666453688,-0.20665596053302288
1789799205724658700,2.47765869140625,-1.0890537123352289,2.1569133916027843,-1.4258786060482262
1789799205734631000,2.487630859375,0.02991466127038002,2.341836536016315,-2.410783377122879
1789799205744602600,2.4976025390625,1.1203919766679407,0.9468963082630186,-0.9636135612428188
1789799205754574800,2.507574951171875,1.1179416609063744,0.2194660500064492,-0.2014046158760786
1789799205764547800,2.5175478515625,0.49904023949503895,-0.7959224874634295,-0.3564975624322891
1789799205774519800,2.527519775390625,0.3985094887316227,-2.1966274162232873,-1.0508744960665701
1789799205784491800,2.53749169921875,-0.22792466627210378,-2.026674900317937,-1.4362620528966188
1789799205794464000,2.547464111328125,-0.5032622411042451,-2.432840310630202,-1.33860831887424
1789799205804435700,2.557435791015625,0.14786913278251884,-2.810808238853514,-1.2229226690769195
1789799205814408000,2.567407958984375,0.2901929063975811,-1.6023310053668915,-0.6925187385469674
1789799205824379600,2.577379638671875,-0.16531944927722214,-1.4946476063698528,-0.31091362286508084
1789799205834351900,2.587351806640625,0.15920535031110047,-2.5779855714067814,-0.7764554973840713
1789799205844323800,2.59732373046875,0.31415859613567587,-2.813708636470139,-1.4707219563812017
1789799205854296600,2.607296630859375,-0.14434592709243296,-2.64600463014394,-1.4838105705350637
1789799205864268800,2.617268798828125,-0.5007797766387462,-1.722695752891153,-1.1036088919103144
1789799205874240800,2.62724072265625,-0.3495467203810811,-1.2588181583225726,-0.8215805872678756
1789799205884212700,2.637212646484375,-0.05781009167283773,-1.1660017813287675,-1.034121514186263
1789799205894184700,2.647184814453125,0.007337211020290851,-0.8103796865567564,-0.9230927502840757
1789799205904156700,2.65715673828125,0.0009381576329469681,0.10067315490879118,0.07139584169387816
1789799205914129000,2.66712890625,0.011499591396749019,0.4952478614747524,0.7400263396531344
1789799205924100900,2.677100830078125,-0.056630526499450204,0.5919144110906869,0.19231822310090063
1789799205934072800,2.68707275390625,-1.3124237840428947,0.7622095298886299,-0.8427782735973596
1789799205944044800,2.697044921875,-1.7408137395143508,1.4588449099741876,-1.411067405885458
1789799205954017800,2.707017822265625,-0.4487956146404147,1.4530207338653505,-2.165792132976651
1789799205963989800,2.71698974609375,0.4678691484227776,0.6589480389870703,-3.3735692553699015
1789799205973961700,2.726961669921875,-0.4080255050957203,1.5307421253189444,-4.941577866026758
1789799205983933700,2.73693359375,-0.6821133721277117,1.5881760771557687,-5.106805253106355
1789799205993905700,2.74690576171875,0.6255791456095874,1.2262082666188479,-4.8305987864851945
1789799206003878000,2.7568779296875,0.3846143805004656,1.4003572113007305,-4.8251726697832344
1789799206013849900,2.766849853515625,-0.3896390767946839,0.7996198076114058,-3.934095936962962
1789799206023821800,2.77682177734375,0.11659896524995565,0.40989246801137924,-0.8983855945289134
1789799206033793800,2.786793701171875,2.0528233409225938,0.9622136313170194,-1.218124913406372
1789799206043766800,2.796766845703125,3.0093150874614714,0.4148690873801708,-3.0927006421566006
1789799206053738800,2.80673876953125,1.5463888995230197,0.21218466082662343,-5.314606876543164
1789799206063710700,2.816710693359375,1.5453507886469364,0.5406342326432466,-8.56888164396882
1789799206073682700,2.8266826171875,0.9423802190780639,-3.20566534255743,-10.4523526268363
1789799206083655000,2.836655029296875,0.2231891621828079,-5.78996696524322,-6.360231781518459
1789799206093626600,2.846626708984375,0.7624000840246677,-4.436003840848803,0.2549357150554657
1789799206103598800,2.856598876953125,-1.7875825049519538,-2.3654496129244564,8.482744160217047
1789799206113570800,2.86657080078125,-1.7052432444393635,1.405871590808034,22.218955960881708
1789799206123542800,2.876542724609375,-0.6707330231964588,-1.295474110546708,16.210801587265728
1789799206133515800,2.886515869140625,2.616392458951473,-5.7879965419530865,4.689793308478594
1789799206143487700,2.89648779296875,0.2476537413537502,-6.7182017545908685,7.786451748350262
1789799206153459700,2.906459716796875,-1.0814660336852073,-6.167620712950825,6.12277736261785
1789799206163432000,2.916431884765625,-0.6112322019577026,-5.131253465664386,3.1026755082041024
1789799206173403600,2.926403564453125,-0.10271510906517504,-4.208464082241058,3.4308863028287884
1789799206183376000,2.9363759765625,0.09009761955440043,-3.0272037953734396,4.137462792822719
1789799206193347600,2.94634765625,0.17920681259334087,-2.395971007916331,4.593455917751789
1789799206203319800,2.95631982421875,-0.020443662224942816,-1.8058266021728515,3.9863060166716573
1789799206213291800,2.966291748046875,0.409103947982192,-1.87640119061172,3.4996231544464824
1789799206223263700,2.976263671875,0.9141787914663553,-0.7118260810852051,4.090198352822661
1789799206233237000,2.986237060546875,0.07656710685193538,-0.4157353488206863,2.8094255523234604
1789799206243209200,2.996209228515625,-0.9559750291883945,1.600122827798128,-1.0150590863198041
1789799206253181200,3.00618115234375,-1.3048130167782306,6.89893767644763,-8.465440558716654
1789799206263153200,3.016153076171875,-0.39204935280680653,7.016303242155909,-11.858878297638892
1789799206273125000,3.026125,-0.4739116434574127,5.0132396651804445,-7.6574126959830515
1789799206283097000,3.03609716796875,0.22818923549242318,-0.5830611694842577,-1.9034703993231057
1789799206293069000,3.046069091796875,-0.36544900371618566,-4.091596529182792,-0.8191022144556045
1789799206303041300,3.056041259765625,-0.37643450811095536,-0.5136790057003497,1.7880366784602402
1789799206313013000,3.066012939453125,0.6381506040215492,2.7820021233469245,5.423360681250691
1789799206322985200,3.075985107421875,0.3227870890755206,0.010857494100928306,3.6215894919484852
1789799206332958200,3.085958251953125,-0.9622153118174522,-0.8842723135024309,1.9110989945054053
1789799206342930200,3.09593017578125,-0.890119359030202,-1.18847504055202,1.3504133229583501
1789799206352902100,3.105902099609375,-0.8084090440709143,-0.8529226509928702,0.4457984786510467
1789799206362874000,3.1158740234375,-0.6980781993050128,0.392395389765501,0.1635281819462776
1789799206372846000,3.12584619140625,0.010851064360141754,1.324674486067891,-0.008574351599812508
1789799206382818300,3.135818359375,0.34415596725344655,2.9561078134089707,0.42781975436806674
1789799206392790000,3.1457900390625,0.1534125191885978,4.422418967610597,0.5198129784107208
1789799206402762200,3.15576220703125,0.07699548833183943,5.880889929705858,0.30985330015718937
1789799206412734000,3.16573388671875,0.19715338817238806,8.123843628296255,0.3215156809002161
1789799206422706200,3.1757060546875,0.6054419646510854,9.408312945225834,0.14885960512459276
1789799206432679200,3.18567919921875,1.0655343050599098,9.148124131947755,0.008522913673520087
1789799206442651100,3.195651123046875,0.7770610620617866,7.9403844189554444,-0.13448095116019249
1789799206452623000,3.205623046875,0.45841129198670383,6.119823773509264,-0.3558037349492311
1789799206462595300,3.21559521484375,-0.18460017780316992,4.013827060803771,-0.26860066779255864
1789799206472567000,3.225567138671875,0.2577706644867547,0.5061228912323713,-0.2839315079152584
1789799206482539300,3.235539306640625,0.6083002401590347,-1.4918208585113286,0.14332768996059894
1789799206492511000,3.245510986328125,-0.18661095137000083,-2.4922008466154337,1.0970365277826786
1789799206502483200,3.255483154296875,-0.9447405184686183,-1.7197563384383916,2.4804461114138365
1789799206512455200,3.265455078125,-1.3233850307792425,-2.5130799685150382,6.705133014181256
1789799206522427100,3.27542724609375,-0.4305740215122699,-1.3134440670013428,6.345510013204812
1789799206532400000,3.285400146484375,0.4542810603141784,2.9909014788925647,3.7902310713857412
1789799206542372400,3.295372314453125,0.048965398699045176,5.252388613039255,2.0133868180692196
1789799206552344000,3.305343994140625,0.24061726684570311,2.5433956118017433,1.2222457927286625
1789799206562316300,3.31531640625,-0.6709785223901271,-2.7395903840750453,2.556180859094858
1789799206572288000,3.3252880859375,-0.5734989758908748,-5.002663910630345,3.5516292360156774
1789799206582260200,3.33526025390625,0.4310544985055923,-8.16046450920701,3.3149072230428454
1789799206592232200,3.345232177734375,1.445189455717802,-10.512076735436915,-0.11529051299989222
1789799206602204200,3.3552041015625,2.359918282282352,-11.584441763299703,-4.2798219300121065
1789799206612176100,3.365176025390625,1.0676052661150692,-12.42720425480604,-4.7279058892518275
1789799206622148000,3.375148193359375,-0.8345704172223806,-8.244047047778963,-2.678029123175144
1789799206632121000,3.38512109375,-1.5479980882853268,-2.6330688684642314,-1.1615391028314828
1789799206642093000,3.395093017578125,-1.8198855226635933,-2.1377759988039733,-0.8679407719045877
1789799206652065000,3.40506494140625,-1.7588339648514986,-1.947882957023382,-1.1908102055013179
1789799206662037200,3.415037353515625,-1.7559335672348737,-1.024908280161023,-1.0248492434501648
1789799206672009200,3.42500927734375,-2.0578502291738987,-0.6453875695377588,-0.3220879278302192
1789799206681981200,3.434981201171875,-1.6444810249626636,-0.4045464308083057,0.7659165677130222
1789799206691953200,3.444953125,-0.8997159663498401,0.46997898018360135,1.2054630002319813
1789799206701925000,3.454925048828125,-0.7778706979442387,0.37543022643923757,2.016487706694007
1789799206711897000,3.46489697265625,-1.141143380534649,0.12366788072288036,2.0762275973856448
1789799206721869300,3.474869384765625,-1.0050374585211277,0.1987906339854002,2.2121686842262744
1789799206731842000,3.484842041015625,-0.8836235672701149,-0.8300105619609356,1.8119523915767668
1789799206741814000,3.49481396484375,-0.9529536355406045,-1.1585849292010069,1.5441770686924456
1789799206751786200,3.5047861328125,-0.7156178015183657,-1.3681436254382133,1.5929869845688343
1789799206761758200,3.51475830078125,-0.254603122100234,-1.4068530030608177,1.4675912571400402
1789799206771730200,3.524730224609375,0.011502221745252608,-1.4057424114704131,1.4327829786092041
1789799206781702100,3.5347021484375,-0.16395839005708693,-1.271210606905818,2.1281477542370557
1789799206791674000,3.544674072265625,-0.2669891409426927,-1.2233148832648992,2.7411002041161057
1789799206801646300,3.554646240234375,-0.3605880466163158,-1.3114438330948353,2.6559447171390054
1789799206811618000,3.5646181640625,-0.5664706846892833,-1.523008900718391,2.228982456383109
1789799206821590300,3.57459033203125,-0.7513204716056585,-1.53828479578346,1.9752210458040236
1789799206831563300,3.584563232421875,-0.7997270673781632,-1.6230395930051802,2.4702257461726664
1789799206841535000,3.594534912109375,-0.9149871852397918,-1.7345388970285653,2.166711001387238
1789799206851507200,3.604507080078125,-0.809871444773674,-1.7011767256528139,1.1096236221551894
1789799206861479200,3.614479248046875,-0.47313890551924703,-1.368058285242319,0.1891477763712406
1789799206871451100,3.624451171875,-0.4225917905867099,0.19046587323248385,-0.8325608309656382
1789799206881423400,3.63442333984375,-0.26365793242705987,1.1047054549753665,-0.824278740310669
1789799206891395000,3.64439501953125,-0.5389525631666183,0.057629182147979734,-0.7452104642927646
1789799206901367300,3.6543671875,-0.8299941953480243,-0.4245353258699178,-0.5682774418503046
1789799206911339000,3.664339111328125,-0.6731003368496894,-0.2927475593164563,-0.5340536852091551
1789799206921311200,3.674311279296875,-0.6037491161933168,-0.07694207764416933,-0.7380915721982717
1789799206931284200,3.6842841796875,-0.40212647365238513,-0.06006663842797279,-0.5623837076365947
1789799206941256000,3.694255859375,-0.22293895028140395,-0.24633418318778275,-0.15452888293266295
1789799206951228200,3.704228271484375,-0.6162766258656979,-0.37108109131902456,0.35597324629724025
1789799206961200000,3.7142001953125,-0.771084910261631,-0.6990662604942918,0.2801478977233171
1789799206971172000,3.724172119140625,-0.5554944961121305,-1.0633932013779879,0.16646598896384238
1789799206981144000,3.73414404296875,-0.37553894751071926,-1.5191726835563777,-0.24389701916873455
1789799206991116000,3.744115966796875,-0.010907178461551665,-1.3390952256083488,-1.5448779104381798
1789799207001088300,3.754088134765625,-0.3155984927456826,-0.20795681399852037,-2.1087275989741086
1789799207011060200,3.764060302734375,-0.4487071326393634,0.17838731290400028,-1.780097702154517
1789799207021033000,3.774032958984375,-0.027201529854163527,-0.313658537659049,-1.8683119921803473
1789799207031005200,3.784005126953125,0.6988076095581054,-0.3406578960046172,-1.738787786644697
1789799207040977200,3.79397705078125,1.126250858763978,0.2597740949973464,-1.6625941892802714
1789799207050949000,3.80394921875,0.3588252747274935,1.02010234118402,-2.2393735020160674
1789799207060921000,3.813921142578125,-0.8118225057762116,2.039346311973035,-3.351822118464112
1789799207070893000,3.82389306640625,-0.8572923174444586,4.166750846627354,-4.915457920864224
1789799207080865000,3.833864990234375,0.4331481097839772,5.254024689808488,-5.257253588727116
1789799207090837200,3.843837158203125,1.4277252568282186,4.257541124621033,-4.238758682739735
1789799207100809200,3.853809326171875,1.1547802762210368,2.9042583837062117,-3.745425714975595
1789799207110781200,3.86378125,0.9693839613378047,1.9197300447285175,-2.913055438145995
1789799207120754200,3.873754150390625,1.148847379040718,0.9412947619289159,-2.6008611278206106
1789799207130726100,3.88372607421875,0.8002851396523416,-0.6862848125934601,-2.2870564596891403
1789799207140698000,3.893697998046875,0.7814939299426973,-1.6946949624180794,-1.841038785329461
1789799207150670000,3.903670166015625,1.6194083968959747,-2.574521402427554,-1.598821097549796
1789799207160642000,3.91364208984375,1.8782617237865924,-2.0302939675979315,-1.287215985289216
1789799207170614300,3.9236142578125,1.2845276229880749,-0.2983924333356321,-0.38216742573976514
1789799207180586000,3.9335859375,0.4238813189405948,-1.88463988051638,-0.6943523837149143
1789799207190558200,3.94355810546875,-0.4751180235724896,-2.175543127140403,-1.490106455808878
1789799207200530200,3.9535302734375,-0.8299767327565699,-1.5563646423533557,-1.9294488901883362
1789799207210502100,3.963502197265625,-1.1199884373683482,-0.7163174011550844,-1.849271191623807
1789799207220475100,3.97347509765625,-1.2040098788142204,-0.7045284714229405,-2.196605204391479
1789799207230447000,3.983447021484375,-1.0839385612785815,-0.7220612055040896,-2.2304344087570906
1789799207240419000,3.993419189453125,-0.8430173430502415,-0.31218598088845606,-1.8375147028565406
1789799207250391300,4.003391357421875,-0.8817033397972583,-0.37810266051888464,-1.7410048781722782
1789799207260363000,4.013363037109375,-1.392387255334854,-0.7098302310928702,-1.4085212285339832
1789799207270335200,4.023335205078125,-1.9395839152336118,-0.25389117443859577,-1.1476087771564722
1789799207280307000,4.033306884765625,-1.5650000764906407,1.5203896581307053,-1.2089724696576594
1789799207290279200,4.043279052734375,-2.394352466803789,-2.513160632535815,-3.230950590461492
1789799207300251100,4.053251220703125,-2.8292501967340704,-1.7291379147678612,-1.637874174043536
1789799207310223000,4.06322314453125,-2.1041607294499873,-1.7285908022791145,-1.7448457715094088
1789799207320196000,4.073196044921875,-1.1870546523600816,-1.3628449345082043,-1.7458119861930608
1789799207330168000,4.08316796875,-0.8922323325961827,-1.410433199635148,-1.2161579972475767
1789799207340140000,4.09314013671875,-1.642411817473173,-1.8147145497664807,-0.6002490356504917
1789799207350112300,4.1031123046875,-1.8544634995698928,-0.2868324900537729,-0.37875147981643675
1789799207360084000,4.113083984375,-1.3032394838511943,-0.7597489849939942,-0.11590543002784251
1789799207370056200,4.12305615234375,-2.5875246763855215,-3.7383082841858264,-1.9893699826657771
1789799207380028000,4.13302783203125,-1.7592121505141258,-1.3313868431881068,-0.2892553332865238
1789799207390000000,4.143000244140625,-1.0167705664128064,-0.8873720330834388,-0.4300923754751682
1789799207399972000,4.15297216796875,-1.2716665339797735,-1.3891662474617361,-0.03743395085930824
1789799207409945000,4.162945068359375,-1.4936159252345562,-1.6757593758016824,0.588383241289854
1789799207419917000,4.1729169921875,-1.5118617760211228,-1.5053218528583645,0.9035855012595653
1789799207429889300,4.18288916015625,-1.3951152189940212,-1.0085612487331033,1.3330471776157617
1789799207439861000,4.192861083984375,-0.5318610705357044,-1.9123893265768885,0.44889001492559905
1789799207449833200,4.202833251953125,-0.07849208356514573,-0.7413359609469771,1.6910446232169865
1789799207459805000,4.212804931640625,-0.39121765122301877,-0.9169365657418965,1.8981629405647515
1789799207469777200,4.222777099609375,-0.4372844058711082,-1.0062760604053735,1.5998814202576874
1789799207479749000,4.2327490234375,-0.5984148790258914,-1.1499977181196213,1.748224892553687
1789799207489721000,4.24272119140625,-0.5605834532815963,-0.9941858096390962,1.9000106142580508
1789799207499693000,4.252693115234375,-0.12691022364497184,-0.7539408832371235,2.151329307860136
1789799207509666300,4.262666259765625,0.042112464064359666,-0.4736030158996582,2.3689093979895115
1789799207519638000,4.272637939453125,-0.49869595610201356,0.49224283443987366,2.759373527431488
1789799207529610200,4.2826103515625,-0.1512502996534109,0.02185878058671951,1.8013351359724998
1789799207539582000,4.29258203125,-0.14141973744742573,0.4954688107490539,1.1000871475249527
1789799207549554200,4.30255419921875,0.13769706366248427,1.281234572792053,0.797976424318552
1789799207559526100,4.312526123046875,-0.22771043899953364,1.6993220376968383,0.5339467177033425
1789799207569498000,4.322498046875,-0.6563239740937948,2.544060213190317,0.5785913305938244
1789799207579470000,4.332469970703125,-0.9276981982529163,3.903232012143731,0.7854132953435182
1789799207589442000,4.342442138671875,1.098290911757946,2.616179692983627,1.5647154143303632
1789799207599415000,4.3524150390625,0.5541436660250648,1.3667781823039054,1.5217735137045383
1789799207609387300,4.36238720703125,0.3343471419552341,0.26626959449648857,1.3432102597117423
1789799207619359000,4.37235888671875,0.10190675182435661,-0.6944763023555278,1.2842127118200064
1789799207629331200,4.382331298828125,0.08440265931580215,-1.2100982588171958,1.253764966586232
1789799207639303200,4.39230322265625,-0.21965101465191691,-1.4262714047580956,1.5003478638380765
1789799207649275100,4.402275146484375,-0.7122305702328682,-1.3043769634485245,1.8228613236039877
1789799207659247000,4.4122470703125,-0.9716109897375106,-0.736390028977394,1.7428186495959759
1789799207669219000,4.422218994140625,-0.8289011394143104,-0.56619712844491,1.7215952443033455
1789799207679191000,4.43219091796875,-0.9061270024359226,-0.5005629190176725,1.563479150533676
1789799207689163300,4.442163330078125,-1.187421147584915,0.1295961017280817,1.9069786997050047
1789799207699136000,4.452135986328125,-1.4178443526744842,0.5013087689489126,1.8064175538033247
1789799207709108200,4.462108154296875,-1.2543962502270936,0.17837503794431686,1.3640981494396924
1789799207719080200,4.472080078125,-1.1701204686939715,0.04868891984522342,1.1546733087152241
1789799207729052200,4.48205224609375,-1.0976257258474826,0.3428998297125101,0.7820739217877387
1789799207739024100,4.492024169921875,-1.04697690410614,0.4906020814955234,0.5313087704151869
1789799207748996000,4.50199609375,-0.7117360647141933,0.5233054967015981,0.46699324237108225
1789799207758968000,4.511968017578125,-0.31514322325885297,0.42847324984073637,0.49375557709038254
1789799207768940300,4.521940185546875,-0.11292265135738998,0.3320283070862293,0.6515595361709594
1789799207778912000,4.531912109375,-0.16848142043948172,0.08115209655463695,0.8071294525891543
1789799207788885000,4.541885009765625,-0.36981998534202576,-0.25285540165007114,0.9879232421129941
1789799207798857200,4.551857177734375,-0.4760118306070566,-0.6727034464865923,0.9344961878299712
1789799207808829200,4.5618291015625,-0.5527396809786558,-1.0523457376629113,0.9003431583374738
1789799207818801200,4.57180126953125,-0.599787847879529,-1.182950724172592,1.004794297415018
1789799207828773000,4.581773193359375,-0.6123370213944465,-1.0968570795625447,1.1737456734538079
1789799207838745000,4.5917451171875,-0.7693372628767043,-0.7294675362378359,1.1954138999044894
1789799207848717300,4.60171728515625,-0.9368016152281313,-0.3864712604135275,1.3296066817730665
1789799207858689000,4.61168896484375,-1.0074697271693498,-0.3421142322927713,1.4108102162539957
1789799207868661200,4.6216611328125,-1.0917360832870007,-0.40040976939499373,1.5220377175986766
1789799207878633000,4.631633056640625,-0.9720995769720524,-0.5271124877691269,1.6785674189597368
1789799207888606000,4.64160595703125,-0.7478338715989142,-0.7133581129580736,1.593340035790205
1789799207898578200,4.651578125,-0.7630547485411167,-0.6246621768951416,1.3558821097582578
1789799207908550100,4.661550048828125,-1.0214842239964752,-0.3990285441696644,1.1002063899904488
1789799207918522000,4.671522216796875,-1.4656412921160458,-0.21700842772126197,0.7668523872584104
1789799207928494300,4.681494384765625,-1.7006752058714627,-0.08884265105724334,0.47181262535154816
1789799207938466000,4.691466064453125,-1.7462708358764647,-0.14073358181416987,0.5813526120007038
1789799207948438300,4.701438232421875,-1.8428660007566213,-0.3127618810802698,1.0181938772141932
1789799207958410000,4.711409912109375,-2.060316327026486,-0.32058395300805564,1.6643658751279116
1789799207968382200,4.72138232421875,-2.007217774045467,-0.313520590493083,2.1394313647955654
1789799207978355200,4.731355224609375,-1.605613241907954,-0.29406477939486503,2.3072674730688334
1789799207988327000,4.741326904296875,-1.3129068913847208,-0.2788327234715223,2.325794478884339
1789799207998299100,4.751299072265625,-1.2841899154663086,-0.1579383991152048,1.9883768799751995
1789799208008271000,4.76127099609375,-1.137039963803813,0.15900807417333124,1.538681978407502
1789799208018243000,4.7712431640625,-1.1464356417238712,0.39329789156317707,1.5952560985445976
1789799208028215300,4.78121533203125,-1.0585422542154788,0.38173897119462485,1.3658037843137978
1789799208038187000,4.79118701171875,-0.9386866252571344,0.2573176417559385,1.025801429608464
1789799208048159200,4.8011591796875,-0.8639157541722059,0.17667992446422576,0.9252554812759161
1789799208058131200,4.811131103515625,-0.5171399963418022,0.11474164694547652,0.715524351081252
1789799208068104000,4.82110400390625,-0.41220428861770775,0.16993687994480133,0.7251572718232869
1789799208078076200,4.831076171875,-0.5764104794234037,0.25928455791473387,0.7721540007978678
1789799208088048000,4.841048095703125,-0.7100771915912628,0.41546237709820266,0.8639134160846471
1789799208098020000,4.85102001953125,-0.7597235582917928,0.47549102160334583,0.9693623340278863
1789799208107992000,4.860991943359375,-0.6944839011400937,0.3921843773633241,1.1285399195492267
1789799208117964000,4.870964111328125,-0.7845254065930843,0.3278159500882029,1.2969687330186366
1789799208127936000,4.88093603515625,-0.8451619538635015,0.3846194950670004,1.1661059723556042
1789799208137908200,4.890908203125,-1.0168260959923268,0.4301476127937436,1.0722545532256365
1789799208147880200,4.900880126953125,-1.0117699816465378,0.10769903495758772,0.5371691868811845
1789799208157852200,4.91085205078125,-0.8821499145209789,-0.12740648272931576,0.07171732873320578
1789799208167825200,4.9208251953125,-0.9938380191147327,-0.34773996322005984,-0.157641461995244
1789799208177797000,4.930797119140625,-0.9262076674342155,-0.5864034656494855,-0.3202203803926706
1789799208187769000,4.94076904296875,-0.5608709649860859,-0.851944161349535,-0.40007542287409303
1789799208197741000,4.950740966796875,-0.2949965255533345,-1.1572577722504733,-0.23794833989739417
1789799208207713000,4.960713134765625,-0.1317395434975624,-1.4294482812285423,0.09017185383439064
1789799208217685200,4.970685302734375,-0.28447514980528504,-1.728806490856409,-0.025085341417789456
1789799208227657000,4.980656982421875,-0.4711187978684902,-1.7795859532400964,-0.07409808638989925
1789799208237629200,4.990629150390625,-0.600610270178318,-1.768851793257892,-0.16351824507415294
1789799208247601200,5.00060107421875,-0.5553343371143564,-1.638387092001736,-0.09597148002386093
1789799208257574400,5.010574462890625,-0.7265759064495563,-1.6761968904361129,0.03747837452292442
1789799208267546000,5.020546142578125,-0.6670061116278171,-1.608560109014809,0.14362287351489067
1789799208277518300,5.030518310546875,-0.8276957822125405,-1.583755630365014,-0.05056231250166893
1789799208287490300,5.040490234375,-0.8974900339286774,-1.3931699301451443,-0.09019114305675029
1789799208297462300,5.050462158203125,-1.0589432362318039,-1.3183552199184894,-0.10905424895882605
1789799208307434200,5.060434326171875,-1.2882488354682922,-1.2884621859580279,-0.3601443945020437
1789799208317406200,5.07040625,-1.0150198502879588,-1.2741237178735434,-0.4477671483755111
1789799208327378200,5.080378173828125,-0.732374290530011,-1.2048296707645059,-0.5365455020248889
1789799208337350400,5.090350341796875,0.04358545922636985,-1.0911419167861343,-0.7979197256952524
1789799208347323100,5.1003232421875,0.914877368189767,-0.9328162719190121,-1.3531757734090089
1789799208357295400,5.11029541015625,0.7816391105670482,-0.6636756520308553,-2.078308495312929
1789799208367267300,5.120267333984375,0.1200281359810382,-0.26404183544442056,-2.8726673136562106
1789799208377239300,5.1302392578125,0.7709330076355486,0.229462835624814,-3.2471722419440745
1789799208387211300,5.140211181640625,0.9798119049150497,0.6606647797770798,-3.589205810216069
1789799208397183200,5.150183349609375,0.3186277043737471,0.6424509315639734,-4.044478804177046
1789799208407155200,5.1601552734375,0.314865648426488,0.38731311806514856,-4.29783104943335
1789799208417127400,5.17012744140625,0.25043153550401326,0.3086383714094758,-4.306817488965392
1789799208427099100,5.18009912109375,-0.4970153826039284,0.39068230223730205,-3.896864815199375
1789799208437072400,5.190072265625,-0.496090595909208,0.3982059757404029,-3.0799691708773373
1789799208447044000,5.200044189453125,-0.24714286922216414,0.46081937604174017,-3.152115538677573
1789799208457016300,5.210016357421875,-0.23930910685658455,0.6221224292844534,-3.551557339823246
1789799208466988300,5.21998828125,-0.2554232793767005,0.8119150794304907,-4.009467112028599
1789799208476960300,5.229960205078125,-0.3162873517926782,0.95989044906646,-4.230809769561887
1789799208486932200,5.23993212890625,-0.6241652602236718,1.0657404951564966,-4.006346934181452
1789799208496904200,5.249904296875,-0.5465700524330139,1.117061224810034,-3.3973125345289703
1789799208506876200,5.259876220703125,-0.5725087958097458,0.951261152409017,-2.7267098597139117
1789799208516848400,5.269848388671875,-0.7748527383625506,0.5881678449735045,-2.3713158746093512
1789799208526820000,5.279820068359375,-0.7849428282875567,0.29604908507987854,-1.9674281999707222
1789799208536793300,5.28979345703125,-0.720735363727808,0.1438094821281731,-1.8336539357751607
1789799208546765300,5.299765380859375,-0.8141910615384578,0.0743488462805748,-1.988334794399142
1789799208556737300,5.3097373046875,-0.8065209653019905,-0.062363517193496226,-2.188767350372672
1789799208566709200,5.319709228515625,-0.9047451926887035,-0.0318587810754776,-2.001774121686816
1789799208576681200,5.32968115234375,-1.0216063160061835,0.0034621231526136397,-1.7769506363004446
1789799208586653200,5.339653076171875,-1.2540379383087157,-0.08355886543542146,-1.7862030332922934
1789799208596625400,5.34962548828125,-1.3790718466877936,-0.0900251388400793,-1.800398731905222
1789799208606597000,5.35959716796875,-1.428933901965618,-0.05019172562360763,-1.8337772698938846
1789799208616569300,5.3695693359375,-1.1701157925188541,0.05755348656326532,-1.796431581839919
1789799208626542300,5.379542236328125,-0.8053963451862335,0.20234043542146682,-1.6820546765536069
1789799208636514300,5.389514404296875,-0.898570887967944,0.3211822111621499,-1.5405226378381252
1789799208646486300,5.399486328125,-1.2313006213217974,0.322716873383522,-1.194776771044731
1789799208656458200,5.409458251953125,-1.5374404539138078,0.15525135198831558,-0.9247902018517256
1789799208666430200,5.41943017578125,-1.8856740458697079,-0.20716887849122284,-0.7151280452400446
1789799208676402400,5.42940234375,-2.044853969478607,-0.7392933492034673,-0.4182335953772068
1789799208686374100,5.4393740234375,-2.022035403949022,-1.3910586370795965,-0.03928454716205597
1789799208696346400,5.449346435546875,-1.8508774577766656,-1.7480013129308818,0.18169862940907477
1789799208706318000,5.459318115234375,-1.7583786222994326,-1.8729501733750105,0.4886293201178312
1789799208716291000,5.469291015625,-1.6558108127504587,-1.912585725931823,0.73537179184556
1789799208726263300,5.47926318359375,-1.4822598339617252,-1.855543111500144,0.9944096815228461
1789799208736235300,5.4892353515625,-1.3056518056899309,-1.5683704297065735,1.331730249798298
1789799208746207200,5.499207275390625,-1.3591653692126273,-1.1525234372049569,1.7328391073733567
1789799208756179500,5.509179443359375,-1.477409471321106,-0.8573398829132318,1.9966554634988307
1789799208766151200,5.519151123046875,-1.464479262599349,-0.6826514245271682,1.940514474081993
1789799208776123400,5.529123291015625,-1.3017273257225752,-0.3969979151248932,1.9097019871890544
1789799208786095000,5.53909521484375,-1.3445020530879497,-0.19399989257752895,2.186227018240094
1789799208796067300,5.5490673828125,-1.1907021420169621,-0.04894552495479584,2.316757185947895
1789799208806039300,5.559039306640625,-1.1598293763041496,0.1411672970563173,2.559614340674877
1789799208816012000,5.569011962890625,-1.0941969204425812,-0.3237392021685839,2.246841938200593
1789799208825984300,5.578984375,-1.0811766953498125,-0.7070967144757508,2.25180862069726
1789799208835956200,5.588956298828125,-1.2809224381029605,-0.7234095513731241,2.572089206844568
1789799208845928200,5.59892822265625,-1.2305015798985957,-0.834379278564453,2.2242478290766474
1789799208855900200,5.608900146484375,-0.7249310618519783,-1.0490110402822495,1.759547081556916
1789799208865872100,5.6188720703125,-0.6032610769480466,-0.9742103585809468,1.5747785431832073
1789799208875844400,5.62884423828125,-0.5233568615626544,-1.1733148808211087,1.2275742942750454
1789799208885816300,5.63881640625,-0.5266834487020969,-1.0551029274165629,1.1579074683308601
1789799208895788300,5.648788330078125,-0.6242372294813394,-0.9488643204003572,1.3267320031195877
1789799208905761300,5.65876123046875,-0.6741606595575809,-0.9562871638774871,1.5708096395522355
1789799208915733200,5.668733154296875,-0.8394050708372145,-0.9598375498354434,1.852825669234991
1789799208925705200,5.678705322265625,-0.8941887273609638,-0.8572071964442729,2.0904285566955805
1789799208935677200,5.68867724609375,-1.099814175802469,-0.6674731446176767,2.2630717729896306
1789799208945649200,5.698649169921875,-1.5743097566276787,-0.46844870187640186,2.1635171737819907
1789799208955621000,5.70862109375,-1.8086632869035004,-0.22405834623277185,2.0341221475839615
1789799208965593300,5.71859326171875,-1.9204478376090526,-0.019020926812291145,2.0870605415672063
1789799208975565300,5.7285654296875,-1.6893272979050873,0.10021393989920616,2.1149498344898223
1789799208985537300,5.738537353515625,-1.389414377003908,0.3680599899321794,2.2115701338112355
1789799208995509200,5.74850927734375,-1.2400327938318252,0.6142571027368307,2.2298083858132363
1789799209005482200,5.758482177734375,-1.1311211682140827,0.8220692475676536,2.235953464439511
1789799209015454200,5.7684541015625,-1.0563794501584023,0.8796072443008423,2.1361586267352104
1789799209025426200,5.77842626953125,-0.8630120833307504,0.5443097062855958,1.9273720839142798
1789799209035398100,5.788398193359375,-0.572822172607854,-0.045026890206336975,1.8235498903900385
1789799209045370400,5.798370361328125,-0.19556414621956644,-0.8157757003813981,1.889279376885295
1789799209055342000,5.808342041015625,-0.31627025452740487,-1.4130951123207807,2.116756007128954
1789799209065314300,5.818314208984375,-0.5571434688955546,-1.5973732368290423,2.5378268717586994
1789799209075286300,5.828286376953125,-0.8519277947366237,-1.534590325179696,2.3837048160612584
1789799209085258200,5.83825830078125,-1.1402526422400028,-1.3320949914574622,1.5783821206331252
1789799209095231200,5.848231201171875,-1.301509299057722,-0.8845856172353028,0.8378291267573833
1789799209105203200,5.858203125,-1.476193081268668,-0.3909188874721527,0.4876368019491434
1789799209115175200,5.868175048828125,-1.9059212996065615,-0.42635728060007094,-0.2713578575462103
1789799209125147400,5.8781474609375,-2.018451115721464,-0.4147860852718353,-0.3900947116076946
1789799209135119000,5.888119140625,-2.1279560310572383,-0.3763262984961271,-0.6646662705034018
1789799209145091300,5.89809130859375,-1.9095453353226184,-0.43924131209254264,-1.018529977300763
1789799209155063000,5.90806298828125,-2.1233289557784794,-0.4229021717101335,-0.923258169978857
1789799209165035300,5.91803515625,-2.419895488861203,-0.4498422010838985,-0.6860550954908132
1789799209175007200,5.92800732421875,-2.65528362288177,-0.5479565383553504,-0.09782850606739521
1789799209184980200,5.937980224609375,-2.5885896752685307,-0.572534514772892,1.0128273817449807
1789799209194952200,5.9479521484375,-1.9781343029022216,-0.41491409556567665,2.082098535245657
1789799209204924400,5.95792431640625,-1.1388654987305402,-0.17554653652012348,3.018049598059058
1789799209214896000,5.967896240234375,-0.777470811906457,0.06163841778934002,3.627930969929695
1789799209224868400,5.977868408203125,-1.0130337179720401,0.13339900114238262,3.8838907673358913
1789799209234839600,5.987839599609375,-1.2766940067529677,0.0008066402077674866,3.200637285262346
1789799209244811800,5.997811767578125,-1.3717407731473445,-0.20404665481746195,1.6147528261750936
1789799209254783700,6.00778369140625,-1.289634736868739,0.02864624876976013,0.4796668459832668
1789799209264755700,6.017755615234375,-1.3844634765982626,0.5012573310226202,0.10881050333082676
1789799209274728700,6.027728759765625,-1.4663257672488688,0.6971756244421005,-0.04062719394266605
1789799209284701000,6.037700927734375,-1.3391811503261326,0.6512859799265861,0.14824585714042185
1789799209294672600,6.047672607421875,-0.9534504791468381,0.4097404923200607,0.47283670770227904
1789799209304644900,6.057644775390625,-0.7257832947671413,0.2016875244706869,0.8677560629874468
1789799209314616600,6.067616455078125,-0.7568348511129617,0.17798866897523402,1.5415701010644436
1789799209324588800,6.0775888671875,-0.9113830232679844,0.20806904220134018,2.269687976258993
1789799209334560800,6.087560791015625,-0.9159493082702159,0.015360358478128909,2.4150369429141283
1789799209344532700,6.09753271484375,-0.9954746804058551,-0.253536369651556,2.4382763642042873
1789799209354504700,6.107504638671875,-1.1142314082115887,-0.5851368067145347,2.420356676632166
1789799209364476700,6.1174765625,-1.1008517021566628,-1.2077937812671065,1.751503475832939
1789799209374449700,6.12744970703125,-0.9209200824201107,-1.5825430397048592,0.9319950186640024
1789799209384422000,6.137421875,-0.6979191362857818,-1.6576158163458108,0.4277653938323259
1789799209394393600,6.1473935546875,-0.36228666722774505,-1.3632315957382322,0.03728139064610004
1789799209404365800,6.15736572265625,-0.5645768702993169,-1.1773945513501762,-0.5215881713896989
1789799209414337800,6.167337890625,-0.26701895155906674,-0.9326172422155737,-0.5054430922746658
1789799209424309800,6.177309814453125,-0.27687512313034385,-0.9237178964450955,-0.5520581284552812
1789799209434281700,6.18728173828125,-0.22021624731924383,-1.0843877663508057,-0.3138789024114609
1789799209444253700,6.197253662109375,0.0632159693043679,-1.346517484563589,-0.1280704995959997
1789799209454225700,6.2072255859375,0.2661972233800217,-1.636313500598073,-0.11322072098851203
1789799209464199000,6.217198974609375,0.2837223221439868,-1.6736080429866909,-0.24861177273094653
1789799209474170600,6.227170654296875,0.6646235273402183,-1.5628244860172271,-0.32314357436299324
1789799209484142800,6.237142822265625,0.17995317398123442,-1.5756170398339628,-0.5775953052937984
1789799209494114800,6.24711474609375,0.10722359946556388,-1.6590313822321592,-0.7994435742616653
1789799209504086800,6.257086669921875,0.6304325039248914,-1.4646337225086987,-1.49146371563673
1789799209514058800,6.267058837890625,0.6235866566181183,-1.1440706661581992,-1.9730664981186388
1789799209524030700,6.27703076171875,0.5200012675244361,-0.8777357513405382,-2.574440738406777
1789799209534002700,6.287002685546875,0.8097640388764441,-0.63337929796651,-3.2318086685955523
1789799209543975000,6.296974853515625,0.9733832601070403,-0.33379648580253124,-3.7906793996751307
1789799209553946600,6.306946533203125,0.5006209328152239,0.01923632312864065,-4.218817133951187
1789799209563920000,6.316919921875,0.13982581931948662,0.270782103484869,-4.482826382300257
1789799209573891800,6.326891845703125,0.47038595354929563,0.37190614396631716,-4.47019427974224
1789799209583863800,6.33686376953125,0.6069850659072399,0.34073812163397665,-4.369553638863564
1789799209593835800,6.346835693359375,0.6451029804427176,0.06421425962671637,-4.3420325947314495
1789799209603807700,6.356807861328125,-0.44892347880378364,-0.5677046103984117,-4.030287197217345
1789799209613779700,6.36677978515625,-0.7267488518636673,-0.8302643905915319,-3.5819197448611257
1789799209623752000,6.376751953125,-0.7487221987407654,-0.7022324694402515,-2.746185544556379
1789799209633723600,6.3867236328125,-0.5315340305384249,-0.5490471100710332,-2.623303845775127
1789799209643695900,6.39669580078125,-0.8054033594489097,-0.22849720546305177,-2.7431729187369345
1789799209653668900,6.4066689453125,-0.8766272786419839,0.011339724659919738,-2.9877310321629045
1789799209663640800,6.416640869140625,-0.6542681375425309,0.031307869194447994,-3.4730507893413303
1789799209673612800,6.42661279296875,-0.5676749459125101,0.09158040545806288,-3.8960394702911376
1789799209683584800,6.436584716796875,-0.5031517664670944,0.30502354191318154,-3.9525878714650866
1789799209693556700,6.446556640625,-0.597520560534671,0.5696263722412288,-3.6488019085228443
1789799209703529000,6.456529052734375,-0.3081727266591042,0.7539841378569603,-3.39076764293015
1789799209713500700,6.466500732421875,-0.2021358527600765,0.930198636766523,-3.1483173154383897
1789799209723473000,6.476472900390625,-0.3884123845439404,1.049540470983833,-2.6154215680927035
1789799209733444600,6.486444580078125,-0.570088802121207,1.0601388757571577,-2.0142337902873755
1789799209743416800,6.496416748046875,-1.130946980690956,0.9145835728749633,-1.6788117491096257
1789799209753389800,6.506389892578125,-1.1250281851012258,0.6322749899864196,-1.6826684245377779
1789799209763361800,6.51636181640625,-0.42013332805130627,0.3259118700325489,-2.1655688456147906
1789799209773333800,6.526333740234375,-0.5081389072299003,0.16638064876794814,-2.3863357490867374
1789799209783306000,6.536305908203125,-0.6865010856926441,0.16942863816171883,-2.3260955076575276
1789799209793277700,6.546277587890625,-0.7562088281691074,0.19466712431460617,-2.1536258943647146
1789799209803250000,6.55625,-0.8981295739412307,0.15990473075211048,-1.888723496568203
1789799209813221600,6.5662216796875,-0.905413885730505,0.10892886901348829,-1.7018407425194977
1789799209823193900,6.57619384765625,-0.8328232812941074,0.018886194516718385,-1.361972827848792
1789799209833165800,6.586165771484375,-0.5037245979189873,-0.10772270809412002,-0.8834680113822221
1789799209843138800,6.596138916015625,-0.41494156809449195,-0.2924547138497233,-0.27032091571390626
1789799209853110800,6.60611083984375,-0.5846762034654617,-0.6540835016906261,0.45093934867084023
1789799209863083000,6.6160830078125,-0.8367378243893384,-1.2540829464942216,1.1876222231149673
1789799209873054700,6.6260546875,-1.0045271709114312,-1.7214280710428953,1.7001088041603565
1789799209883027000,6.63602685546875,-0.8735942676216364,-2.011402950775623,2.0376690264105797
1789799209892998700,6.64599853515625,-0.9953963544726371,-2.2984505448848007,2.3145669824272392
1789799209902971000,6.655970947265625,-1.1247247451752425,-2.252548040887713,2.555813194826245
1789799209912942800,6.66594287109375,-0.8104261560469865,-1.7526193281203508,2.466487144166231
1789799209922914800,6.675914794921875,-0.546191282248497,-1.2878823402434587,2.096803936946392
1789799209932886800,6.68588671875,-0.8981810118675232,-0.8888608103364706,1.9361025028586387
1789799209942859800,6.69585986328125,-1.1693003844827412,-0.6781400845825671,2.028031429493427
1789799209952831700,6.705831787109375,-0.8947995527356862,-0.49681028848588465,2.3212772937208412
1789799209962804000,6.715803955078125,-0.42390579579472537,-0.4133013996720314,2.689685074177384
1789799209972775700,6.725775634765625,-0.22758827392458914,-0.4979933607906103,3.1067057866334915
1789799209982748000,6.735747802734375,-0.2602998907034285,-0.55524961797297,3.030807957345247
1789799209992720000,6.745719970703125,-0.3360895651757717,-0.8260925117343664,2.7700404673963783
1789799210002691800,6.75569189453125,-0.5368664045423269,-0.86901804574728,2.4569161827445027
1789799210012663800,6.765663818359375,-0.4190566021978855,-1.0196253713220358,2.2222990330964327
1789799210022635800,6.7756357421875,-0.47153033781144765,-0.8724772462904453,2.2855513158231973
1789799210032607700,6.785607666015625,-0.5093950082382187,-0.6511340042352676,2.3521610922843217
1789799210042580700,6.795580810546875,-0.3745931910932064,-0.41187750434875486,2.2781804947942494
1789799210052552700,6.805552734375,-0.6329366687655449,-0.3051595893830061,2.398400280889869
1789799210062524700,6.815524658203125,-0.7242331427156925,0.10495032077133655,2.5445705008000132
1789799210072497000,6.825496826171875,-0.8500847972184419,0.2512099725306034,2.588063605567813
1789799210082468900,6.83546875,-0.940966260626912,0.31161212652325626,2.7713363524258137
1789799210092440800,6.84544091796875,-0.7064543249189853,0.1741302399814129,2.642877730295062
1789799210102412800,6.855412841796875,-0.3250087837129831,0.11352116523981094,1.8898691594719885
1789799210112384800,6.865384765625,-0.09080080852084793,0.30952246076762674,1.3929565796554089
1789799210122357000,6.87535693359375,-0.028815750984614714,0.6850514714062214,1.1725047334820031
1789799210132329700,6.885329833984375,-0.13561901527941225,1.0280594376683234,1.2769120334178208
1789799210142301700,6.8953017578125,-0.4740694643676281,1.293105627849698,1.7698837666541336
1789799210152274000,6.90527392578125,-0.4804699790596962,1.1547656631737946,1.8982763378113507
1789799210162245600,6.91524560546875,-0.16658406238555906,0.7434218273103237,1.7019301743686197
1789799210172217900,6.9252177734375,0.05069206722802482,0.46831893801689145,1.53062902033329
1789799210182189800,6.93518994140625,0.16022855587899684,0.20855098049938678,1.3892314216524362
1789799210192161800,6.945161865234375,0.36948271621167655,-0.12950199370384216,1.326159171667695
1789799210202134000,6.955134033203125,0.498318354961276,-0.39482816987037656,1.4830530301660299
1789799210212105700,6.965105712890625,0.29513447271930054,-0.5433505058646202,1.5346470238029957
1789799210222078700,6.97507861328125,-0.037300679868459696,-0.5471142423123121,1.6225824968874454
1789799210232051500,6.985051513671875,-0.20338729585958643,-0.5153577525675297,1.7052344766110181
1789799210242023400,6.9950234375,-0.16127311476217582,-0.6107271750450134,1.3763807079076766
1789799210251995400,7.004995361328125,-0.47627544997930527,-0.5139852951705456,1.2543641015231608
1789799210261967400,7.01496728515625,-0.8174789971679448,-0.33300212055444717,1.3384919990181923
1789799210271939600,7.024939697265625,-1.1597639098525048,-0.2987228343337774,1.004980759897828
1789799210281911300,7.034911376953125,-1.4582126034200191,-0.2838432451099157,1.088424766781926
1789799210291883500,7.044883544921875,-1.7821219014585017,-0.16204115825891494,1.2584271131783724
1789799210301855200,7.054855224609375,-1.717525218385458,-0.2280833639651537,1.5474088902205227
1789799210311827500,7.064827392578125,-1.5344073698282241,-0.3556628651738167,1.5370254433721302
1789799210321799400,7.07479931640625,-1.383015615877509,-0.4665905067890882,1.390386436906457
1789799210331772400,7.0847724609375,-1.4600789818137883,-0.49002691195607184,1.3720517387926578
1789799210341744400,7.094744384765625,-1.481214124301076,-0.38652328286170956,1.3142986380040644
1789799210351716600,7.104716552734375,-1.0873363870233297,-0.3212041307330131,1.2785159614831207
1789799210361688300,7.114688232421875,-0.6055518182337284,-0.2418646365582943,1.370042737057805
1789799210371660500,7.12466064453125,-0.2938753760362975,-0.20305062951743602,1.524299232789874
1789799210381632300,7.13463232421875,-0.30461306141614913,-0.16783961540460585,1.7409353200674056
1789799210391604500,7.1446044921875,-0.5302256513535976,-0.15764789173603058,1.823147739329934
1789799210401576400,7.154576416015625,-0.7654010194063187,-0.3770832543432712,1.4896598810851573
1789799210411548400,7.16454833984375,-0.7541016267567873,-0.407479561650753,0.8154904536992311
1789799210421520400,7.174520263671875,-0.6769938371568918,-0.3346843745529651,0.06280570800304412
1789799210431493600,7.18449365234375,-0.39191023659706115,-0.4109361318454146,-0.5089017082959413
1789799210441465300,7.19446533203125,-0.22933482533097266,-0.44072716673612594,-0.5575485425651073
1789799210451437600,7.2044375,-0.059733465517428704,-0.4192866115614772,-0.05870294885933399
1789799210461409300,7.2144091796875,0.02325929503440857,-0.49825990277230736,0.720591571342945
1789799210471381500,7.224381591796875,0.03141689166002907,-0.5710065745532512,1.5439076041013002
1789799210481353500,7.234353515625,-0.191204124379158,-0.9275231339469552,1.9258254389941691
1789799210491325400,7.244325439453125,-0.4376736243844032,-1.3708759730115532,2.1366864500015974
1789799210501297400,7.25429736328125,-0.2430032669330947,-1.6868042091682551,2.2369506587833166
1789799210511269400,7.264269287109375,-0.3917769656062126,-1.8965680725887417,2.187075744023919
1789799210521241300,7.274241455078125,-0.1610100616455078,-2.120834216353297,1.9757932927340267
1789799210531214600,7.284214599609375,0.3929003801455721,-2.2774030806809664,1.7843284715920686
1789799210541186300,7.294186279296875,0.18901220382545142,-2.5002380225986243,1.006877533429861
1789799210551158500,7.304158447265625,0.13090491930432616,-2.2905939861655233,0.4510860636651516
1789799210561130500,7.314130615234375,0.2441992535183206,-1.8952070133686065,0.047803369182348246
1789799210571102500,7.3241025390625,0.7718227230168878,-1.6991536953926085,-0.4421013776987791
1789799210581074400,7.334074462890625,0.7408698778051882,-1.7364239801228045,-0.9784089793145656
1789799210591046400,7.34404638671875,0.769596717530489,-1.4616960616216064,-1.5086159259676932
1789799210601018400,7.354018310546875,0.900722366913408,-0.978446534845978,-2.34985164629817
1789799210610990600,7.363990478515625,0.871326907211542,-0.8978015110306441,-3.2994647392392156
1789799210620962300,7.37396240234375,0.9780561472889036,-1.1764308208845555,-3.8851626869678495
1789799210630935600,7.383935546875,1.0752117955960332,-1.0368141142711043,-4.10497272810638
1789799210640907500,7.393907470703125,1.2284358795404433,-0.44835313156992196,-3.9107711754769086
1789799210650879500,7.40387939453125,0.6170505328476429,-0.11916180147528647,-3.8713878441154956
1789799210660851500,7.4138515625,0.0621358459174633,-0.2848179353609681,-4.493444222426414
1789799210670823400,7.423823486328125,0.232064542555809,-0.6112175889104604,-4.940394209200144
1789799210680795400,7.43379541015625,0.4777332475721836,-0.4961106157839298,-4.801694763562083
1789799210690767600,7.443767578125,0.0964344213604927,-0.352219446721673,-4.488022781899571
1789799210700739300,7.4537392578125,-0.4751436694703996,-0.4816442835360765,-4.482968421119451
1789799210710711600,7.463711669921875,-0.3434101173222065,-0.5782625370308756,-4.122776680344343
1789799210720683300,7.473683349609375,-0.02398402911238372,-0.1318367202617228,-3.482681956517696
1789799210730656500,7.483656494140625,-0.13750870148353278,0.20040069953054188,-3.14934198231101
1789799210740628500,7.49362841796875,-0.5367183743737638,0.15947335359752177,-3.3625264678299427
1789799210750600400,7.503600341796875,-0.6069416651569306,0.01934475193917751,-3.6300919473558664
1789799210760572400,7.513572509765625,-0.7044879932820797,0.006848404590040445,-3.733025083085894
1789799210770544600,7.523544677734375,-0.6204806534267961,0.0781672355249524,-3.4402789850741624
1789799210780516400,7.533516357421875,-0.4347182086449116,0.17366218407824635,-3.1288632579058406
1789799210790488600,7.543488525390625,-0.60088616451025,0.10676292315125464,-3.2162340828448532
1789799210800460300,7.553460205078125,-0.5300642502468079,0.0769493841677904,-3.3809400763988493
1789799210810432500,7.5634326171875,-0.26398988606147467,0.15014701458662746,-3.4261206958621737
1789799210820404500,7.573404541015625,-0.5128851519089191,0.21644991705566644,-3.398904187634587
1789799210830377200,7.583377197265625,-0.8938461975336074,0.29489377756491303,-3.027443449348211
1789799210840349400,7.593349365234375,-0.7947253866333513,0.41828444878160953,-2.8150258565485475
1789799210850321400,7.6033212890625,-0.5204103597819805,0.4930936060503125,-3.0600223613917827
1789799210860293400,7.61329345703125,-0.5407084669232368,0.5589131089165806,-3.079380557334423
1789799210870265600,7.623265625,-0.7836369333207607,0.580248157890141,-2.8750077393025157
1789799210880237300,7.6332373046875,-0.7111784308314323,0.49242812787890433,-2.443278702536225
1789799210890209500,7.64320947265625,-0.6559446193873882,0.26324557050019504,-2.002943749988079
1789799210900181500,7.653181396484375,-0.7220528760671615,-0.16237725834548472,-1.6347013892263174
1789799210910153500,7.663153564453125,-0.574257685303688,-0.5321034279242157,-1.131221121457219
1789799210920125400,7.67312548828125,-0.39323359415531156,-0.7752996053472161,-0.5164338573664427
1789799210930098400,7.683098388671875,-0.3888794905990362,-1.0858847269102931,0.05262801285982131
1789799210940070400,7.6930703125,-0.5518137983053922,-1.3888064742386341,0.6716548142164945
1789799210950042400,7.70304248046875,-0.6993816100537776,-1.734679474543035,1.0853881755650043
1789799210960014300,7.713014404296875,-0.7409376092791556,-2.1645769119679925,1.4666788184702395
1789799210969986600,7.722986572265625,-0.5321820461183786,-2.337844105379283,1.5777975987434387
1789799210979958500,7.73295849609375,-0.5452320818275213,-2.1894360434144735,1.603325423231721
1789799210989930500,7.742930419921875,-0.5506359136324376,-1.9687913050174712,1.7197510777413845
1789799210999902500,7.75290234375,-0.4034248063672334,-1.75122173628211,1.6761358078986406
1789799211009874400,7.76287451171875,-0.5984492927521466,-1.620734823194146,1.9071914656728506
1789799211019846400,7.772846435546875,-0.7547538801204413,-1.5577531741023063,1.9640216063976286
1789799211029818600,7.782818603515625,-0.730966177297756,-1.472084476906061,2.0778876395523547
1789799211039791400,7.792791259765625,-0.7232534840285778,-1.3208522974312304,2.5070348431319
1789799211049763300,7.802763427734375,-0.6745289083480834,-1.078872510060668,2.939014055266976
1789799211059735600,7.812735595703125,-1.013026046122238,-0.9744833303034305,3.2851264172852037
1789799211069707500,7.82270751953125,-0.9139122494846582,-0.7691109798401594,3.539477610450983
1789799211079679500,7.832679443359375,-0.8730243587791919,-0.5630553232878446,3.363677975952625
1789799211089651500,7.8426513671875,-0.7945452077608555,-0.2627729845523834,2.785957582974434
1789799211099623400,7.85262353515625,-0.841014697990939,-0.15520809736847876,2.0662112302839755
1789799211109595600,7.862595703125,-1.2542840220242737,-0.03906593597531319,1.6139683977991341
1789799211119567400,7.8725673828125,-1.3707956012517213,0.10123100798726081,1.2717881145328283
1789799211129539600,7.88253955078125,-0.9105658616662025,0.23080840501487254,1.2404133175820111
1789799211139512300,7.89251220703125,-0.5839590316394344,0.328645678910613,1.2113947283685207
1789799211149484300,7.902484375,-0.6011100363940001,0.2366623917400837,1.2388181573450565
1789799211159456500,7.91245654296875,-0.313420089260675,0.23655425519049167,1.2223673732817173
1789799211169428200,7.92242822265625,-0.2818301517218351,-0.1507452727407217,1.3205571138769387
1789799211179400400,7.932400390625,-0.3406927115896716,-0.6732125650525093,1.5192156459152697
1789799211189372400,7.942372314453125,-0.12885905615780502,-1.0076660534590482,1.7119032868504522
1789799211199344400,7.952344482421875,-0.0008709376156330108,-0.8936182339966297,2.2666326803416013
1789799211209316600,7.962316650390625,0.039511962709762156,-0.29117431865036486,2.7452731058865782
1789799211219288300,7.972288330078125,-0.1944505224218592,0.343034269747138,3.0171640473961827
1789799211229260500,7.982260498046875,-0.3632382688641548,0.6945645651608705,2.9739900915801525
1789799211239231500,7.9922314453125,-0.3604892624169588,0.7369874103486538,2.854398666515946
1789799211249204700,8.002204833984376,-0.3319366102147847,0.5972679740130901,2.591246911779046
1789799211259176700,8.0121767578125,-0.2973310877144337,0.4588274715721607,2.2889842128813265
1789799211269148700,8.022148681640624,-0.3021604440996423,0.32477322139143944,2.1015163524210454
1789799211279120600,8.03212060546875,-0.27352358421273526,0.15739596280157564,1.8437714251637458
1789799211289092900,8.0420927734375,-0.24752514653801916,0.019060089778900145,1.5384826564431189
1789799211299064600,8.052064697265624,-0.33237087344620375,-0.04009177189171314,1.405123402789235
1789799211309036800,8.062036865234376,-0.7351532537240535,-0.013273907592892646,1.1446294690847396
1789799211319008500,8.072008544921875,-1.0761213116563857,0.05540098470449447,0.9525216738641261
1789799211328980700,8.081980712890624,-1.1451583883296699,0.056201779693365095,0.9658990418314933
1789799211338952700,8.09195263671875,-1.6094132187128065,0.041681086909770966,0.8885439994722604
1789799211348924700,8.101924560546875,-2.09600548004508,-0.08613280757665634,0.9610054245710372
1789799211358897700,8.111897705078125,-2.341719631638378,-0.2533539988219738,0.9522516247510909
1789799211368870000,8.121869873046874,-2.273787812793255,-0.4085474831432104,0.9989414797335863
1789799211378841600,8.131841552734375,-1.8667863900482653,-0.48703123727142805,1.1902625084906815
1789799211388813800,8.141813720703125,-1.2123387312203644,-0.5418985534906386,1.448585527896881
1789799211398785500,8.15178564453125,-0.6674760672271252,-0.538112020689249,1.6271066963136196
1789799211408757800,8.1617578125,-0.6832598387490958,-0.4575771792501211,1.7342548193901777
1789799211418729700,8.171729736328125,-0.8501858464401215,-0.34982056888639923,1.7692460532724856
1789799211428701700,8.18170166015625,-1.0400145908128469,-0.44004678325653074,1.553134282130003
1789799211438673700,8.191673583984375,-1.305707335269451,-0.6152461137741804,1.3445295256167649
1789799211448645600,8.201645751953125,-1.5435259113073347,-1.0112965189158916,1.1861059733331203
1789799211458617600,8.21161767578125,-1.6661615263730287,-1.3009481580436228,1.1674176394760607
1789799211468590800,8.2215908203125,-1.6741893500059841,-1.480210500216484,1.2579887217611074
1789799211478562600,8.2315625,-1.5008581514477728,-1.659900127890706,1.364744046127796
1789799211488534800,8.24153466796875,-1.3251748368054628,-1.5638520754992962,1.4647908127665519
1789799211498506800,8.2515068359375,-1.2142799284160137,-1.4984776860520244,1.3276871118873357
1789799211508478700,8.261478759765625,-1.0520441243678331,-1.647965944468975,1.1171481724411247
1789799211518450700,8.27145068359375,-0.999119174388051,-1.5263538272321224,1.1475199298292398
1789799211528422700,8.281422607421876,-0.9429752623617649,-1.4675497560858726,1.2334545844852924
1789799211538394600,8.29139453125,-0.8896908314198255,-1.3816548489183187,1.4618155963480473
1789799211548366800,8.301366943359374,-0.8791308589607477,-1.400538997608423,1.7212895393550396
1789799211558338600,8.311338623046876,-0.7587970910966396,-1.5507614155188203,1.8112094642549752
1789799211568310800,8.321310791015625,-0.5836702412933111,-1.8250830913066862,1.2784347129404543
1789799211578283800,8.33128369140625,-0.46578795823454855,-2.0062977365911006,0.7207225042462349
1789799211588255700,8.341255859375,-0.3805272573173046,-2.0013728474095465,0.3460007183372974
1789799211598227700,8.351227783203125,-0.4517313758313656,-1.888047789263725,0.1315174251794815
1789799211608199700,8.36119970703125,-0.5970528699576855,-1.8062334294080733,-0.10442892724573612
1789799211618171600,8.371171630859376,-0.09096442898418754,-1.5839830093801022,-0.4519213454455137
1789799211628143900,8.381143798828125,0.12848145501706748,-1.4984499212622642,-1.197430500423908
1789799211638115600,8.391115478515625,-0.04975801038146019,-1.5882658012658357,-2.009821819064021
1789799211648087800,8.401087890625,-0.1659084281463176,-1.4912538722783326,-2.5959499749034642
1789799211658059500,8.4110595703125,0.1718937861662358,-1.1274497862249613,-2.653073545616865
1789799211668031700,8.42103173828125,0.6714847183465957,-0.7710780421294271,-2.7698651108294725
1789799211678003500,8.43100341796875,1.3077321190953255,-0.40250937202274795,-2.7316268578499554
1789799211687976700,8.440976806640625,0.7282651016455143,-0.4064569406047463,-3.1028987955659626
1789799211697948700,8.45094873046875,1.145965613059327,-0.3980439170464873,-3.09219853785336
1789799211707920600,8.460920654296874,1.4687059403836726,-0.41306086891442534,-3.0610423520892858
1789799211717892600,8.470892578125,0.9656758275348692,-0.47546413359642026,-3.32720790168941
1789799211727864800,8.48086474609375,-0.4055307656705379,-0.6533794450744986,-3.653559916704893
1789799211737836500,8.49083642578125,-0.9253214591842144,-0.7182821253567934,-3.861535727664828
1789799211747808800,8.500808837890625,-0.25966917331814765,-0.7481251826956867,-3.5879274608433245
1789799211757780500,8.510780517578125,-0.9379191480159759,-0.8855005401231348,-3.8304993688881397
1789799211767752700,8.520752685546874,-1.0978758281510324,-0.8378932780347764,-4.172592558392882
1789799211777724700,8.530724609375,-0.5366366874396801,-0.5600709006495773,-4.185830810150504
1789799211787696600,8.540696533203125,-0.32076807740330693,0.005199760600179433,-4.268433690035343
1789799211797669600,8.550669677734374,-0.6641630702216178,0.26426950672045346,-4.509739523667097
1789799211807641900,8.560641845703126,-0.9374726463574916,0.5387273761086165,-4.668861579608917
1789799211817613600,8.570613525390625,-0.9328430868607014,0.8316293953344226,-4.333287562739849
1789799211827585800,8.580585693359374,-0.8672725903194397,0.751755940413475,-3.9844524977594613
1789799211837557500,8.5905576171875,-1.0505576121371238,0.4219860797785222,-3.9401416468679904
1789799211847529700,8.60052978515625,-1.2626935384511946,0.09587985621765255,-3.8863054272621866
1789799211857501700,8.610501708984375,-1.272107848006487,-0.11967208908498286,-3.8692204369485377
1789799211867473700,8.6204736328125,-1.2161620889008045,-0.24809710120707748,-3.984411581227183
1789799211877445600,8.630445556640625,-1.3002853102207184,-0.29688085972890255,-4.093614298745989
1789799211887417600,8.64041748046875,-1.3339116854906081,-0.18024404668658972,-3.893483940589428
1789799211897389600,8.6503896484375,-1.3050000637829302,0.09557488192170858,-3.400976317733526
1789799211907361800,8.66036181640625,-1.4747007968842982,0.32906039719134567,-2.895675848799944
1789799211917334500,8.67033447265625,-1.5537807633399963,0.3751058167904615,-2.5282085640639065
1789799211927306800,8.680306640625,-1.5918582727998494,0.2241293656423688,-2.3115584482610223
1789799211937278700,8.69027880859375,-1.487821559742093,-0.02258651033937931,-2.1929659711062905
1789799211947250700,8.700250732421875,-1.5446563766419887,-0.17395663698017597,-1.7706483212858437
1789799211957222700,8.71022265625,-1.585693320429325,-0.22448329364657402,-1.1279483833968638
1789799211967194600,8.720194580078125,-1.4605810861170292,-0.3651353346571326,-0.8413152153074741
1789799211977166600,8.73016650390625,-1.3699217410266398,-0.7642305143222212,-0.6755997524499893
1789799211987138800,8.740138916015624,-1.326071493384242,-1.2055278821617363,-0.2345183654487133
1789799211997110500,8.750110595703125,-1.3248422438502312,-1.6200573623239993,0.4043868563324213
1789799212007082800,8.760082763671875,-1.1210622040797025,-2.104312120619416,1.1036480548769234
1789799212017054500,8.770054443359374,-1.2314099269151686,-2.43858002332598,1.6055021827489138
1789799212027026700,8.780026611328125,-1.3192618133693932,-2.455851476122439,1.7904612752586602
1789799212036999700,8.789999755859375,-1.0762304711192845,-2.5546616867035628,1.9585066423684356
1789799212046971600,8.7999716796875,-0.851762959563732,-2.6610674669802186,2.1098481274366376
1789799212056943600,8.809943603515626,-0.8225357691008597,-2.3505144941210747,2.146413478767872
1789799212066915800,8.819915771484375,-1.0623510719139129,-1.9065847319513558,2.3429408439964057
1789799212076887600,8.829887451171874,-1.3752210164785383,-1.4776023635447024,2.8343115717768668
1789799212086859800,8.83985986328125,-1.3297329385012386,-1.082378472355008,3.203093446242809
1789799212096831500,8.84983154296875,-1.2002695232421159,-0.729756290051341,3.1335300806730984
1789799212106803700,8.8598037109375,-1.295681031295657,-0.513686019963026,2.924679824966192
1789799212116775700,8.869775634765626,-1.312041652857512,-0.4792044891685247,2.804237920552492
1789799212126747600,8.87974755859375,-1.0994600286025553,-0.4455892198145389,2.907883588466048
1789799212136719600,8.8897197265625,-1.1935334929853676,-0.6025111353635788,2.902411294534802
1789799212146691600,8.899691650390626,-1.36748326183334,-0.8895996460050344,2.754360667705536
1789799212156664600,8.90966455078125,-1.520150442547351,-1.0072715011835098,2.6188760924607513
1789799212166636800,8.91963671875,-1.2179180657226591,-1.0035381598740816,2.6468045483499765
1789799212176608500,8.9296083984375,-1.1485762339491397,-1.3282424076825379,2.300798569315672
1789799212186580700,8.939580810546875,-1.1889436809770761,-1.3613590798646211,1.9357652337282896
1789799212196552700,8.949552734375,-1.415884450778365,-1.1143611720710993,1.698645745870471
1789799212206524700,8.959524658203126,-1.784221504086256,-0.7969131790012121,1.4990087241888046
1789799212216496600,8.96949658203125,-2.118769685038924,-0.540126283121109,1.3878221393764019
1789799212226468600,8.979468505859375,-1.5706506495982409,-0.2484516137331724,1.603244759210944
1789799212236441600,8.989441650390624,-1.5975316422611474,0.013565584015846252,2.1135633485674856
1789799212246413800,8.999413818359375,-1.3678817596316337,0.42458384118676185,2.7060516870886087
1789799212256385500,9.009385498046875,-1.0253250442683697,0.8417869244724512,3.2088720296442506
1789799212266357800,9.019357666015624,-0.9353093308437616,1.1595803699791432,3.393730584388971
1789799212276330800,9.029330810546876,-1.0336101305980234,1.2525538372308016,3.3237381797522305
1789799212286302500,9.039302490234375,-1.2557248684823512,1.0552262615352868,3.0808120514422654
1789799212296274700,9.049274658203124,-1.4415706806987523,0.5419213498443365,2.824687418863177
1789799212306246700,9.05924658203125,-1.2891922537982463,0.10535247183144092,2.675362534314394
1789799212316218600,9.069218505859375,-1.011100192626193,-0.011605682119727134,2.500260818952322
1789799212326190600,9.079190673828125,-0.8508901953171938,0.02772913392484188,2.0888819117754696
1789799212336162600,9.08916259765625,-0.956139133708924,0.12267653159797191,1.7498019326120613
1789799212346134800,9.099134765625,-1.1086217516362666,0.2140051542520523,1.8476053042382001
1789799212356106800,9.109106689453125,-1.1548206082314252,0.1540297012388706,1.787822743448615
1789799212366078700,9.11907861328125,-0.9714204356014728,-0.03382686627805233,1.8411457528352737
1789799212376050700,9.12905078125,-1.2493944964170456,-0.08125497240722179,1.855585781598091
1789799212386022700,9.139022705078125,-1.6318920308940112,-0.12446049240529536,1.3760738339155911
1789799212395994600,9.14899462890625,-1.989216107278317,-0.3681710490912199,0.6015887598216534
1789799212405967600,9.158967529296875,-2.2816619071692226,-0.7043062069743872,-0.4182838642597198
1789799212415939600,9.168939697265625,-2.286411147522926,-0.9956050287872552,-1.1901456041127443
1789799212425911600,9.17891162109375,-2.322609857498854,-1.2559557546287774,-1.3251882808089255
1789799212435883800,9.1888837890625,-2.3937181144230064,-1.3824988985270261,-0.8566489780396223
1789799212445855700,9.198855712890625,-2.0740087522923947,-1.3874012836158274,-0.19894903941750525
1789799212455827700,9.20882763671875,-1.2668785690508781,-1.4246002566754816,0.7799322335839272
1789799212465799700,9.218799560546875,-0.40633214518129823,-1.4646715703010558,2.143254137954116
1789799212475771600,9.228771728515625,-0.46221952516324816,-1.5966104357630013,3.220882200911641
1789799212485743900,9.238743896484374,-1.724768613642454,-1.9164701661497354,3.9530578270643946
1789799212495715600,9.248715576171875,-2.8229601566791533,-2.062601807615161,3.878002293819189
1789799212505687800,9.258687744140625,-2.9920728607594964,-1.995229814609885,2.587891171610355
1789799212515659500,9.268659423828124,-2.772565017437935,-1.754264172717929,1.1782318789571522
1789799212525632500,9.278632568359376,-2.498405546474457,-1.4996657267928122,0.5999252105236053
1789799212535604700,9.288604736328125,-2.000433228471875,-1.3116799799382686,0.5247749847322702
1789799212545576400,9.298576416015624,-1.4840549006849526,-1.1414718818366527,0.8025929782032966
1789799212555548700,9.308548583984376,-1.410632521599531,-0.9029691229268908,1.4826263291865587
1789799212565520600,9.318520751953125,-1.6964496971309184,-0.9801713128119707,1.9185773675620554
1789799212575492600,9.32849267578125,-1.8110937289208173,-1.296967856235802,1.8490923279255627
1789799212585464800,9.33846484375,-1.6666022558778524,-1.4633537657007574,1.4741519308298825
1789799212595436500,9.3484365234375,-1.5837953778535128,-1.696151883228123,1.0214362201362848
1789799212605408800,9.35840869140625,-1.151674711421132,-1.7491843852356075,0.7241571548700332
1789799212615380700,9.368380615234376,-0.5124485871225595,-1.75238756519109,0.6929436859607696
1789799212625352700,9.378352783203125,-0.6678472386270761,-1.885532299311459,0.7311632342398167
1789799212635324700,9.38832470703125,-0.349099268874526,-1.8756901197329163,0.6402636506527661
1789799212645296600,9.398296630859376,-0.37568800059258933,-2.0170757357150313,0.6610568478345871
1789799212655269600,9.40826953125,-0.8628349731981754,-2.112804054632783,0.1547457405537367
1789799212665241600,9.41824169921875,-0.77811787763834,-2.162903718058765,-0.22752806816995141
1789799212675213600,9.428213623046876,-0.6262731192231178,-1.9904627463385463,-0.9984674324810504
1789799212685185800,9.438185791015625,-0.37133506608009337,-1.5142797969482837,-1.7449404640555382
1789799212695157800,9.44815771484375,0.01155833584666252,-1.0646914244949817,-2.3032611600369215
1789799212705129700,9.458129638671876,-0.06067563717179,-0.7097672488592565,-2.748519540461898
1789799212715101700,9.468101806640625,0.6805564250092953,-0.5830462641760706,-2.9677813000679016
1789799212725073700,9.47807373046875,1.1197791785318403,-0.5930030100449919,-3.2841566954702137
1789799212735045600,9.488045654296876,1.260318187621981,-0.4805342764675617,-3.5512130564302202
1789799212745017900,9.498017822265625,1.3119886074960232,-0.2215323348864913,-4.015373705723881
1789799212754989600,9.507989501953125,1.2528536969602106,-0.12173852009549736,-4.3866520731806755
1789799212764961800,9.5179619140625,1.2003906654037535,0.06428864003717899,-5.175767730173468
1789799212774933500,9.52793359375,0.913989844765514,0.07299787006303668,-5.542739340347051
1789799212784905700,9.53790576171875,0.6317536695260554,-0.04333177672624588,-5.658206963479518
1789799212794878700,9.547878662109374,0.3746668408513069,0.09624328270256519,-5.358195842900872
1789799212804850700,9.5578505859375,-0.08518471307158469,0.10193374942913651,-5.035785843509435
1789799212814822700,9.56782275390625,-0.2634275760035962,-0.03142828070372343,-5.188796723094582
1789799212824795000,9.577794921875,-0.30116204417943954,0.16199088937640188,-5.420081513449549
1789799212834766600,9.5877666015625,-0.2525041039943695,0.5052528303995728,-4.906005617386103
1789799212844738800,9.59773876953125,-0.3195230457782745,0.5468275343254209,-4.445369050565362
1789799212854710500,9.60771044921875,-0.790201114141941,0.31933877525255083,-4.441928554722667
1789799212864682800,9.617682861328126,-0.9174117089729755,0.005734013607352971,-4.700007243978977
1789799212874654700,9.62765478515625,-1.006380543693155,-0.008429390171170234,-4.386766054949164
1789799212884626700,9.637626708984374,-1.0313608173012734,0.17174845941141248,-3.5892724457114933
1789799212894598700,9.6475986328125,-1.1203788249254225,0.12978154129758476,-3.252033125978708
1789799212904570600,9.657570556640625,-1.5458990701794624,-0.13534136738181113,-3.4564889461189505
1789799212914542600,9.66754248046875,-1.6159738924026488,-0.276247529283911,-3.4504134255975485
1789799212924515800,9.677515869140626,-1.6313737061083315,-0.1918371615856886,-2.8523949254781007
1789799212934487600,9.687487548828125,-1.7723416812002657,-0.12280161928236484,-2.1913030063301324
1789799212944459800,9.697459716796875,-2.023113262313604,-0.19324381351321934,-1.5982763231486081
1789799212954431700,9.707431640625,-2.2534113797187802,-0.4142059472963214,-1.3494313261836766
1789799212964403700,9.71740380859375,-2.2603975853443146,-0.683259911814332,-1.3635568821698427
1789799212974375700,9.727375732421875,-2.164595032146573,-0.970384955073893,-1.4741215356916189
1789799212984347600,9.73734765625,-1.930215782907605,-1.1708239407882093,-1.3522031289845704
1789799212994319600,9.747319580078125,-1.6613076566010712,-1.2887570772513746,-0.9489338785052299
1789799213004291800,9.757291748046875,-1.4806453845024108,-1.3654463491782545,-0.5551262838542461
1789799213014263600,9.767263671875,-1.4110212286561727,-1.5173025057703255,-0.6314093130677938
1789799213024235800,9.77723583984375,-1.3121703938037157,-1.8171619429185986,-0.6935124257594346
1789799213034207500,9.78720751953125,-1.0200865590929984,-2.1612404610216616,-0.3521796992331743
1789799213044179700,9.7971796875,-0.8456674922328442,-2.3448338181361557,0.18175532803237437
1789799213054151700,9.807151611328125,-0.9205565098047256,-2.5855630209237335,0.7513906142324209
1789799213064124700,9.817124755859375,-0.8574550337255,-3.0710464442312717,1.3788923984676598
1789799213074096600,9.8270966796875,-0.9936522142190486,-3.3444647414386273,2.2678759584009645
1789799213084068900,9.83706884765625,-0.9872796835124492,-3.2231209197491406,3.013195143765211
1789799213094040600,9.84704052734375,-1.026109472644329,-2.655253812265396,3.9211569604128598
1789799213104012800,9.8570126953125,-0.9401240376491099,-1.899301589205861,4.539129868802428
1789799213113984500,9.866984619140625,-1.101440900221467,-1.213548107010126,4.798034487488866
1789799213123956700,9.876956787109375,-1.3540046254485845,-0.6605611732721328,4.609767585605383
1789799213133928700,9.8869287109375,-1.3110329142063855,-0.17698504489064215,4.094766975912451
1789799213143900700,9.896900634765625,-1.339553490769863,0.12985036875009537,3.7409704891324043
1789799213153872600,9.90687255859375,-1.6495090822577476,0.270938755351305,3.4710751053541897
1789799213163844600,9.9168447265625,-1.8248662336856125,0.3363280501067638,3.135680536705255
1789799213173816600,9.926816650390625,-1.646246281069517,0.24051614455878734,3.1328163794457913
1789799213183788800,9.936788818359375,-0.9461481202442198,-0.010983750829100608,3.220460176107287
1789799213193760500,9.946760498046874,-0.7390606364261358,-0.27175416338741776,3.167603030666709
1789799213203733800,9.956733642578126,-0.8727157312214374,-0.4707143087208271,3.0509008973032232
1789799213213705700,9.966705810546875,-0.7991202605914324,-0.4487444689750671,3.0397832909613847
1789799213223677700,9.976677734375,-0.8479296650111675,-0.4325111270546913,2.955174331951141
1789799213233649700,9.986649658203126,-1.2116221073836086,-0.22230244247615336,2.499867435720563
1789799213243620600,9.99662060546875,-1.2840858705699443,0.10605097548961638,1.9218331544876097
1789799213253592800,10.0065927734375,-1.4650018251687287,0.24844518399238585,1.4167770157039166
1789799213263564800,10.016564697265625,-1.7560142312556504,0.5915080953121185,1.5539070200681686
1789799213273536800,10.026536865234375,-1.7036387318521737,0.9263111278086901,1.9889742613464594
1789799213283508700,10.0365087890625,-1.5535516307592392,0.9076736473560333,2.3597651375472544
1789799213293480700,10.046480712890625,-1.2138134799480438,0.7509341026365757,2.438202714446187
1789799213303452700,10.05645263671875,-0.8299456800311803,0.5922001692295074,2.5137486615568396
1789799213313425000,10.0664248046875,-0.4536292818745598,0.3757546360880136,2.5703496697008608
1789799213323396600,10.076396728515626,-0.15473463463783263,0.15423369937837123,2.5766543228030203
1789799213333368800,10.086368896484375,0.04557111661825329,-0.007653729623556137,2.5536218222618103
1789799213343341800,10.096341796875,0.15025423782076686,-0.22263386638760566,2.427273908674717
1789799213353313800,10.106313720703126,0.27192013107147067,-0.32395664431154725,2.086298325023055
1789799213363285800,10.11628564453125,0.17931611818671225,-0.34569968956410885,1.6921341720193623
1789799213373257700,10.1262578125,-0.5164122665891423,-0.2598234870970249,1.362884681996703
1789799213383229700,10.136229736328126,-0.9638035308569669,-0.12406067943274975,1.3921516930133104
1789799213393202000,10.146201904296875,-1.2881991511076687,-0.05233633643686771,1.1897872921943664
1789799213403173600,10.156173583984375,-1.3472557357102632,0.11829612455666065,1.1002578279167412
1789799213413145900,10.166145751953126,-1.4725421575456856,0.3090098350703716,0.9510305585235357
1789799213423117600,10.17611767578125,-1.6305881086885927,0.3217290313899517,0.5997901859670877
1789799213433089800,10.18608984375,-1.9383891524910926,0.041674072647094725,0.2501379593849182
1789799213443061800,10.196061767578126,-2.2850194009035825,-0.28950960030853745,0.26208207967877384
1789799213453033700,10.20603369140625,-2.319655245476961,-0.6095885264039039,0.6658867522090673
1789799213463005700,10.216005615234375,-1.8454378970712422,-0.7907114017516375,1.0875777945637701
1789799213472977700,10.225977783203126,-1.0085527731657027,-0.7490875979870557,1.4191098425656556
1789799213482949600,10.23594970703125,-0.1344721467992291,-0.5963023438513279,1.9594675963550805
1789799213492921900,10.245921875,0.5103987053880468,-0.5553676913946867,2.46074421660006
1789799213502894600,10.25589453125,0.14746201328635214,-0.7604746689200401,2.7088340112835168
1789799213512866800,10.26586669921875,-0.8468915541350841,-1.2470073090195655,2.6580074948877095
1789799213522838800,10.2758388671875,-1.4773995344489812,-1.7200141125917434,2.348473343682289
1789799213532810800,10.285810791015624,-1.041540850532055,-1.8793913123384116,1.7661714681327343
1789799213542782700,10.29578271484375,-0.32379180913865563,-2.062365076249838,1.3362719848811626
1789799213552754700,10.305754638671875,-0.021153262665867804,-2.1118255649894473,1.2200684486895799
1789799213562726700,10.3157265625,-0.16923077750205992,-1.9073972173780203,1.552304261046648
1789799213572699000,10.325698974609375,-0.5526794752240181,-1.7029224002763628,1.8775456844717262
1789799213582670600,10.335670654296875,-0.7618985642433166,-1.6996794728323816,1.8262562267392872
1789799213592642800,10.345642822265624,-0.6431026734709739,-1.8329747213393448,1.5003145460903644
1789799213602614500,10.355614501953125,-0.3443255151340738,-1.9255220721334219,1.2472551463007926
1789799213612586800,10.365586669921875,-0.039563948625326154,-1.942700001427531,1.198095101812482
1789799213622558700,10.375558837890624,0.6992167748808861,-1.9455939693033695,0.9224135358482599
1789799213632530700,10.38553076171875,0.8000211549539119,-2.091533303067088,0.5625841986447573
1789799213642503000,10.3955029296875,0.6465619470793753,-2.048693693771958,0.16834522683918476
1789799213652476000,10.405475830078124,0.8047919495522975,-1.7937024491369724,-0.31384675370752807
1789799213662447600,10.415447509765626,0.7118180439092219,-1.5404235613778232,-1.0316787972092627
1789799213672419800,10.425419921875,0.26735446712374683,-1.2213403683215378,-1.7251164041668177
1789799213682391600,10.4353916015625,0.3663281246382743,-0.9560735211268067,-2.326854217070341
1789799213692363800,10.44536376953125,0.594987169599533,-0.7513133112125098,-3.125679367172718
1789799213702335700,10.455335693359375,0.8775964890003204,-0.5763976199418306,-3.4338656109005212
1789799213712307700,10.4653076171875,1.4296141393147408,-0.4775261806927621,-3.4825615450084206
1789799213722279700,10.47527978515625,1.3221873454272746,-0.4306166916102171,-3.6490099983155724
1789799213732251600,10.485251708984375,1.7714893021546303,-0.24705007637217638,-3.459686280855536
1789799213742223600,10.4952236328125,1.9510979735471308,-0.05530556150600314,-3.32713308288753
1789799213752195800,10.50519580078125,1.9450456877708433,0.030220220088213682,-3.90220734527111
1789799213762167800,10.515167724609375,1.5206510855458677,0.16485431598350406,-4.794385317331552
1789799213772139800,10.525139892578125,1.1339737811662256,0.18658669371157882,-5.264790998494624
1789799213782111700,10.53511181640625,0.9672155312575399,0.24592764821350574,-5.3188119270175696
1789799213792083700,10.545083740234375,0.6848281840443611,0.2206046986475587,-5.152956178906559
1789799213802056000,10.555055908203125,0.9927461322247981,0.11349150075390935,-5.252790179577469
1789799213812028700,10.565028564453126,0.7142213056586683,-0.03811331142559647,-5.234317534297705
1789799213822000600,10.575000732421875,0.06919555517062545,0.05457900079712271,-4.834969256654381
1789799213831972900,10.584972900390625,0.17056699454188345,0.23475305098742244,-4.153942218458652
1789799213841944600,10.594944580078124,0.2156875543810427,0.26936405338048935,-4.0170863548606635
1789799213851916800,10.604916748046875,-0.04981646257042884,0.3916206060007214,-3.9169145005375143
1789799213861888800,10.614888671875,0.3486031559206545,0.6297619842521845,-3.975989789840579
1789799213871860700,10.62486083984375,0.3116168026983738,0.7032663425326346,-4.389115832945704
1789799213881833000,10.6348330078125,-0.04986906954050064,0.6196309047296643,-4.698367075556517
1789799213891804700,10.6448046875,-0.18192644681558012,0.5425369975246489,-4.649402261379361
1789799213901777000,10.65477685546875,-0.2636452373422682,0.6309336583800613,-3.967489087998867
1789799213911748600,10.66474853515625,-0.22582067973017692,0.7119098138459027,-3.501708728548884
1789799213921720800,10.674720947265625,-0.28827333651185033,0.5264513935118913,-3.582165244054794
1789799213931692800,10.68469287109375,-0.25881109518408774,0.3156263306006789,-3.6534009267508982
1789799213941664800,10.694664794921875,-0.01575987918972969,0.2207546285122633,-3.31762174269855
1789799213951636700,10.70463671875,-0.08303374558277428,0.21674363930523394,-2.641886965692043
1789799213961608700,10.714608642578124,-0.3412730322282761,0.1595201153486967,-1.9950369223862885
1789799213971581700,10.724581787109376,-0.6771441323477775,-0.10135463436692953,-1.5801491303056479
1789799213981554000,10.734553955078125,-0.8313701598763465,-0.4791612345486879,-1.1501683985114097
1789799213991525600,10.744525634765624,-0.7045429383397102,-0.8208701009109616,-0.5995131225913762
1789799214001497900,10.754497802734376,-0.7755705312430858,-1.3124874969288707,-0.19282617262303828
1789799214011469800,10.7644697265625,-0.7532675140202045,-1.9044442127913235,0.12885375892817974
1789799214021441800,10.77444189453125,-0.5919476557731628,-2.499719551682472,0.5255214191854
1789799214031413800,10.784413818359376,-0.48381344426870343,-3.1236396780386566,1.2283271584689617
1789799214041385700,10.7943857421875,-0.43793315210342404,-3.4751129825681444,1.8179560159057377
1789799214051357700,10.804357666015624,-0.45543256843686103,-3.5984827571272846,2.208920496085286
1789799214061330000,10.814329833984376,-0.4066694143116474,-3.703010468572378,2.669142052364349
1789799214071301600,10.824301513671875,-0.3496878824174404,-3.449226261639595,2.862477928075194
1789799214081273900,10.83427392578125,-0.5190308881223201,-2.517825701737404,2.8102906447201965
1789799214091245600,10.84424560546875,-0.5835159275144338,-1.358125504770875,2.864788543105125
1789799214101217800,10.8542177734375,-0.7237637716382741,-0.38200200604498386,2.7867262292593717
1789799214111189800,10.864189697265624,-0.9778577751725912,0.2667570857524872,2.885365467187762
1789799214121161700,10.87416162109375,-0.8886837002038955,0.5222200395524501,3.107413058120012
1789799214131133700,10.8841337890625,-0.5715232919037342,0.515454198679328,3.2653385977536438
1789799214141105700,10.894105712890624,-0.47900750529170033,0.4657417810052633,3.270944747197628
1789799214151078700,10.90407861328125,-0.7382207515358924,0.4014823670625686,3.1621710687458515
1789799214161051000,10.91405078125,-1.191205342298746,0.2310837148249149,2.8633704930007458
1789799214171022600,10.924022705078125,-0.6535375582456588,0.03467033136487007,2.9521827489197254
1789799214180994800,10.933994873046874,-0.3026525932644494,-0.5489473029583692,3.0267127969861027
1789799214190966800,10.943966796875,-0.17707153586400673,-0.7727344310343265,3.0236405499339103
1789799214200938800,10.953938720703125,-0.4191173924744129,-0.8487357206970453,2.73650469301939
1789799214210910700,10.96391064453125,-0.5417722967624664,-0.6946814695388078,2.4794459944605824
1789799214220882700,10.973882568359375,-0.2629050864994526,-0.5570125359922647,2.1830255918502806
1789799214230854700,10.983854736328125,-0.286674121154286,-0.3860509891748428,2.2008850736677643
1789799214240827000,10.993826904296874,-0.06878891059849411,-0.18960428796708584,2.589491592544317
1789799214250798600,11.003798583984375,0.1829167364945635,-0.05235153400599956,2.8669711478412148
1789799214260770800,11.013770751953125,0.271985049533844,0.15052607703208923,3.1327427296876906
1789799214270742800,11.02374267578125,-0.07542202847003936,0.2824848162382841,3.519092994070053
1789799214280714800,11.03371484375,-0.0520493727216497,0.0412654918462038,3.618180560287833
1789799214290686700,11.043686767578125,0.038000937092304225,-0.1813537614941597,3.426159274306893
1789799214300658700,11.05365869140625,0.09738604126321151,-0.2734814255714416,3.1081717675328253
1789799214310631000,11.063630859375,0.47556463482882827,-0.25790976243019104,2.67986452190876
1789799214320603000,11.073602783203125,1.0800351240992545,0.0888531724512577,2.297881805086136
1789799214330575600,11.08357568359375,1.0171475830316543,0.5234124642074108,1.9231559275239705
1789799214340547800,11.0935478515625,0.34430443581342696,0.9208750742346048,1.6836738021880386
1789799214350519800,11.103519775390625,-0.38029812473654745,0.995157869541645,1.1529741035819052
1789799214360491800,11.11349169921875,-0.4128653463423252,0.8347937045842408,0.45177229236364363
1789799214370463700,11.123463623046876,-0.3210521550416946,0.8275187451452016,-0.08224982866346836
1789799214380435700,11.133435791015625,-0.38412440502643586,0.9310586145967245,-0.3457411906182766
1789799214390407700,11.14340771484375,-1.009587376910448,0.9133931940466165,-0.3095733141720295
1789799214400380000,11.1533798828125,-1.1578186210036276,0.6332891354650259,0.2101052242040634
1789799214410351900,11.163351806640625,-0.9014578415811061,0.1959270612478256,0.905682181277871
1789799214420323800,11.17332373046875,-0.8479600601494311,-0.4077320751070976,1.7935048807382583
1789799214430295800,11.1832958984375,-0.7766226706445216,-0.9798463186413049,2.7510189560621976
1789799214440267800,11.193267822265625,-0.6505120729446411,-1.4692957229703665,3.4160277563929555
1789799214450240000,11.203239990234374,-0.33653613989949227,-1.8079735510736703,3.43198461945951
1789799214460211700,11.213211669921876,-0.12856208250522613,-1.924590928763151,3.1967613206118344
1789799214470184000,11.223183837890625,-0.11609653215315192,-1.8101719379007815,2.7714392282783984
1789799214480155600,11.23315576171875,-0.1265980889558792,-1.5205325737327335,2.298063591393828
1789799214490128000,11.2431279296875,-0.6471206769406795,-1.1486024643689394,1.812145868322253
1789799214500099800,11.253099853515625,-1.108848546129465,-1.1273317128032445,1.3712579580664634
1789799214510071800,11.26307177734375,-0.6848784529268741,-1.278133684167266,1.0853969433933497
1789799214520044800,11.273044921875,-0.24765377788636833,-1.3676751311436295,0.9506640632987022
1789799214530017000,11.28301708984375,0.14424250325057655,-1.4432020812928676,0.7682739444941282
1789799214539988700,11.29298876953125,0.21024196579363197,-1.3895008862435816,0.8295598955839872
1789799214549961000,11.3029609375,0.006218143862485885,-1.3338792445257306,1.1788824518203735
1789799214559932700,11.3129326171875,-0.1688391113033518,-1.5277452815905213,1.4671838453829287
1789799214569905000,11.32290478515625,-0.13033658136446027,-1.8175372059717774,1.2340765157759188
1789799214579876900,11.332876953125,-0.20436868984606116,-1.9658309939071534,0.8924620496988296
1789799214589848800,11.342848876953125,-0.2658451585393399,-2.065596897777915,0.5438742374777794
1789799214599820800,11.35282080078125,0.2831763056337833,-2.0414172730281948,0.31930385006964207
1789799214609792800,11.362792724609376,0.7377812641400844,-2.038397632946074,0.3962035498768091
1789799214619764700,11.3727646484375,0.8056465205550193,-2.0904507685273885,0.5358154341846704
1789799214629737000,11.382737060546875,1.003720969095081,-2.0634657309681175,0.5991770225048065
1789799214639708700,11.392708740234376,0.9471452415227889,-1.8525398380309341,0.5541033705472946
1789799214649681000,11.402680908203125,1.0321043291449545,-1.680523229202628,0.23674539384841917
1789799214659652600,11.412652587890625,1.0854244159221649,-1.7198196129329502,-0.5104243878185749
1789799214669624800,11.422624755859376,0.6296518018759787,-1.856892334152013,-1.6770102526456117
1789799214679596800,11.4325966796875,0.7503625863589346,-1.561752180610597,-2.3139023810386656
1789799214689568800,11.44256884765625,1.0108430760599671,-1.094016303178668,-2.7748306242823597
1789799214699540700,11.452540771484376,1.1756956384778021,-0.7136667405158281,-3.2106331940978765
1789799214709512700,11.4625126953125,1.521476430454105,-0.5619787800975143,-3.6164714182823894
1789799214719485700,11.472485595703125,2.0787230674631894,-0.44592882703244685,-3.9651229433894155
1789799214729458000,11.4824580078125,2.5262170979857443,-0.2745328343205154,-4.442954975160956
1789799214739429600,11.4924296875,2.5155694472432133,-0.09530600185245275,-5.070967631527782
1789799214749401900,11.50240185546875,2.026383077764511,0.05565276750847697,-5.860604097524285
1789799214759373800,11.512373779296874,1.541608387248218,0.006808657101541757,-6.159075587445497
1789799214769345800,11.522345703125,1.6205737874135373,0.1163582883618772,-5.970655540826916
1789799214779317800,11.53231787109375,1.441821148328483,0.5178371482931077,-5.5915147694319485
1789799214789289700,11.542289794921874,0.8763710388585925,0.3701229138113558,-5.436507163071632
1789799214799261700,11.55226171875,0.8082067264318465,-0.18809359114319085,-5.521690707099437
1789799214809234000,11.56223388671875,1.1072130538821219,-0.36751112387776375,-5.971615910291671
1789799214819206000,11.572205810546874,0.6746468356393277,-0.01791734948456287,-5.912991287365555
1789799214829177900,11.582177734375,0.3591501227676868,0.3830642284490168,-5.380423456799984
1789799214839149800,11.59214990234375,0.08149316507726907,0.5970460018254816,-4.726352814590931
1789799214849121800,11.602121826171874,-0.2188252678848803,0.4605800143279135,-4.269243837374448
1789799214859094000,11.612093994140626,-0.27261750221848485,0.3657498132936656,-3.8773932220101353
1789799214869065700,11.622065673828125,-0.2823509607255459,0.3040338002234697,-3.417824576681852
1789799214879038000,11.632037841796874,-0.5169688410259783,0.21037001262009142,-3.1066742224514483
1789799214889009700,11.642009765625,-0.5376560205500572,0.10225450581610203,-2.8603344863057134
1789799214898982000,11.65198193359375,-0.4099753239892423,0.0466615056708455,-2.6299521977484224
1789799214908953900,11.661953857421874,-0.4465851720493287,0.08526040865629911,-2.336466095024347
1789799214918926600,11.671926513671876,-0.41209487342648204,0.12652356241494417,-1.9876456430912017
1789799214928898800,11.68189892578125,-0.5308008208930493,-0.005316518847644329,-1.6411878286361694
1789799214938870800,11.691870849609375,-0.5886521213591098,-0.2630178992241621,-1.6066729800939559
1789799214948842800,11.7018427734375,-0.512818516413495,-0.6091787765592336,-1.760295269575715
1789799214958815000,11.71181494140625,-0.4235562517046928,-0.8757809640109538,-1.8339806835114956
1789799214968786700,11.72178662109375,-0.3806908869137987,-1.0366463564887642,-1.4525275435209273
1789799214978759000,11.731759033203126,-0.2824783134322613,-1.2197291337326168,-0.7504162162423134
1789799214988731000,11.74173095703125,0.048719899505376814,-1.3919196378231047,-0.2912795325905084
1789799214998702800,11.751702880859375,0.27729484637975693,-1.631698992539942,-0.058043023645877836
1789799215008674800,11.7616748046875,0.31580895715858787,-1.9079323471680283,0.25081600477695465
1789799215018646800,11.771646728515625,0.24859946123864501,-2.0946751082241533,0.7156587911158799
1789799215028618800,11.78161865234375,0.1816144582569599,-2.2215625355154276,1.4058943871617315
1789799215038591000,11.791591064453126,0.1345195296049118,-2.5716128215044733,2.2148563158750534
1789799215048562700,11.801562744140625,0.009271722746826708,-2.7214170140028,2.9871932720243928
1789799215058535000,11.811534912109375,-0.18755908240769056,-2.543773212942481,3.6916140452891586
1789799215068506600,11.821506591796876,0.14164602048397062,-2.1393717435628172,4.230362610316276
1789799215078478800,11.831478759765625,0.34230420190691946,-1.4927192686557769,4.568738825124502
1789799215088450800,11.841450927734375,0.40110125879049296,-0.8166536522597074,4.429882727620005
1789799215098422800,11.8514228515625,-0.0145873282790184,-0.26607085705399514,3.997276908019185
1789799215108394800,11.861394775390625,-0.23631401669383048,0.11709317850768565,3.6189492065727706
1789799215118366700,11.87136669921875,-0.35497543089892714,0.08027180658876895,3.5107869380176067
1789799215128338700,11.881338623046876,-0.28229948626663537,-0.1676589981406927,3.021947190019488
1789799215138312000,11.89131201171875,0.05526186849474907,-0.12358195600509643,2.8527450540900228
1789799215148283000,11.901282958984375,0.26333989772014316,-0.1921498807966709,3.0645512369930743
1789799215158255900,11.911255859375,0.1316402478415519,-0.5438444268614053,3.0547932285666466
1789799215168227800,11.921227783203125,0.3214309982914477,-0.7475123114943504,2.990397036501765
1789799215178199800,11.93119970703125,0.16705979013852773,-0.7474754866153002,3.1000229478687045
1789799215188171800,11.941171875,0.559075423338823,-0.3157832747280597,2.984218055605888
1789799215198143700,11.951143798828125,0.1671054559111595,0.11666180135309695,2.526995681142807
1789799215208115700,11.96111572265625,-0.5574690475881099,0.6689250969916581,2.178716496479511
1789799215218088000,11.971087890625,-0.7463117765981704,1.0652473048120736,2.080904357025027
1789799215228059600,11.9810595703125,-0.5163397493422031,1.5199457137554884,2.672137142527103
1789799215238032100,11.9910322265625,-0.10066635984182357,1.5516238775670528,3.1042765136599537
1789799215248003800,12.00100390625,0.33067923056483267,1.3148036649167536,2.8193507340103388
1789799215257976000,12.01097607421875,0.013297872990369795,1.0185779080957174,2.6197844394773244
1789799215267948000,12.020947998046875,-0.5518704238634556,0.7354355047315358,2.6576737328886986
1789799215277920000,12.030919921875,-0.515393919859454,0.22706512683331964,2.4405793804496527
1789799215287892200,12.040892333984376,-0.02131166809797287,-0.29716040732264515,2.154999520805478
1789799215297864000,12.050864013671875,0.4964812757272273,-0.5035024796009063,1.936357354402542
1789799215307836200,12.060836181640624,0.6967268577612936,-0.36947511742711064,1.8165917418152093
1789799215317807900,12.070807861328126,0.6110218471426516,-0.13358429458141327,1.817688889402151
1789799215327780000,12.080780029296875,0.7410510065257548,-0.03215221106410027,1.6289648914009331
1789799215337752000,12.090751953125,0.6688508627116679,0.10203121845424175,1.3276315823078155
1789799215347724000,12.10072412109375,0.33724107329845426,0.15850012465119362,0.9632523267149925
1789799215357696000,12.110696044921875,0.09015208968799561,0.02030862853527069,0.7145610590070486
1789799215367668000,12.12066796875,-0.22329075939375906,-0.07628536730110645,1.0292945324212313
1789799215377640000,12.130639892578126,-0.34987956906463946,-0.14880758267641067,1.5284335561156273
1789799215387613200,12.14061328125,-0.31019298044033344,-0.4368775055706501,1.8722195210129022
1789799215397585000,12.1505849609375,-0.5284603952467442,-0.8652560628652572,1.9188164370149372
1789799215407557000,12.16055712890625,-1.0438391175370663,-1.2420897263616322,1.9041829315066336
1789799215417529000,12.170529052734375,-1.297113694447279,-1.2069810035794972,1.8768980342179535
1789799215427501000,12.1805009765625,-0.8592764039337635,-0.9990765042901039,1.8811603678375481
1789799215437473000,12.19047314453125,-0.359196957584098,-0.91213705650568,1.8332406787991522
1789799215447445000,12.200445068359375,0.14053067965321242,-0.9155570940822363,1.9483184258311985
1789799215457417000,12.2104169921875,0.0772024821460247,-1.0333686499923467,2.0173808561414477
1789799215467389200,12.22038916015625,-0.25747370910048484,-1.1901520338535307,1.9346382755249738
1789799215477361000,12.23036083984375,-0.5820949548006057,-1.1333648554876445,1.6632400859683751
1789799215487333000,12.2403330078125,-0.6244517490148543,-1.279642335164547,1.344717741665244
1789799215497304800,12.250304931640626,0.0325298122048378,-1.666761245831847,0.9724965404003858
1789799215507277000,12.260277099609375,0.8625603209752589,-1.9590718750357627,0.9017541941791772
1789799215517249000,12.2702490234375,0.9900935718894004,-1.9072139697656034,1.2613316024482248
1789799215527221000,12.280220947265626,0.6416250021338462,-1.942317724111676,1.252280865508318
1789799215537193000,12.29019287109375,0.16982706289477645,-1.902942283795774,1.1011562380611897
1789799215547165000,12.3001650390625,-0.11964688157849013,-1.8624442691907286,1.0895283441096544
1789799215557137000,12.310136962890626,-0.25714506166800855,-2.0255822827756402,1.124326101246476
1789799215567109000,12.320109130859375,0.09714856097921729,-2.196525124892592,1.6395383078634738
1789799215577081000,12.3300810546875,0.8270435288488864,-2.4329934553653,1.856214142629504
1789799215587053000,12.340052978515626,0.8285036645293236,-2.7453251283347604,1.6676093870937823
1789799215597025000,12.35002490234375,1.0580243678212164,-2.8411700593695044,1.2753659730195999
1789799215606997000,12.3599970703125,1.405817230272293,-2.656604350091517,0.32926877924501896
1789799215616969200,12.36996923828125,1.489346431221813,-2.077638925488293,-0.5868775129020214
1789799215626941000,12.37994091796875,1.5851017842769621,-1.7335956248290836,-1.7168500956028698
1789799215636914000,12.389913818359375,1.081849626175314,-1.564181599714607,-2.8882535898447035
1789799215646886100,12.39988623046875,1.153617223791033,-1.4381957974381745,-3.601688275170326
1789799215656857900,12.40985791015625,1.3513245925843715,-1.2699594378009438,-4.065615700230002
1789799215666830000,12.419830078125,1.5176562876440585,-1.0215103082858026,-4.372737529596686
1789799215676801800,12.4298017578125,1.4941677138984202,-0.8147593629457056,-4.802003975641727
1789799215686774000,12.43977392578125,1.632853715533018,-0.5119255861617624,-5.0696676548451185
1789799215696746000,12.44974609375,2.3207171756200493,-0.03408654012754559,-5.2920612827360625
1789799215706718000,12.459718017578124,2.7214485781848428,0.3121550012283027,-5.784831355920434
1789799215716690200,12.469690185546876,2.1210724090233444,0.5644488234728574,-6.223709679919481
1789799215726662000,12.479661865234375,1.1359867284238339,0.5145565191872418,-6.574884586024284
1789799215736634000,12.489634033203124,0.9086217418611049,0.5333193795852362,-6.357703139823675
1789799215746606000,12.499606201171876,0.9527855854973196,0.5421766397796571,-5.5655368630886075
1789799215756578000,12.509578125,0.43182372931241986,0.2578659232884645,-5.213823027801514
