time,seconds_elapsed,z,y,x
1789799203292710000,0.0457099609375,0.046190131455659866,0.28741100430488586,-0.07268192619085312
1789799203302681600,0.055681640625,0.03110705316066742,0.4687134325504303,-0.06903392821550369
1789799203312653800,0.06565380859375,-0.041485656052827835,0.5333430171012878,-0.044076379388570786
1789799203322626800,0.075626708984375,-0.15234346687793732,0.593471348285675,-0.038844600319862366
1789799203332598800,0.085598876953125,-0.11145595461130142,0.9490110278129578,-0.33515962958335876
1789799203342570800,0.09557080078125,0.18187712132930756,1.4725677967071533,-0.7051573991775513
1789799203352542700,0.105542724609375,0.5147850513458252,1.9768385887145996,-0.9935691952705383
1789799203362514700,0.1155146484375,0.698458194732666,2.2527148723602295,-1.2080795764923096
1789799203372487000,0.12548681640625,0.7581875920295715,2.3852386474609375,-1.3863297700881958
1789799203382458600,0.135458740234375,0.7206069231033325,2.476153612136841,-1.4978208541870117
1789799203392430800,0.145430908203125,0.6572780013084412,2.355210781097412,-1.5352327823638916
1789799203402403800,0.15540380859375,0.5614588260650635,2.1423182487487793,-1.4942634105682373
1789799203412375800,0.165375732421875,0.42356324195861816,1.879083514213562,-1.399156093597412
1789799203422347800,0.17534765625,0.23753133416175842,1.5939884185791016,-1.236038327217102
1789799203432319700,0.18531982421875,0.03657505661249161,1.3904834985733032,-1.0044639110565186
1789799203442291700,0.195291748046875,-0.1190052181482315,1.2290102243423462,-0.7334566712379456
1789799203452264000,0.205263916015625,-0.24211516976356506,1.1337947845458984,-0.4821237623691559
1789799203462235600,0.215235595703125,-0.35621535778045654,1.1084238290786743,-0.2792809009552002
1789799203472208000,0.225207763671875,-0.46379801630973816,1.0041123628616333,-0.13185256719589233
1789799203482180900,0.235180908203125,-0.6011915802955627,0.8252822160720825,-0.038608111441135406
1789799203492152600,0.245152587890625,-0.7908421754837036,0.6487239599227905,0.014668424613773823
1789799203502124800,0.255124755859375,-1.0035752058029175,0.5132958292961121,0.06400508433580399
1789799203512096800,0.2650966796875,-1.2028409242630005,0.38031724095344543,0.11199204623699188
1789799203522068700,0.27506884765625,-1.3676890134811401,0.1510281264781952,0.17660246789455414
1789799203532041000,0.285041015625,-1.4840068817138672,-0.21509233117103577,0.23588283360004425
1789799203542012700,0.2950126953125,-1.5253193378448486,-0.7086061835289001,0.2747649848461151
1789799203551985700,0.304985595703125,-1.4505492448806763,-1.3433607816696167,0.24875442683696747
1789799203561958000,0.3149580078125,-1.2691789865493774,-2.131636142730713,0.14676468074321747
1789799203571929600,0.3249296875,-1.216911792755127,-2.9679665565490723,-0.006336458958685398
1789799203581901800,0.33490185546875,-1.3275223970413208,-2.957862377166748,-0.34747034311294556
1789799203591873500,0.34487353515625,-1.34953773021698,-2.6839118003845215,-0.4082633852958679
1789799203601845800,0.354845703125,-1.1203514337539673,-2.3345086574554443,-0.46306511759757996
1789799203611817700,0.364817626953125,-0.9266567230224609,-1.8227529525756836,-0.5060788989067078
1789799203621789700,0.374789794921875,-0.8939903974533081,-1.1421749591827393,-0.48222044110298157
1789799203631762700,0.3847626953125,-0.9439728856086731,-0.4561038911342621,-0.3345249891281128
1789799203641735000,0.39473486328125,-1.0097178220748901,0.04673874378204346,-0.06976203620433807
1789799203651706600,0.40470654296875,-1.0310648679733276,0.2312374860048294,0.18425612151622772
1789799203661678800,0.414678955078125,-0.958694577217102,-0.12413340061903,0.2353762984275818
1789799203671650600,0.424650634765625,-0.8601677417755127,-0.8683848977088928,0.08271964639425278
1789799203681622800,0.434622802734375,-0.8002372980117798,-1.4777371883392334,-0.010554373264312744
1789799203691594800,0.4445947265625,-0.7142046689987183,-1.9697527885437012,-0.04324733838438988
1789799203701566700,0.454566650390625,-0.49696528911590576,-2.4866139888763428,-0.05070365592837334
1789799203711539700,0.464539794921875,-0.1600314825773239,-2.9295613765716553,-0.005536978133022785
1789799203721512000,0.474511962890625,0.11822144687175751,-2.853566884994507,0.015690280124545097
1789799203731483600,0.484483642578125,0.27370771765708923,-2.214885711669922,0.03881930187344551
1789799203741456000,0.494455810546875,0.3710712790489197,-1.4592359066009521,0.06089290976524353
1789799203751427600,0.504427490234375,0.4414336085319519,-0.7994175553321838,-0.04056926444172859
1789799203761399800,0.51439990234375,0.48145291209220886,-0.5650524497032166,-0.07198018580675125
1789799203771371800,0.524371826171875,0.4201599955558777,-0.38510826230049133,-0.007622233126312494
1789799203781343700,0.53434375,0.3289680480957031,-0.34463968873023987,0.11932958662509918
1789799203791316700,0.544316650390625,0.27183496952056885,-0.4995882511138916,0.31255391240119934
1789799203801289000,0.5542890625,0.20589670538902283,-0.8085777759552002,0.5201947093009949
1789799203811260700,0.5642607421875,0.13387072086334229,-1.1143044233322144,0.6928194761276245
1789799203821233000,0.57423291015625,0.08544725924730301,-1.3135956525802612,0.8552318215370178
1789799203831204600,0.58420458984375,0.07730304449796677,-1.2677634954452515,0.9918602705001831
1789799203841176800,0.5941767578125,0.08352738618850708,-1.0531255006790161,1.001122236251831
1789799203851148800,0.604148681640625,0.10413438826799393,-0.7325567603111267,0.8836253881454468
1789799203861120800,0.614120849609375,0.17755986750125885,-0.38131487369537354,0.7183264493942261
1789799203871092700,0.6240927734375,0.2621906101703644,-0.15760640799999237,0.5619024634361267
1789799203881065700,0.634065673828125,0.3116135597229004,-0.11802996695041656,0.4303463101387024
1789799203891037700,0.64403759765625,0.3302713930606842,-0.19048552215099335,0.3268899619579315
1789799203901010000,0.654010009765625,0.3317528963088989,-0.2920773923397064,0.290502667427063
1789799203910981600,0.663981689453125,0.32460126280784607,-0.4783996045589447,0.3095317482948303
1789799203920953900,0.673953857421875,0.3024807572364807,-0.751136064529419,0.3471568822860718
1789799203930925800,0.68392578125,0.27399134635925293,-1.0252019166946411,0.39393797516822815
1789799203940897800,0.693897705078125,0.27541452646255493,-1.206032156944275,0.4300033152103424
1789799203950869800,0.703869873046875,0.30399903655052185,-1.238209843635559,0.4346638321876526
1789799203960842800,0.7138427734375,0.3324762284755707,-1.0640896558761597,0.3973766565322876
1789799203970814700,0.723814697265625,0.31757476925849915,-0.7445436716079712,0.32318684458732605
1789799203980786700,0.73378662109375,0.2471565306186676,-0.46590858697891235,0.21867242455482483
1789799203990758700,0.743758544921875,0.1681501269340515,-0.3432055711746216,0.12219062447547913
1789799204000731000,0.75373095703125,0.08668003231287003,-0.3504757285118103,0.04896834120154381
1789799204010702800,0.763702880859375,0.019225358963012695,-0.3535820245742798,0.020963605493307114
1789799204020674800,0.7736748046875,-0.01347745954990387,-0.30044716596603394,0.045337654650211334
1789799204030646800,0.783646728515625,-0.003747866488993168,-0.2769581079483032,0.11460407823324203
1789799204040619800,0.793619873046875,0.025960227474570274,-0.32837387919425964,0.1974632740020752
1789799204050591700,0.803591796875,0.04983067139983177,-0.41912588477134705,0.25929415225982666
1789799204060563700,0.813563720703125,0.058753859251737595,-0.503522515296936,0.29613178968429565
1789799204070535700,0.82353564453125,0.03472762182354927,-0.5530346632003784,0.30943214893341064
1789799204080507600,0.833507568359375,-0.007602259516716003,-0.49781671166419983,0.2799568176269531
1789799204090479900,0.84347998046875,-0.037568945437669754,-0.29252853989601135,0.18708600103855133
1789799204100451600,0.85345166015625,-0.045576538890600204,0.021391307935118675,0.07024886459112167
1789799204110423800,0.863423828125,-0.03068068064749241,0.40006858110427856,-0.015933692455291748
1789799204120396800,0.873396728515625,0.003466636873781681,0.7055613994598389,-0.03219202533364296
1789799204130368800,0.88336865234375,0.04013809934258461,0.8602420091629028,0.006393450777977705
1789799204140340700,0.8933408203125,0.05922950059175491,0.8368794322013855,0.08507414907217026
1789799204150312700,0.903312744140625,0.023058181628584862,0.6949164867401123,0.16705477237701416
1789799204160284700,0.91328466796875,-0.07237326353788376,0.47750210762023926,0.22236889600753784
1789799204170257000,0.9232568359375,-0.14651620388031006,0.24990038573741913,0.24228081107139587
1789799204180228600,0.933228515625,-0.18138949573040009,0.175249844789505,0.2251865118741989
1789799204190200800,0.943200927734375,-0.18614403903484344,0.25015097856521606,0.1919957995414734
1789799204200172500,0.953172607421875,-0.15831586718559265,0.3642541170120239,0.15714354813098907
1789799204210145800,0.963145751953125,-0.09220902621746063,0.4481125473976135,0.14652925729751587
1789799204220117800,0.97311767578125,-0.013796239160001278,0.47031745314598083,0.14995887875556946
1789799204230089700,0.98308984375,0.03554414585232735,0.4611993134021759,0.15125396847724915
1789799204240061400,0.9930615234375,0.028438299894332886,0.3952442705631256,0.13299453258514404
1789799204250033700,1.00303369140625,-0.019150525331497192,0.2927626371383667,0.08262084424495697
1789799204260005600,1.013005615234375,-0.05291168391704559,0.1772136688232422,0.0246675293892622
1789799204269977600,1.0229775390625,-0.037031520158052444,0.07218044996261597,-0.010509366169571877
1789799204279949600,1.032949462890625,0.002689526416361332,0.05958237126469612,-0.031857267022132874
1789799204289922800,1.0429228515625,0.034503381699323654,0.09407403320074081,-0.08060616254806519
1789799204299894500,1.05289453125,0.04250644892454147,0.09911220520734787,-0.1557437926530838
1789799204309866800,1.06286669921875,0.060565609484910965,0.12873508036136627,-0.21353945136070251
1789799204319838500,1.07283837890625,0.1042768731713295,0.13756558299064636,-0.23730336129665375
1789799204329810700,1.082810791015625,0.15186277031898499,0.1301705241203308,-0.22710399329662323
1789799204339782700,1.09278271484375,0.17655107378959656,0.08789363503456116,-0.1945582926273346
1789799204349754600,1.102754638671875,0.18650409579277039,0.028020448982715607,-0.14242558181285858
1789799204359726600,1.1127265625,0.213264599442482,-0.029823143035173416,-0.0584728978574276
1789799204369698600,1.122698486328125,0.25142478942871094,-0.09536194056272507,0.03816602751612663
1789799204379671600,1.132671630859375,0.2817741632461548,-0.12294589728116989,0.1146155297756195
1789799204389643800,1.142643798828125,0.30092868208885193,-0.1209125742316246,0.14461922645568848
1789799204399615500,1.152615478515625,0.31178373098373413,-0.06569299101829529,0.1317037045955658
1789799204409587700,1.162587646484375,0.33532580733299255,0.0028842033352702856,0.08507467806339264
1789799204419559700,1.1725595703125,0.3518352806568146,0.03774471580982208,0.029746176674962044
1789799204429531600,1.18253173828125,0.36255237460136414,0.02046000212430954,0.0009427590412087739
1789799204439503600,1.192503662109375,0.3559056520462036,-0.019647471606731415,0.004207528196275234
1789799204449475600,1.2024755859375,0.33502379059791565,-0.053941793739795685,0.03948802128434181
1789799204459448600,1.212448486328125,0.31268733739852905,-0.06575983762741089,0.10698477178812027
1789799204469420500,1.222420654296875,0.2839028239250183,-0.09630602598190308,0.16972218453884125
1789799204479392500,1.232392578125,0.24970756471157074,-0.16215108335018158,0.19443951547145844
1789799204489364700,1.24236474609375,0.23182789981365204,-0.21504493057727814,0.19723530113697052
1789799204499336700,1.252336669921875,0.2350282222032547,-0.27385231852531433,0.17980705201625824
1789799204509308700,1.26230859375,0.21687506139278412,-0.3301558196544647,0.12993189692497253
1789799204519280600,1.27228076171875,0.1826734095811844,-0.3733714520931244,0.06777292490005493
1789799204529252600,1.282252685546875,0.14481550455093384,-0.3456745743751526,0.014561099000275135
1789799204539224600,1.292224609375,0.13558898866176605,-0.23836649954319,-0.014726747758686543
1789799204549197600,1.302197509765625,0.17299894988536835,-0.11165010184049606,-0.016227439045906067
1789799204559169500,1.31216943359375,0.22637002170085907,-0.02165389619767666,0.019721506163477898
1789799204569141500,1.3221416015625,0.2372751384973526,-0.04999019578099251,0.09488710016012192
1789799204579113700,1.33211376953125,0.21897122263908386,-0.16092923283576965,0.1784570962190628
1789799204589085700,1.342085693359375,0.21075324714183807,-0.30598708987236023,0.24290984869003296
1789799204599057700,1.3520576171875,0.2196063995361328,-0.40875154733657837,0.27639296650886536
1789799204609029600,1.362029541015625,0.26455068588256836,-0.3565005958080292,0.2966841459274292
1789799204619001600,1.372001708984375,0.3479076325893402,-0.2266339361667633,0.32310429215431213
1789799204628973800,1.381973876953125,0.4464041292667389,-0.11334067583084106,0.38404539227485657
1789799204638946600,1.391946533203125,0.5345747470855713,-0.14422641694545746,0.5100773572921753
1789799204648918500,1.40191845703125,0.5679598450660706,-0.3133257031440735,0.6738055944442749
1789799204658890800,1.411890869140625,0.5843499898910522,-0.5455951690673828,0.8024240136146545
1789799204668862500,1.421862548828125,0.5537084937095642,-0.7592368721961975,0.8389721512794495
1789799204678834700,1.431834716796875,0.49559324979782104,-0.8631294369697571,0.7624398469924927
1789799204688806700,1.441806640625,0.46624866127967834,-0.852446436882019,0.6481484174728394
1789799204698778600,1.451778564453125,0.4717443585395813,-0.7516010403633118,0.5568850636482239
1789799204708750800,1.461750732421875,0.4958116114139557,-0.6839855313301086,0.4588514566421509
1789799204718722600,1.47172265625,0.5214828848838806,-0.6878513693809509,0.36187857389450073
1789799204728695600,1.481695556640625,0.571219265460968,-0.6863685250282288,0.30048632621765137
1789799204738667800,1.491667724609375,0.6363077163696289,-0.6611566543579102,0.2506585717201233
1789799204748639500,1.501639404296875,0.697629451751709,-0.6811521649360657,0.19471728801727295
1789799204758611700,1.51161181640625,0.7740080952644348,-0.7792055010795593,0.1393405795097351
1789799204768583400,1.52158349609375,0.8680490851402283,-0.9439718127250671,0.08288609236478806
1789799204778555600,1.5315556640625,1.0053632259368896,-1.1676530838012695,0.029262281954288483
1789799204788527600,1.541527587890625,1.2084895372390747,-1.436735987663269,0.008950884453952312
1789799204798499600,1.55149951171875,1.51100492477417,-1.7630398273468018,0.07339805364608765
1789799204808471600,1.561471435546875,2.1120781898498535,-2.2047040462493896,0.3058973252773285
1789799204818444800,1.57144482421875,2.2391326427459717,-2.7060742378234863,0.595713198184967
1789799204828416500,1.58141650390625,1.84089195728302,-3.187103033065796,0.7450049519538879
1789799204838388700,1.591388671875,1.8602004051208496,-3.6926064491271973,0.8781142234802246
1789799204848360400,1.6013603515625,2.323249578475952,-4.165215492248535,1.0969587564468384
1789799204858332700,1.611332763671875,2.813849925994873,-4.466038703918457,1.397740125656128
1789799204868304600,1.6213046875,3.365046977996826,-4.531440258026123,1.7011910676956177
1789799204878276600,1.631276611328125,3.9570398330688477,-4.44917631149292,1.870840072631836
1789799204888248600,1.64124853515625,4.471307754516602,-4.415716171264648,1.8902802467346191
1789799204898220500,1.651220458984375,4.923673152923584,-4.429177761077881,1.7832456827163696
1789799204908193500,1.661193603515625,5.317501068115234,-4.498715400695801,1.5694743394851685
1789799204918165800,1.671165771484375,5.606933116912842,-4.569343566894531,1.4140442609786987
1789799204928137500,1.681137451171875,5.723455905914307,-4.605987548828125,1.3778257369995117
1789799204938109700,1.691109619140625,5.700654983520508,-4.604076385498047,1.3766518831253052
1789799204948081700,1.70108154296875,5.607044219970703,-4.466462135314941,1.364722490310669
1789799204958053600,1.7110537109375,5.537768840789795,-4.111471652984619,1.2841507196426392
1789799204968025600,1.721025634765625,5.498295307159424,-3.5321145057678223,1.0751503705978394
1789799204977997600,1.73099755859375,5.501492023468018,-2.8286218643188477,0.7262770533561707
1789799204987969500,1.740969482421875,5.569868087768555,-1.9720335006713867,0.33415907621383667
1789799204997942800,1.75094287109375,5.621255397796631,-1.1406124830245972,-0.008825449272990227
1789799205007914500,1.76091455078125,5.523755073547363,-0.5317270159721375,-0.34224921464920044
1789799205017886700,1.77088671875,5.3093461990356445,-0.13524650037288666,-0.6152541041374207
1789799205027858700,1.780858642578125,4.862969875335693,-0.03122955746948719,-0.7534247636795044
1789799205037830700,1.79083056640625,4.4170451164245605,-0.3168083131313324,-0.8321046829223633
1789799205047802600,1.800802734375,4.237806797027588,-1.1236445903778076,-0.9775984883308411
1789799205057774600,1.810774658203125,4.241935729980469,-1.8706743717193604,-1.02737295627594
1789799205067746600,1.82074658203125,4.400490760803223,-2.158233880996704,-0.97408527135849
1789799205077718800,1.83071875,4.580353736877441,-1.9243512153625488,-0.9633436799049377
1789799205087690500,1.8406904296875,4.6650519371032715,-1.1937960386276245,-0.9672779440879822
1789799205097663700,1.850663818359375,4.593424320220947,-0.3676973283290863,-0.9721264839172363
1789799205107635700,1.8606357421875,4.3063063621521,0.26941922307014465,-0.9714449644088745
1789799205117607700,1.870607666015625,3.890516757965088,0.6113102436065674,-0.9171226024627686
1789799205127579600,1.88057958984375,3.4758968353271484,0.628907322883606,-0.8805129528045654
1789799205137551600,1.890551513671875,3.248314380645752,0.5826349258422852,-0.9779857397079468
1789799205147523600,1.900523681640625,3.011434555053711,0.8777792453765869,-1.0239689350128174
1789799205157495800,1.910495849609375,2.7587058544158936,0.8378674983978271,-1.1335647106170654
1789799205167467500,1.920467529296875,2.4001550674438477,0.6557458639144897,-1.260701298713684
1789799205177439700,1.930439697265625,2.004516124725342,0.24699699878692627,-1.3251866102218628
1789799205187412700,1.940412841796875,1.694132924079895,-0.032399751245975494,-1.2654598951339722
1789799205197384700,1.950384765625,1.5410730838775635,-0.08271192014217377,-1.0974631309509277
1789799205207356700,1.960356689453125,1.4268444776535034,0.22219792008399963,-0.8361188769340515
1789799205217328600,1.97032861328125,1.2397887706756592,0.5538360476493835,-0.5721649527549744
1789799205227300900,1.98030078125,1.0051193237304688,0.6491543054580688,-0.3545178771018982
1789799205237272800,1.99027294921875,0.8444689512252808,0.8254284262657166,-0.15778404474258423
1789799205247244800,2.000244873046875,0.7023131251335144,1.0391079187393188,-0.04343189671635628
1789799205257216800,2.010216796875,0.46429017186164856,0.9656936526298523,0.05831896513700485
1789799205267188700,2.020188720703125,0.19440382719039917,0.6151923537254333,0.22425466775894165
1789799205277161700,2.03016162109375,-0.08474338054656982,0.24845321476459503,0.4611305892467499
1789799205287133700,2.0401337890625,-0.3418191075325012,-0.03891916945576668,0.6832142472267151
1789799205297105700,2.050105712890625,-0.5403417944908142,-0.1485958695411682,0.8748145699501038
1789799205307078000,2.060077880859375,-0.6586002707481384,0.06737185269594193,0.8601216673851013
1789799205317049900,2.0700498046875,-0.6733272671699524,0.41962602734565735,0.5560227632522583
1789799205327021800,2.080021728515625,-0.7462302446365356,0.7335919737815857,0.040704552084207535
1789799205336993800,2.089993896484375,-0.8908124566078186,0.5793911814689636,-0.5267399549484253
1789799205346965800,2.0999658203125,-0.9538039565086365,0.2601146697998047,-0.9264602065086365
1789799205356938000,2.10993798828125,-0.9873427152633667,0.03861343860626221,-1.0086463689804077
1789799205366909700,2.11990966796875,-1.1814054250717163,0.12413712590932846,-0.6596170663833618
1789799205376882700,2.129882568359375,-1.757073998451233,0.25336354970932007,-0.16745556890964508
1789799205386855000,2.13985498046875,-2.220118999481201,0.21062994003295898,0.15400287508964539
1789799205396826600,2.14982666015625,-2.961716413497925,-0.05463048815727234,0.4777010679244995
1789799205406798800,2.159798828125,-3.3009934425354004,-0.5270656943321228,0.8487611413002014
1789799205416770800,2.169770751953125,-3.367584466934204,-0.937040388584137,1.1618708372116089
1789799205426742800,2.17974267578125,-2.9902076721191406,-1.3145978450775146,1.2233920097351074
1789799205436715000,2.189715087890625,-2.5020740032196045,-1.6875423192977905,1.1794745922088623
1789799205446686700,2.199686767578125,-2.305046319961548,-1.9666680097579956,1.241942048072815
1789799205456659000,2.209658935546875,-2.2298033237457275,-1.9802136421203613,1.2567976713180542
1789799205466632000,2.2196318359375,-2.2245137691497803,-1.799655556678772,1.2123873233795166
1789799205476603600,2.229603759765625,-2.3118882179260254,-1.7728649377822876,1.1591150760650635
1789799205486575900,2.239575927734375,-2.5271008014678955,-1.872198462486267,1.2229989767074585
1789799205496547600,2.249547607421875,-2.5390844345092773,-1.8746424913406372,1.2504254579544067
1789799205506519800,2.259519775390625,-2.414062023162842,-1.8904632329940796,1.2071704864501953
1789799205516491800,2.26949169921875,-2.3914642333984375,-1.6987897157669067,1.0821616649627686
1789799205526463700,2.279463623046875,-2.2855935096740723,-1.4551637172698975,0.8331443667411804
1789799205536436000,2.28943603515625,-2.122893810272217,-1.2056537866592407,0.5796111822128296
1789799205546407700,2.29940771484375,-1.8094834089279175,-1.1066280603408813,0.3807761073112488
1789799205556380000,2.3093798828125,-1.5511243343353271,-1.0228503942489624,0.23824000358581543
1789799205566353000,2.319352783203125,-1.359715461730957,-1.2143447399139404,0.2685539722442627
1789799205576324600,2.32932470703125,-1.2239789962768555,-1.511083722114563,0.30542755126953125
1789799205586296800,2.339296875,-1.1286550760269165,-1.628381609916687,0.3925169110298157
1789799205596268800,2.349268798828125,-1.107528805732727,-1.549276351928711,0.3529372811317444
1789799205606240800,2.35924072265625,-1.0220080614089966,-1.1962206363677979,0.1752016395330429
1789799205616212700,2.369212646484375,-0.8272377252578735,-0.8869473934173584,-0.05488428846001625
1789799205626184700,2.379184814453125,-0.7018412351608276,-0.6642831563949585,-0.2933112382888794
1789799205636156700,2.38915673828125,-0.7089329361915588,-0.5796985030174255,-0.3679788112640381
1789799205646129000,2.39912890625,-0.6340128779411316,-0.4791889488697052,-0.3638423979282379
1789799205656100900,2.409100830078125,-0.5692101716995239,-0.3729535937309265,-0.3534475564956665
1789799205666073900,2.419073974609375,-0.6437991857528687,-0.23597924411296844,-0.40683168172836304
1789799205676045800,2.4290458984375,-0.7292845249176025,-0.0009739180095493793,-0.5315427184104919
1789799205686017800,2.439017822265625,-0.8495995402336121,0.12540613114833832,-0.6176384687423706
1789799205695989800,2.44898974609375,-0.7672843933105469,0.39582377672195435,-0.5420025587081909
1789799205705961700,2.458961669921875,-0.8288638591766357,0.17991890013217926,-0.3700408935546875
1789799205715933700,2.46893359375,-0.7578253746032715,-0.25114700198173523,-0.2683981657028198
1789799205725906000,2.478906005859375,-0.5757557153701782,-0.36555081605911255,-0.183467298746109
1789799205735877600,2.488877685546875,-0.48806101083755493,-0.272903710603714,-0.14431989192962646
1789799205745849900,2.498849853515625,-0.412061870098114,-0.1826971173286438,-0.10418206453323364
1789799205755822800,2.50882275390625,-0.3682379424571991,-0.09354086965322495,-0.1299433559179306
1789799205765794800,2.518794921875,-0.33353883028030396,-0.009754359722137451,-0.12537629902362823
1789799205775766800,2.528766845703125,-0.24370160698890686,0.02612001821398735,-0.1561134308576584
1789799205785738800,2.53873876953125,-0.159336656332016,0.06154538691043854,-0.21423639357089996
1789799205795710700,2.548710693359375,-0.08609866350889206,0.1345711201429367,-0.25389912724494934
1789799205805683000,2.558682861328125,-0.058887552469968796,0.03809971362352371,-0.2638942301273346
1789799205815654700,2.568654541015625,-0.08036062121391296,-0.0787225067615509,-0.2693105638027191
1789799205825627000,2.578626953125,-0.04813264310359955,0.0027427896857261658,-0.241769477725029
1789799205835598600,2.5885986328125,0.06160317733883858,0.16735437512397766,-0.1853027492761612
1789799205845570800,2.59857080078125,0.19975438714027405,0.30178409814834595,-0.1335814893245697
1789799205855543800,2.608543701171875,0.3682033121585846,0.35319268703460693,-0.10092368721961975
1789799205865515800,2.618515869140625,0.5355494618415833,0.29591527581214905,-0.04272136464715004
1789799205875487700,2.62848779296875,0.7263973951339722,0.23800776898860931,-0.0017947042360901833
1789799205885460000,2.6384599609375,0.9149068593978882,0.27274206280708313,-0.039451535791158676
1789799205895431700,2.648431640625,1.0486247539520264,0.32235726714134216,-0.06813883781433105
1789799205905404000,2.65840380859375,1.085810661315918,0.3220163881778717,-0.04186622425913811
1789799205915375600,2.668375732421875,1.1029196977615356,0.39827361702919006,0.015441274270415306
1789799205925347800,2.678347900390625,1.195725440979004,0.4922997057437897,-0.03020850196480751
1789799205935319800,2.68831982421875,1.3389045000076294,0.586313009262085,-0.1824297308921814
1789799205945292800,2.698292724609375,1.5462528467178345,0.7751300930976868,-0.27568191289901733
1789799205955264800,2.7082646484375,1.808077335357666,0.9320704340934753,-0.29762768745422363
1789799205965237000,2.718237060546875,2.1953272819519043,1.0940481424331665,-0.4047221839427948
1789799205975208700,2.728208740234375,2.55765438079834,1.240697979927063,-0.509198784828186
1789799205985181000,2.738180908203125,2.8775360584259033,1.5885212421417236,-0.5626670718193054
1789799205995152600,2.748152587890625,3.20053768157959,1.914645791053772,-0.7047219276428223
1789799206005124900,2.758124755859375,3.4918956756591797,2.1633944511413574,-0.8850147724151611
1789799206015096800,2.768096923828125,3.4387176036834717,2.5066144466400146,-1.0950756072998047
1789799206025068800,2.77806884765625,3.315518617630005,3.029020071029663,-1.1827281713485718
1789799206035040800,2.788040771484375,3.3274433612823486,3.768332004547119,-1.3666679859161377
1789799206045014000,2.798013916015625,3.625516653060913,4.391283988952637,-1.8559881448745728
1789799206054985700,2.80798583984375,4.172037124633789,4.202608108520508,-1.9296202659606934
1789799206064958000,2.8179580078125,4.895461082458496,3.712661027908325,-1.9675841331481934
1789799206074929700,2.8279296875,5.240555763244629,2.935473918914795,-1.9646600484848022
1789799206084902000,2.83790185546875,5.0261549949646,1.5830148458480835,-1.6530706882476807
1789799206094873900,2.847873779296875,4.363406181335449,0.6524851322174072,-1.4260287284851074
1789799206104845800,2.857845703125,2.521507740020752,0.3749682903289795,-0.9681221842765808
1789799206114817800,2.86781787109375,1.6403511762619019,0.5943304896354675,-0.3808740973472595
1789799206124789800,2.877789794921875,1.669622540473938,1.0934350490570068,0.3946887254714966
1789799206134762800,2.8877626953125,1.253377914428711,0.8967334628105164,0.9004800319671631
1789799206144735000,2.89773486328125,0.8926966786384583,0.7097132205963135,1.0838221311569214
1789799206154706700,2.907706787109375,0.7315255999565125,0.49868863821029663,0.9878415465354919
1789799206164679000,2.917678955078125,0.38966360688209534,0.4717597961425781,0.7545883059501648
1789799206174651000,2.92765087890625,-0.12104439735412598,0.4422261416912079,0.31231528520584106
1789799206184622800,2.937622802734375,-0.7251459956169128,0.3993106484413147,-0.1033005565404892
1789799206194594800,2.9475947265625,-1.408430814743042,0.1524137705564499,-0.34888502955436707
1789799206204566800,2.95756689453125,-1.7940126657485962,-0.06350600719451904,-0.4221437871456146
1789799206214538800,2.967538818359375,-2.282717704772949,0.030467893928289413,-0.3914252817630768
1789799206224511200,2.97751123046875,-2.642191171646118,-0.02424621768295765,-0.3948269486427307
1789799206234484200,2.987484130859375,-2.152677059173584,-1.224407434463501,-0.5119516849517822
1789799206244456000,2.9974560546875,-0.3561863303184509,-2.5125393867492676,-0.7734240293502808
1789799206254428200,3.00742822265625,1.3131951093673706,-2.1237874031066895,-0.7638169527053833
1789799206264400100,3.017400146484375,2.077206611633301,-1.3323140144348145,-0.4476771056652069
1789799206274372000,3.0273720703125,2.5624539852142334,0.030710242688655853,-0.512492299079895
1789799206284344300,3.03734423828125,3.429429531097412,-0.08747871220111847,-0.5120081901550293
1789799206294316000,3.04731591796875,3.4576454162597656,-0.5775408148765564,0.08909019827842712
1789799206304288300,3.057288330078125,1.834302306175232,-0.7737617492675781,0.8264177441596985
1789799206314260200,3.06726025390625,1.352150797843933,0.8648503422737122,-0.03491590544581413
1789799206324232200,3.077232177734375,0.9827882051467896,0.15428544580936432,0.08519425988197327
1789799206334205200,3.087205078125,0.8606401681900024,0.20170995593070984,-0.08528506755828857
1789799206344177000,3.097177001953125,0.9096702933311462,0.40453416109085083,-0.44428423047065735
1789799206354149000,3.107149169921875,0.9759742021560669,0.19869764149188995,-0.46480974555015564
1789799206364121000,3.11712109375,0.8972570300102234,0.04837019741535187,-0.14270468056201935
1789799206374093000,3.127093017578125,0.6089019775390625,0.044142160564661026,0.20916813611984253
1789799206384065000,3.13706494140625,0.23119433224201202,-0.06163113936781883,0.4616624414920807
1789799206394037000,3.147037109375,-0.07738293707370758,-0.24167653918266296,0.6251999735832214
1789799206404009200,3.15700927734375,-0.26921895146369934,-0.3809982240200043,0.7523496747016907
1789799206413981200,3.166981201171875,-0.40043848752975464,-0.4422130882740021,0.936203122138977
1789799206423953200,3.176953125,-0.5265458226203918,-0.3928372859954834,1.1264116764068604
1789799206433926100,3.186926025390625,-0.5911881923675537,-0.17938174307346344,1.1351306438446045
1789799206443898000,3.196898193359375,-0.5712757706642151,0.11656869202852249,1.001078486442566
1789799206453870000,3.2068701171875,-0.42357444763183594,0.23879952728748322,0.8075604438781738
1789799206463842000,3.216842041015625,-0.16522623598575592,0.374477744102478,0.7308409214019775
1789799206473814000,3.22681396484375,0.12260448187589645,0.49809765815734863,0.7843765616416931
1789799206483786000,3.236785888671875,0.19917595386505127,0.5945834517478943,0.6998867392539978
1789799206493758200,3.24675830078125,0.007576426956802607,0.49003735184669495,0.39033207297325134
1789799206503730200,3.256730224609375,-0.6306037902832031,-0.19747312366962433,0.11530289053916931
1789799206513702100,3.2667021484375,-1.0645816326141357,-0.7638723850250244,0.033855170011520386
1789799206523675100,3.276675048828125,-1.2441071271896362,-1.0362999439239502,0.0030517163686454296
1789799206533647000,3.286647216796875,-1.1697423458099365,-0.7188135385513306,0.015574165619909763
1789799206543619000,3.296619140625,-0.951603889465332,-0.27190688252449036,0.19541503489017487
1789799206553591000,3.306591064453125,-1.1056081056594849,-0.27770671248435974,0.23201273381710052
1789799206563563000,3.31656298828125,-1.473432183265686,-0.47699159383773804,0.20845253765583038
1789799206573535200,3.32653515625,-1.8962208032608032,-0.5501965880393982,0.19269275665283203
1789799206583507000,3.3365068359375,-2.13739013671875,-0.07847403734922409,0.16903509199619293
1789799206593479200,3.346479248046875,-1.7903529405593872,0.6307734251022339,0.29764872789382935
1789799206603451100,3.356451171875,-1.2226366996765137,1.0369195938110352,0.42840301990509033
1789799206613423000,3.366423095703125,-0.854095458984375,1.1236885786056519,0.44498810172080994
1789799206623396000,3.37639599609375,-0.7393169403076172,1.1775404214859009,0.42755213379859924
1789799206633368000,3.3863681640625,-0.714154064655304,1.16566801071167,0.40336930751800537
1789799206643340000,3.396340087890625,-0.6320102214813232,0.9510704874992371,0.4039115309715271
1789799206653312300,3.406312255859375,-0.563821017742157,0.7715867161750793,0.39853620529174805
1789799206663284000,3.416283935546875,-0.490701287984848,0.6313151121139526,0.2922672927379608
1789799206673256200,3.426256103515625,-0.43984076380729675,0.49432849884033203,0.1917169690132141
1789799206683228000,3.436227783203125,-0.452601820230484,0.4647596776485443,0.10500524193048477
1789799206693200100,3.4462001953125,-0.49943190813064575,0.4292192757129669,-0.017948374152183533
1789799206703172000,3.456172119140625,-0.5341417193412781,0.36668211221694946,-0.21808120608329773
1789799206713144000,3.46614404296875,-0.5985206961631775,0.3734968900680542,-0.37208542227745056
1789799206723117000,3.476116943359375,-0.6330205798149109,0.32976511120796204,-0.467542439699173
1789799206733089300,3.48608935546875,-0.6519958972930908,0.21260415017604828,-0.5425101518630981
1789799206743061000,3.49606103515625,-0.6887914538383484,0.14973250031471252,-0.5880555510520935
1789799206753033200,3.506033203125,-0.7371307611465454,0.09064041823148727,-0.6046766042709351
1789799206763005000,3.5160048828125,-0.7977818846702576,0.058873701840639114,-0.6249815821647644
1789799206772977200,3.52597705078125,-0.902297854423523,-0.00010359696898376569,-0.7003421187400818
1789799206782949000,3.53594921875,-1.0311636924743652,0.0022335932590067387,-0.804412841796875
1789799206792921000,3.545921142578125,-1.1548688411712646,0.002207494108006358,-0.9098929762840271
1789799206802893000,3.55589306640625,-1.234097957611084,-0.1120077595114708,-0.9629876017570496
1789799206812865000,3.565864990234375,-1.2646629810333252,-0.3547026813030243,-1.0090984106063843
1789799206822838000,3.575838134765625,-1.3721601963043213,-0.5778489708900452,-1.0421242713928223
1789799206832810200,3.585810302734375,-1.4678068161010742,-0.7429830431938171,-1.091908574104309
1789799206842782000,3.595781982421875,-1.479160189628601,-0.7387204170227051,-1.1014765501022339
1789799206852754200,3.605754150390625,-1.4040459394454956,-0.5889090895652771,-1.0540064573287964
1789799206862726100,3.61572607421875,-1.2067779302597046,-0.4337943196296692,-0.9805324673652649
1789799206872698000,3.625697998046875,-1.1816027164459229,-0.2626611888408661,-0.8323116302490234
1789799206882670000,3.635670166015625,-1.2127729654312134,-0.18569396436214447,-0.7276893258094788
1789799206892642000,3.64564208984375,-1.2660404443740845,-0.22923824191093445,-0.6819964051246643
1789799206902614000,3.655614013671875,-1.3131648302078247,-0.28258854150772095,-0.6499394178390503
1789799206912586200,3.665586181640625,-1.299098253250122,-0.35209253430366516,-0.6542798280715942
1789799206922559000,3.67555908203125,-1.2776433229446411,-0.2989720404148102,-0.6329100728034973
1789799206932531200,3.68553125,-1.251144528388977,-0.12254482507705688,-0.5875668525695801
1789799206942503200,3.695503173828125,-1.2791993618011475,-0.05372421443462372,-0.5732083916664124
1789799206952475100,3.70547509765625,-1.2645013332366943,-0.15379275381565094,-0.5579399466514587
1789799206962447000,3.715447021484375,-1.2406202554702759,-0.30350396037101746,-0.5320814847946167
1789799206972419000,3.725419189453125,-1.1928324699401855,-0.3921262323856354,-0.5058762431144714
1789799206982391000,3.73539111328125,-1.1000405550003052,-0.28077495098114014,-0.4587540030479431
1789799206992363300,3.74536328125,-1.0418072938919067,-0.30402061343193054,-0.44862252473831177
1789799207002335000,3.7553349609375,-1.0022863149642944,-0.44833144545555115,-0.4567648768424988
1789799207012307200,3.76530712890625,-0.9353548884391785,-0.5463115572929382,-0.46448084712028503
1789799207022280200,3.7752802734375,-0.8708558082580566,-0.5545210242271423,-0.42253315448760986
1789799207032252200,3.785252197265625,-0.8424952626228333,-0.45425671339035034,-0.3607020080089569
1789799207042224000,3.79522412109375,-0.7834412455558777,-0.3328322768211365,-0.3806746304035187
1789799207052196000,3.805196044921875,-0.7075097560882568,-0.41086211800575256,-0.5335763096809387
1789799207062168000,3.81516796875,-0.5840834379196167,-0.7753955721855164,-0.7025977969169617
1789799207072140300,3.825140380859375,-0.44692903757095337,-0.922619640827179,-0.7483485341072083
1789799207082112000,3.835112060546875,-0.4250554144382477,-0.5778350830078125,-0.6726705431938171
1789799207092084200,3.845084228515625,-0.3644985854625702,-0.15527985990047455,-0.5863599181175232
1789799207102056000,3.855055908203125,-0.3125898540019989,0.17346392571926117,-0.45374858379364014
1789799207112028200,3.865028076171875,-0.28519153594970703,0.3937169313430786,-0.26361778378486633
1789799207122001200,3.875001220703125,-0.21678556501865387,0.41635754704475403,-0.0821036547422409
1789799207131973000,3.88497314453125,-0.13771578669548035,0.3536107838153839,0.08677989989519119
1789799207141945000,3.894945068359375,-0.02907080017030239,0.3755483329296112,0.285232812166214
1789799207151917300,3.904917236328125,0.1689024716615677,0.5563759207725525,0.4672079384326935
1789799207161889000,3.914888916015625,0.16194894909858704,0.7204556465148926,0.5751583576202393
1789799207171861200,3.924861328125,0.15834836661815643,0.7795868515968323,0.6296184062957764
1789799207181833000,3.9348330078125,0.20105375349521637,0.7605849504470825,0.6193791031837463
1789799207191805200,3.94480517578125,0.25880226492881775,0.7027434706687927,0.5972439646720886
1789799207201777200,3.954777099609375,0.31339332461357117,0.5902401208877563,0.5744382739067078
1789799207211750100,3.964750244140625,0.419354647397995,0.5419180989265442,0.5401191711425781
1789799207221722000,3.97472216796875,0.5517920851707458,0.5819792747497559,0.4834558665752411
1789799207231694300,3.9846943359375,0.6910010576248169,0.6965731978416443,0.46292343735694885
1789799207241666000,3.994666015625,0.8165504932403564,0.8209316730499268,0.44455188512802124
1789799207251638300,4.00463818359375,0.9314714670181274,0.9255602955818176,0.39456143975257874
1789799207261610000,4.01460986328125,0.9914027452468872,0.9264799356460571,0.3397245407104492
1789799207271582200,4.024582275390625,0.8954676985740662,0.9675003290176392,0.39737799763679504
1789799207281554200,4.03455419921875,1.166733741760254,0.8348889946937561,0.2595444917678833
1789799207291526100,4.044526123046875,1.1614844799041748,0.6459763646125793,0.08721666038036346
1789799207301498000,4.054498046875,1.194967269897461,0.5649983882904053,-0.027836691588163376
1789799207311471000,4.06447119140625,1.2516710758209229,0.6381258964538574,-0.027057982981204987
1789799207321443000,4.074443115234375,1.3107050657272339,0.7909212708473206,-0.02683614194393158
1789799207331415300,4.084415283203125,1.3470628261566162,0.8770396709442139,-0.1028214544057846
1789799207341387000,4.094386962890625,1.2859236001968384,0.8096707463264465,-0.18344280123710632
1789799207351359200,4.104359130859375,1.312637209892273,0.8475696444511414,-0.10011088848114014
1789799207361331200,4.114331298828125,1.5336977243423462,0.7832343578338623,-0.27814745903015137
1789799207371303200,4.12430322265625,1.5251119136810303,0.6620362997055054,-0.3175923526287079
1789799207381275100,4.134275146484375,1.5295485258102417,0.7297689914703369,-0.3308687210083008
1789799207391247000,4.1442470703125,1.5287716388702393,0.7632931470870972,-0.38024774193763733
1789799207401219000,4.154218994140625,1.5250298976898193,0.6594055891036987,-0.4413779377937317
1789799207411192000,4.164192138671875,1.5332087278366089,0.48500052094459534,-0.503222644329071
1789799207421164000,4.1741640625,1.507420539855957,0.1985756754875183,-0.49006956815719604
1789799207431136300,4.18413623046875,1.5686473846435547,0.24213460087776184,-0.5839918255805969
1789799207441108200,4.194108154296875,1.5400123596191406,0.17436620593070984,-0.5241745710372925
1789799207451080200,4.204080078125,1.534152865409851,0.15772464871406555,-0.5002119541168213
1789799207461052200,4.21405224609375,1.5363637208938599,0.16733014583587646,-0.5496804118156433
1789799207471024000,4.224024169921875,1.554848551750183,0.10786761343479156,-0.619858980178833
1789799207480996000,4.23399609375,1.5516146421432495,0.065863698720932,-0.6762130856513977
1789799207490968300,4.24396826171875,1.522803544998169,0.06508232653141022,-0.6719173789024353
1789799207500941000,4.253941162109375,1.4960345029830933,0.06545490771532059,-0.64644855260849
1789799207510913000,4.2639130859375,1.3581098318099976,-0.05614982172846794,-0.6078712940216064
1789799207520885200,4.27388525390625,1.3830029964447021,0.012797820381820202,-0.5336825847625732
1789799207530857000,4.28385693359375,1.416635513305664,-0.07876485586166382,-0.44944173097610474
1789799207540829200,4.2938291015625,1.4464019536972046,-0.09576993435621262,-0.3380337059497833
1789799207550801200,4.30380126953125,1.5123825073242188,-0.08272763341665268,-0.28321999311447144
1789799207560773000,4.313773193359375,1.535010576248169,-0.17755907773971558,-0.29360151290893555
1789799207570745300,4.323745361328125,1.3913609981536865,-0.42660218477249146,-0.3558118939399719
1789799207580717000,4.333717041015625,1.1317657232284546,-0.1789708137512207,-0.19524192810058594
1789799207590689300,4.343689208984375,0.9789907932281494,-0.07556000351905823,-0.10305368155241013
1789799207600662300,4.353662353515625,0.9257864356040955,0.022830214351415634,-0.02273513935506344
1789799207610634000,4.363634033203125,0.9394742846488953,0.05632931739091873,0.012138954363763332
1789799207620606200,4.373606201171875,0.9635138511657715,0.12987464666366577,0.04827219247817993
1789799207630578000,4.383577880859375,0.9491125345230103,0.14055870473384857,0.07178870588541031
1789799207640550100,4.393550048828125,0.8940527439117432,0.06718143075704575,0.07259111106395721
1789799207650522000,4.403522216796875,0.8300415277481079,-0.026440128684043884,0.032099880278110504
1789799207660494000,4.413494140625,0.7614161372184753,-0.06512787193059921,0.024153007194399834
1789799207670466300,4.42346630859375,0.760167121887207,-0.0742286890745163,0.03759611025452614
1789799207680438000,4.43343798828125,0.6158639788627625,-0.07266062498092651,0.02341078408062458
1789799207690411000,4.443410888671875,0.4153577983379364,-0.06565731018781662,-0.02882499061524868
1789799207700383200,4.45338330078125,0.31254273653030396,-0.026699520647525787,-0.035111382603645325
1789799207710355000,4.46335498046875,0.22712795436382294,-0.0019238675013184547,-0.03719370812177658
1789799207720327200,4.4733271484375,0.15640078485012054,0.02773495763540268,-0.029293440282344818
1789799207730299100,4.483299072265625,0.08517268300056458,0.038240328431129456,-0.014287592843174934
1789799207740271000,4.49327099609375,0.001359277404844761,0.09045293182134628,0.0070424629375338554
1789799207750243000,4.5032431640625,-0.08072759956121445,0.16870619356632233,0.022976156324148178
1789799207760215000,4.513215087890625,-0.17072273790836334,0.26365453004837036,0.042205777019262314
1789799207770187300,4.523187255859375,-0.25894927978515625,0.3160642087459564,0.05897090956568718
1789799207780159200,4.5331591796875,-0.34081804752349854,0.3478967249393463,0.0698896050453186
1789799207790132000,4.543132080078125,-0.3993780314922333,0.3903898596763611,0.08274334669113159
1789799207800104200,4.553104248046875,-0.44243893027305603,0.43061769008636475,0.09074801206588745
1789799207810076200,4.563076171875,-0.4844484329223633,0.469821572303772,0.08504857867956161
1789799207820048100,4.573048095703125,-0.5350210666656494,0.4850359261035919,0.06908319890499115
1789799207830020000,4.58302001953125,-0.5740259885787964,0.43869534134864807,0.04669826477766037
1789799207839992000,4.592991943359375,-0.6120998859405518,0.36796045303344727,0.03128708153963089
1789799207849964000,4.602964111328125,-0.6377745866775513,0.30455270409584045,0.024404142051935196
1789799207859936300,4.612936279296875,-0.6395639777183533,0.2104850709438324,0.00956900417804718
1789799207869908000,4.622907958984375,-0.665888786315918,0.15981389582157135,0.008649680763483047
1789799207879881200,4.632881103515625,-0.6917997598648071,0.14437182247638702,0.007723167072981596
1789799207889853200,4.642853271484375,-0.7309290766716003,0.14423440396785736,-0.006533532869070768
1789799207899825200,4.6528251953125,-0.7779013514518738,0.16212259232997894,-0.03773033618927002
1789799207909797000,4.662797119140625,-0.8136340379714966,0.16615940630435944,-0.09288999438285828
1789799207919769000,4.67276904296875,-0.8205553293228149,0.143888458609581,-0.15022385120391846
1789799207929741000,4.682740966796875,-0.8155182600021362,0.10606305301189423,-0.1985999047756195
1789799207939713300,4.69271337890625,-0.8106329441070557,0.0957917720079422,-0.25500085949897766
1789799207949685000,4.70268505859375,-0.818228542804718,0.06888079643249512,-0.3297067880630493
1789799207959657200,4.7126572265625,-0.8540999889373779,0.034808579832315445,-0.3854968249797821
1789799207969630200,4.722630126953125,-0.909532368183136,0.0088803106918931,-0.39582428336143494
1789799207979602200,4.732602294921875,-0.9708564281463623,-0.05169462040066719,-0.38242247700691223
1789799207989574100,4.74257421875,-1.01735258102417,-0.17488233745098114,-0.3828302025794983
1789799207999546000,4.752546142578125,-1.0356661081314087,-0.2644990384578705,-0.37962108850479126
1789799208009518000,4.76251806640625,-1.0771077871322632,-0.35610538721084595,-0.3985074460506439
1789799208019490300,4.772490234375,-1.1077312231063843,-0.37424764037132263,-0.43128880858421326
1789799208029462000,4.7824619140625,-1.1185710430145264,-0.2839539647102356,-0.4727441072463989
1789799208039434200,4.792434326171875,-1.1343542337417603,-0.2001733034849167,-0.5034133195877075
1789799208049406000,4.802406005859375,-1.149442195892334,-0.16647179424762726,-0.4961594343185425
1789799208059378200,4.812378173828125,-1.1905280351638794,-0.20666636526584625,-0.4767710864543915
1789799208069351200,4.82235107421875,-1.2349402904510498,-0.260724812746048,-0.46041420102119446
1789799208079323100,4.8323232421875,-1.2705110311508179,-0.2791661322116852,-0.45535552501678467
1789799208089295000,4.842295166015625,-1.2965195178985596,-0.2491736114025116,-0.45746421813964844
1789799208099267300,4.852267333984375,-1.3104393482208252,-0.2184939831495285,-0.45613399147987366
1789799208109239000,4.862239013671875,-1.3055425882339478,-0.20688927173614502,-0.4428322911262512
1789799208119211300,4.872211181640625,-1.2973887920379639,-0.14900146424770355,-0.43144646286964417
1789799208129183000,4.882182861328125,-1.304290533065796,-0.09219304472208023,-0.43164193630218506
1789799208139155200,4.8921552734375,-1.294684886932373,-0.048956889659166336,-0.42875614762306213
1789799208149127200,4.902127197265625,-1.2885079383850098,-0.02833816409111023,-0.4106653034687042
1789799208159100200,4.91210009765625,-1.289551854133606,-0.07774992287158966,-0.4100005626678467
1789799208169072000,4.922072021484375,-1.3136355876922607,-0.1457872986793518,-0.4075765609741211
1789799208179044000,4.932044189453125,-1.3408470153808594,-0.23542556166648865,-0.37626683712005615
1789799208189016000,4.94201611328125,-1.3274712562561035,-0.30844545364379883,-0.3558425307273865
1789799208198988300,4.95198828125,-1.3358585834503174,-0.3141059875488281,-0.3574894368648529
1789799208208960000,4.9619599609375,-1.3056222200393677,-0.22023063898086548,-0.3911682963371277
1789799208218932200,4.97193212890625,-1.2903984785079956,-0.08927368372678757,-0.424920916557312
1789799208228904200,4.981904296875,-1.25727379322052,-0.01353551633656025,-0.43190133571624756
1789799208238876400,4.99187646484375,-1.262291431427002,0.010629475116729736,-0.4054050147533417
1789799208248848100,5.00184814453125,-1.269361138343811,-0.04608946293592453,-0.3849889636039734
1789799208258821400,5.0118212890625,-1.2954022884368896,-0.0429256297647953,-0.3657979667186737
1789799208268793300,5.02179345703125,-1.2670345306396484,-0.1002885177731514,-0.37320953607559204
1789799208278765300,5.031765380859375,-1.2480320930480957,-0.1333221048116684,-0.41206851601600647
1789799208288737300,5.0417373046875,-1.2140882015228271,-0.1986800730228424,-0.4713025391101837
1789799208298709200,5.051709228515625,-1.1333414316177368,-0.28429457545280457,-0.54827481508255
1789799208308681200,5.06168115234375,-1.041273593902588,-0.33084848523139954,-0.5986756682395935
1789799208318653400,5.0716533203125,-0.9521754384040833,-0.4085560739040375,-0.6098196506500244
1789799208328625200,5.081625244140625,-0.8852384686470032,-0.501347005367279,-0.5531137585639954
1789799208338597400,5.091597412109375,-0.8003350496292114,-0.5508727431297302,-0.4620770812034607
1789799208348570400,5.1015703125,-0.713550329208374,-0.5287013649940491,-0.41449251770973206
1789799208358542000,5.1115419921875,-0.6159292459487915,-0.5746917724609375,-0.4280184507369995
1789799208368514300,5.121514404296875,-0.5541132688522339,-0.5590792894363403,-0.3728502690792084
1789799208378486300,5.131486328125,-0.5027472972869873,-0.4499541223049164,-0.29999735951423645
1789799208388458200,5.141458251953125,-0.4349863529205322,-0.31575849652290344,-0.2663062512874603
1789799208398430500,5.151430419921875,-0.35922765731811523,-0.18418581783771515,-0.2205427587032318
1789799208408402200,5.161402099609375,-0.27382221817970276,-0.04983866214752197,-0.19075609743595123
1789799208418374400,5.17137451171875,-0.19755995273590088,0.014099041000008583,-0.18103636801242828
1789799208428346000,5.18134619140625,-0.1619899719953537,0.0915839821100235,-0.15131548047065735
1789799208438319000,5.191319091796875,-0.0938497930765152,0.17628449201583862,-0.10422254353761673
1789799208448291300,5.201291259765625,-0.019222430884838104,0.21896536648273468,-0.05324031785130501
1789799208458263000,5.211262939453125,0.08093106746673584,0.2820764183998108,0.0007981493836268783
1789799208468235300,5.2212353515625,0.20715904235839844,0.39234328269958496,0.05994988605380058
1789799208478207200,5.231207275390625,0.33074304461479187,0.5012665390968323,0.09821977466344833
1789799208488179200,5.24117919921875,0.43970680236816406,0.5881564617156982,0.14427994191646576
1789799208498151400,5.2511513671875,0.5244184732437134,0.639360785484314,0.1808243691921234
1789799208508123100,5.261123046875,0.603721022605896,0.6876692175865173,0.18438582122325897
1789799208518095400,5.271095458984375,0.6817226409912109,0.6933174729347229,0.18717707693576813
1789799208528068400,5.281068359375,0.769216001033783,0.6828707456588745,0.19899752736091614
1789799208538040000,5.2910400390625,0.8628578186035156,0.6851237416267395,0.20092511177062988
1789799208548012300,5.30101220703125,0.9705368280410767,0.7093774080276489,0.20314885675907135
1789799208557984300,5.310984375,1.0609327554702759,0.6794594526290894,0.2047843039035797
1789799208567956200,5.320956298828125,1.1492738723754883,0.6178086400032043,0.20159196853637695
1789799208577928200,5.33092822265625,1.2469398975372314,0.5639405846595764,0.17057813704013824
1789799208587900200,5.340900146484375,1.3472156524658203,0.5142526626586914,0.1351948380470276
1789799208597872400,5.350872314453125,1.4443233013153076,0.483417272567749,0.10589420795440674
1789799208607844400,5.36084423828125,1.5475770235061646,0.5077143311500549,0.10004164278507233
1789799208617816300,5.37081640625,1.637428641319275,0.5995180606842041,0.10594454407691956
1789799208627789300,5.380789306640625,1.7151412963867188,0.7093632817268372,0.1005372628569603
1789799208637761300,5.39076123046875,1.7691283226013184,0.7714120149612427,0.077481210231781
1789799208647733200,5.400733154296875,1.806806206703186,0.813380777835846,0.048652224242687225
1789799208657705200,5.410705322265625,1.851420283317566,0.8688360452651978,-0.0013134710025042295
1789799208667677200,5.42067724609375,1.9068126678466797,0.8942495584487915,-0.04882266744971275
1789799208677649200,5.430649169921875,1.9603062868118286,0.8748832941055298,-0.07448488473892212
1789799208687621400,5.440621337890625,2.0205345153808594,0.8495457172393799,-0.07550381124019623
1789799208697593000,5.450593017578125,2.0638375282287598,0.7852844595909119,-0.08603847771883011
1789799208707565300,5.4605654296875,2.0698182582855225,0.7026638388633728,-0.10306300222873688
1789799208717538300,5.470538330078125,2.0400025844573975,0.6122457981109619,-0.13487845659255981
1789799208727510300,5.48051025390625,1.9674017429351807,0.5424712896347046,-0.16688272356987
1789799208737482200,5.490482177734375,1.8659371137619019,0.46621429920196533,-0.18277807533740997
1789799208747454200,5.5004541015625,1.7658262252807617,0.3761323392391205,-0.2027810662984848
1789799208757426200,5.51042626953125,1.6856142282485962,0.3861181437969208,-0.23168808221817017
1789799208767398400,5.5203984375,1.6310876607894897,0.41293030977249146,-0.24998879432678223
1789799208777370000,5.5303701171875,1.5557918548583984,0.4024382531642914,-0.26963385939598083
1789799208787342300,5.54034228515625,1.4824334383010864,0.37174558639526367,-0.26410648226737976
1789799208797314000,5.55031396484375,1.3897428512573242,0.27354925870895386,-0.25370657444000244
1789799208807287300,5.560287353515625,1.3503190279006958,0.2495829313993454,-0.24139344692230225
1789799208817259300,5.57025927734375,1.296129822731018,0.255154013633728,-0.2266312837600708
1789799208827231200,5.580231201171875,1.1923578977584839,0.13640257716178894,-0.22289885580539703
1789799208837203200,5.590203125,1.1242438554763794,0.009034507907927036,-0.21955658495426178
1789799208847175400,5.600175537109375,1.073230504989624,0.010645986534655094,-0.19638629257678986
1789799208857147100,5.610147216796875,1.021156668663025,-0.031858064234256744,-0.18285183608531952
1789799208867119400,5.620119384765625,0.9953117370605469,-0.02195589803159237,-0.15782637894153595
1789799208877091000,5.630091064453125,0.9467156529426575,-0.00016644757124595344,-0.13030314445495605
1789799208887063300,5.640063232421875,0.903996467590332,-0.018847458064556122,-0.09247080981731415
1789799208897035300,5.65003515625,0.8410528898239136,0.004078631289303303,-0.057904310524463654
1789799208907008300,5.66000830078125,0.7503863573074341,0.054238736629486084,-0.038974829018116
1789799208916980200,5.669980224609375,0.6566974520683289,0.12726713716983795,-0.02292875200510025
1789799208926952400,5.679952392578125,0.5697598457336426,0.1683834195137024,-0.018192052841186523
1789799208936924200,5.689924072265625,0.47831225395202637,0.1568833589553833,-0.03410151228308678
1789799208946896400,5.699896484375,0.3902612328529358,0.15537334978580475,-0.06627409160137177
1789799208956868000,5.7098681640625,0.2872096598148346,0.12647591531276703,-0.1042233407497406
1789799208966840300,5.71984033203125,0.1904975026845932,0.1188235878944397,-0.124021016061306
1789799208976812300,5.729812255859375,0.07497064769268036,0.12322739511728287,-0.12723997235298157
1789799208986784300,5.7397841796875,-0.05609282851219177,0.09775958210229874,-0.1283254772424698
1789799208996757200,5.74975732421875,-0.20895135402679443,0.06737691164016724,-0.12701654434204102
1789799209006729500,5.7597294921875,-0.34639814496040344,0.023450996726751328,-0.10785616189241409
1789799209016701200,5.769701171875,-0.4453151524066925,0.004405933897942305,-0.06015761196613312
1789799209026673400,5.77967333984375,-0.4999573528766632,0.028811940923333168,0.01324176974594593
1789799209036645000,5.78964501953125,-0.5561202168464661,0.1289941966533661,0.10031542181968689
1789799209046617300,5.799617431640625,-0.5764385461807251,0.19198036193847656,0.1469566971063614
1789799209056589300,5.80958935546875,-0.6384457349777222,0.2346993237733841,0.1526409387588501
1789799209066561300,5.819561279296875,-0.7165365219116211,0.2111031860113144,0.12196318805217743
1789799209076533200,5.829533203125,-0.7702599763870239,0.0798729956150055,0.07811211049556732
1789799209086506200,5.83950634765625,-0.8366299271583557,-0.11241576075553894,0.05265282467007637
1789799209096478200,5.849478271484375,-0.9383533596992493,-0.3133419454097748,0.03369804099202156
1789799209106450400,5.859450439453125,-0.9524707794189453,-0.4740482568740845,-0.015791213139891624
1789799209116422100,5.869422119140625,-0.9773380160331726,-0.452933669090271,-0.07906845211982727
1789799209126394400,5.879394287109375,-0.9791039824485779,-0.4659922122955322,-0.1635282039642334
1789799209136366300,5.889366455078125,-0.9828169345855713,-0.3575517535209656,-0.21984048187732697
1789799209146338300,5.89933837890625,-0.9803346395492554,-0.26976117491722107,-0.2929985821247101
1789799209156310300,5.909310302734375,-0.9663684964179993,-0.2076922059059143,-0.41236039996147156
1789799209166282200,5.9192822265625,-0.9259848594665527,-0.11781052500009537,-0.5637302398681641
1789799209176255200,5.929255126953125,-0.9078095555305481,-0.009593239054083824,-0.6889307498931885
1789799209186227200,5.939227294921875,-0.9251978397369385,0.07932598143815994,-0.7395004630088806
1789799209196199200,5.94919921875,-0.9755936861038208,0.0998469665646553,-0.6869118213653564
1789799209206171400,5.95917138671875,-1.0695196390151978,0.008114385418593884,-0.6048979163169861
1789799209216143400,5.969143310546875,-1.1970045566558838,-0.11625231057405472,-0.5720943808555603
1789799209226115300,5.979115234375,-1.2806150913238525,-0.19132202863693237,-0.5998964905738831
1789799209236086800,5.989086669921875,-1.2340284585952759,-0.12368465960025787,-0.6400545239448547
1789799209246058800,5.999058837890625,-1.176267147064209,-0.02960236743092537,-0.6579890847206116
1789799209256030700,6.00903076171875,-1.1436247825622559,-0.025016935542225838,-0.6726644039154053
1789799209266003000,6.0190029296875,-1.129500150680542,-0.03867921978235245,-0.6894487142562866
1789799209275975700,6.0289755859375,-1.1280076503753662,-0.03039279393851757,-0.700330913066864
1789799209285948000,6.038947998046875,-1.117786169052124,0.035766784101724625,-0.6810888051986694
1789799209295919900,6.048919921875,-1.10297691822052,0.09961287677288055,-0.6463161706924438
1789799209305891800,6.058891845703125,-1.1449494361877441,0.155821293592453,-0.6165891885757446
1789799209315863800,6.06886376953125,-1.2572925090789795,0.1505085527896881,-0.5973001718521118
1789799209325835800,6.078835693359375,-1.3613543510437012,0.11242853850126266,-0.5696983337402344
1789799209335807700,6.088807861328125,-1.4508110284805298,0.0005701828049495816,-0.5399090647697449
1789799209345780000,6.098780029296875,-1.533334732055664,-0.10728517919778824,-0.5288153886795044
1789799209355751700,6.108751708984375,-1.5610337257385254,-0.20690417289733887,-0.540349543094635
1789799209365725000,6.118724853515625,-1.5326124429702759,-0.3251570463180542,-0.5680602192878723
1789799209375697000,6.12869677734375,-1.5067813396453857,-0.4337943196296692,-0.5813400745391846
1789799209385668900,6.1386689453125,-1.523347020149231,-0.4234924018383026,-0.5720595121383667
1789799209395640800,6.148640869140625,-1.4621502161026,-0.49623826146125793,-0.5913810133934021
1789799209405612800,6.15861279296875,-1.4788051843643188,-0.4444671869277954,-0.5798553824424744
1789799209415584800,6.168584716796875,-1.483144998550415,-0.4603537619113922,-0.5827102661132812
1789799209425557000,6.178556884765625,-1.4939409494400024,-0.4875699281692505,-0.5826495885848999
1789799209435528700,6.18852880859375,-1.5077520608901978,-0.45907410979270935,-0.5756955146789551
1789799209445501000,6.1985009765625,-1.480682134628296,-0.42424556612968445,-0.5644828081130981
1789799209455472600,6.20847265625,-1.440543293952942,-0.4175351858139038,-0.539686381816864
1789799209465445600,6.218445556640625,-1.4326304197311401,-0.3083714246749878,-0.4773324728012085
1789799209475417900,6.22841796875,-1.369284987449646,-0.3684190511703491,-0.4552684426307678
1789799209485389800,6.238389892578125,-1.3091564178466797,-0.4351256191730499,-0.4390348792076111
1789799209495361800,6.24836181640625,-1.228797435760498,-0.4602093994617462,-0.4024398624897003
1789799209505334000,6.258333984375,-1.1292756795883179,-0.5162263512611389,-0.37324708700180054
1789799209515305700,6.2683056640625,-1.0197725296020508,-0.5610073804855347,-0.3671252727508545
1789799209525278000,6.27827783203125,-0.895193874835968,-0.5912169814109802,-0.3271075487136841
1789799209535249700,6.288249755859375,-0.7630073428153992,-0.5843340158462524,-0.26173919439315796
1789799209545222000,6.298221923828125,-0.6366049647331238,-0.47894981503486633,-0.22984065115451813
1789799209555195000,6.30819482421875,-0.5058416128158569,-0.33885955810546875,-0.21985220909118652
1789799209565166600,6.31816650390625,-0.388942152261734,-0.19639934599399567,-0.1882207691669464
1789799209575138800,6.328138916015625,-0.29153650999069214,-0.06405062228441238,-0.1478232890367508
1789799209585110800,6.33811083984375,-0.1930653303861618,0.05920899659395218,-0.07527797669172287
1789799209595082800,6.348082763671875,-0.071757011115551,0.08372339606285095,-0.11223013699054718
1789799209605055000,6.358054931640625,0.03726374730467796,0.24767690896987915,-0.16954907774925232
1789799209615026700,6.368026611328125,0.10059478133916855,0.3301584720611572,-0.18036764860153198
1789799209624999000,6.3779990234375,0.16770058870315552,0.38928544521331787,-0.1634800136089325
1789799209634971000,6.387970947265625,0.24231809377670288,0.3567573130130768,-0.1588599532842636
1789799209644942800,6.39794287109375,0.3144322335720062,0.27328798174858093,-0.15444043278694153
1789799209654915800,6.407915771484375,0.4111129641532898,0.23976679146289825,-0.15134824812412262
1789799209664887800,6.4178876953125,0.5334072113037109,0.26956090331077576,-0.1463329792022705
1789799209674859800,6.42785986328125,0.6714308261871338,0.35141101479530334,-0.13949504494667053
1789799209684831700,6.437831787109375,0.7917367219924927,0.44372230768203735,-0.1504203975200653
1789799209694803700,6.4478037109375,0.9011045098304749,0.5322364568710327,-0.14491191506385803
1789799209704776000,6.45777587890625,1.0042684078216553,0.6292780637741089,-0.1392228752374649
1789799209714748000,6.467747802734375,1.0961003303527832,0.703688383102417,-0.13740846514701843
1789799209724719900,6.477719970703125,1.1747469902038574,0.6989541053771973,-0.12842774391174316
1789799209734691800,6.48769189453125,1.2552061080932617,0.6324927806854248,-0.1358422487974167
1789799209744664800,6.497664794921875,1.3485110998153687,0.6033048033714294,-0.13281796872615814
1789799209754636800,6.50763671875,1.4701842069625854,0.693381667137146,-0.09951753914356232
1789799209764608800,6.51760888671875,1.5963983535766602,0.7633136510848999,-0.06173686683177948
1789799209774580700,6.527580810546875,1.714747667312622,0.7477631568908691,-0.020854948088526726
1789799209784552700,6.537552734375,1.8289424180984497,0.6583831906318665,0.021822208538651466
1789799209794525000,6.54752490234375,1.92396879196167,0.5579809546470642,0.04983946308493614
1789799209804496600,6.55749658203125,2.01163911819458,0.5176516771316528,0.04862159863114357
1789799209814468900,6.56746875,2.0957765579223633,0.5440550446510315,0.030598921701312065
1789799209824440800,6.57744091796875,2.166487216949463,0.5965914726257324,0.025603629648685455
1789799209834412800,6.587412841796875,2.211494207382202,0.684861421585083,0.02376951090991497
1789799209844385800,6.5973857421875,2.2376670837402344,0.7707957625389099,0.01811135932803154
1789799209854357800,6.607357666015625,2.257260322570801,0.7409462928771973,0.005791043862700462
1789799209864329700,6.617329833984375,2.2713623046875,0.6567224860191345,0.0018024274613708258
1789799209874302000,6.627302001953125,2.2661330699920654,0.5897088050842285,0.012163988314568996
1789799209884273700,6.637273681640625,2.2429256439208984,0.4943000078201294,0.0032445292454212904
1789799209894246000,6.647245849609375,2.1820521354675293,0.3447169065475464,-0.021996911615133286
1789799209904217600,6.657217529296875,2.0766475200653076,0.1804981380701065,-0.017975805327296257
1789799209914189800,6.66718994140625,1.9809266328811646,0.1112237274646759,0.01341647282242775
1789799209924161800,6.677161865234375,1.8978931903839111,0.03982171416282654,0.0011946940794587135
1789799209934134800,6.687134765625,1.812868595123291,-0.027296070009469986,-0.0245444905012846
1789799209944106800,6.697106689453125,1.7158735990524292,-0.10171757638454437,-0.03844219818711281
1789799209954078700,6.70707861328125,1.5913341045379639,-0.11685790866613388,-0.01563941314816475
1789799209964050700,6.71705078125,1.4550905227661133,-0.16732187569141388,0.012150672264397144
1789799209974023000,6.72702294921875,1.3401089906692505,-0.15999819338321686,0.017545171082019806
1789799209983994600,6.73699462890625,1.2500449419021606,-0.0945398211479187,0.0036365464329719543
1789799209993966800,6.746966796875,1.1787145137786865,-0.0686618834733963,-0.020060792565345764
1789799210003938600,6.7569384765625,1.1329374313354492,-0.07726123183965683,0.007791077718138695
1789799210013910800,6.766910888671875,1.0730419158935547,-0.14515666663646698,0.050225354731082916
1789799210023882800,6.7768828125,0.9776576161384583,-0.20663253962993622,0.06443970650434494
1789799210033855700,6.786855712890625,0.8888902068138123,-0.2311733067035675,0.055040083825588226
1789799210043827700,6.79682763671875,0.8017433285713196,-0.29399460554122925,0.019750535488128662
1789799210053800000,6.806800048828125,0.6856300234794617,-0.2700352072715759,0.003436809405684471
1789799210063771600,6.816771728515625,0.5912129878997803,-0.27449122071266174,-0.0052381716668605804
1789799210073744000,6.826743896484375,0.4800800681114197,-0.2802596092224121,-0.030479345470666885
1789799210083715600,6.836715576171875,0.34798699617385864,-0.2640305757522583,-0.05694184452295303
1789799210093687800,6.846687744140625,0.26153865456581116,-0.16171832382678986,-0.06515636295080185
1789799210103659800,6.85665966796875,0.17513452470302582,-0.07265502959489822,-0.06028464436531067
1789799210113631700,6.8666318359375,0.08571996539831161,-0.004408597014844418,-0.03906058520078659
1789799210123603700,6.876603759765625,-0.02190263569355011,0.012912070378661156,-0.020787570625543594
1789799210133577000,6.886576904296875,-0.1576191931962967,-0.05278997868299484,-0.024468857795000076
1789799210143548700,6.896548583984375,-0.2836940288543701,-0.11256463080644608,-0.015809856355190277
1789799210153521000,6.90652099609375,-0.387300580739975,-0.11687015742063522,0.03441070392727852
1789799210163492600,6.91649267578125,-0.4751201868057251,-0.08005009591579437,0.0937613770365715
1789799210173464800,6.92646484375,-0.5395143628120422,-0.02877039462327957,0.14121198654174805
1789799210183436800,6.936436767578125,-0.5862246155738831,0.037222202867269516,0.18513257801532745
1789799210193408800,6.94640869140625,-0.6547237634658813,0.12027554214000702,0.2339208871126175
1789799210203380700,6.956380615234375,-0.7061682939529419,0.17886988818645477,0.25965845584869385
1789799210213352700,6.966352783203125,-0.7440504431724548,0.14405784010887146,0.2463328093290329
1789799210223325700,6.97632568359375,-0.8100616931915283,0.11192653328180313,0.2328670769929886
1789799210233298200,6.986298095703125,-0.859109103679657,0.13439854979515076,0.22064395248889923
1789799210243270400,6.9962705078125,-0.8901189565658569,0.08165278285741806,0.2033643126487732
1789799210253242400,7.006242431640625,-0.9589068293571472,0.05452795699238777,0.1759081780910492
1789799210263214300,7.01621435546875,-1.0099250078201294,0.033367808908224106,0.13723322749137878
1789799210273186600,7.0261865234375,-1.076755166053772,0.014340323396027088,0.08026421070098877
1789799210283158300,7.036158203125,-1.1229006052017212,-0.029802370816469193,0.010217484086751938
1789799210293130500,7.046130615234375,-1.1757009029388428,-0.024649687111377716,-0.05770697072148323
1789799210303102500,7.0561025390625,-1.2110000848770142,0.017525730654597282,-0.11454734951257706
1789799210313074400,7.066074462890625,-1.231850266456604,0.03227484971284866,-0.15883173048496246
1789799210323047400,7.07604736328125,-1.2540920972824097,-0.003439472522586584,-0.21541909873485565
1789799210333019400,7.086019287109375,-1.2732982635498047,-0.059174105525016785,-0.2699984610080719
1789799210342991400,7.095991455078125,-1.3022892475128174,-0.12315868586301804,-0.2878882586956024
1789799210352963300,7.10596337890625,-1.3364160060882568,-0.20574650168418884,-0.28433850407600403
1789799210362935300,7.115935302734375,-1.3662577867507935,-0.2673605978488922,-0.2839677929878235
1789799210372907500,7.125907470703125,-1.4072529077529907,-0.2849177420139313,-0.303315669298172
1789799210382879500,7.13587939453125,-1.4462649822235107,-0.2150276154279709,-0.36150574684143066
1789799210392851500,7.1458515625,-1.4745988845825195,-0.03738705441355705,-0.43762633204460144
1789799210402823400,7.155823486328125,-1.4715698957443237,0.11344000697135925,-0.47932878136634827
1789799210412795400,7.16579541015625,-1.4460102319717407,0.1799471229314804,-0.467136025428772
1789799210422768400,7.175768310546875,-1.4111757278442383,0.14054779708385468,-0.4003804326057434
1789799210432740400,7.185740234375,-1.4006516933441162,0.006776679772883654,-0.33182987570762634
1789799210442712300,7.19571240234375,-1.437242031097412,-0.1656842976808548,-0.287214457988739
1789799210452684300,7.205684326171875,-1.4850904941558838,-0.2875766456127167,-0.27916213870048523
1789799210462656500,7.215656494140625,-1.5588687658309937,-0.261850506067276,-0.2696349322795868
1789799210472628500,7.22562841796875,-1.597313404083252,-0.214644655585289,-0.27167919278144836
1789799210482600400,7.235600341796875,-1.6146396398544312,-0.23215414583683014,-0.28169265389442444
1789799210492572400,7.245572509765625,-1.6699743270874023,-0.2436819076538086,-0.25142398476600647
1789799210502544400,7.25554443359375,-1.6699119806289673,-0.4166411757469177,-0.24265418946743011
1789799210512516600,7.2655166015625,-1.6953192949295044,-0.5490064024925232,-0.21947510540485382
1789799210522489300,7.2754892578125,-1.7588047981262207,-0.535124659538269,-0.1693011373281479
1789799210532461300,7.28546142578125,-1.7162967920303345,-0.6126687526702881,-0.1833711564540863
1789799210542433500,7.29543359375,-1.6810439825057983,-0.6903882622718811,-0.20218345522880554
1789799210552405200,7.3054052734375,-1.6525354385375977,-0.7805389761924744,-0.21306167542934418
1789799210562377500,7.31537744140625,-1.6360490322113037,-0.7548120021820068,-0.1892298460006714
1789799210572349200,7.32534912109375,-1.5671030282974243,-0.8641049265861511,-0.18960055708885193
1789799210582321400,7.3353212890625,-1.4755334854125977,-0.894061803817749,-0.17881102859973907
1789799210592293400,7.34529345703125,-1.3610715866088867,-0.8545942902565002,-0.1594703495502472
1789799210602265300,7.355265380859375,-1.2141457796096802,-0.8089162707328796,-0.1495165228843689
1789799210612237600,7.365237548828125,-1.0695526599884033,-0.7816851735115051,-0.1304171234369278
1789799210622210600,7.37521044921875,-0.9348494410514832,-0.8014756441116333,-0.07608597725629807
1789799210632182300,7.385182373046875,-0.8479400873184204,-0.7101745009422302,0.002427471335977316
1789799210642154500,7.395154541015625,-0.7700884342193604,-0.5259117484092712,0.0169113390147686
1789799210652126200,7.405126220703125,-0.6523961424827576,-0.2958763837814331,-0.018435733392834663
1789799210662098400,7.415098388671875,-0.5404898524284363,-0.1448434740304947,-0.0012780509423464537
1789799210672070400,7.4250703125,-0.4651429057121277,-0.06214699521660805,0.0522855743765831
1789799210682042400,7.43504248046875,-0.3832720220088959,0.057381533086299896,0.07022116333246231
1789799210692014300,7.445014404296875,-0.2754659354686737,0.16873575747013092,0.04627428948879242
1789799210701986300,7.454986328125,-0.1602938026189804,0.25567543506622314,0.02509762905538082
1789799210711958500,7.46495849609375,-0.06312251091003418,0.3335753083229065,0.028932848945260048
1789799210721931500,7.474931640625,0.03660621494054794,0.391965389251709,0.031065240502357483
1789799210731903200,7.4849033203125,0.1477828025817871,0.4034300148487091,0.01769484020769596
1789799210741875500,7.49487548828125,0.2643786668777466,0.4304616451263428,0.004226969089359045
1789799210751847400,7.504847412109375,0.3805161714553833,0.463473916053772,-0.0037955371662974358
1789799210761819400,7.5148193359375,0.4973432123661041,0.4736519753932953,0.012346414849162102
1789799210771791400,7.524791259765625,0.6073956489562988,0.47143304347991943,0.03351215273141861
1789799210781763300,7.534763427734375,0.7211896181106567,0.49623799324035645,0.009970342740416527
1789799210791735300,7.5447353515625,0.847061812877655,0.5299459099769592,-0.009066731669008732
1789799210801707500,7.55470751953125,0.9754125475883484,0.5991351008415222,-0.01691426895558834
1789799210811679500,7.564679443359375,1.1048781871795654,0.6692550182342529,-0.0382097028195858
1789799210821652500,7.574652587890625,1.2160762548446655,0.6532971262931824,-0.055446214973926544
1789799210831624400,7.58462451171875,1.324890375137329,0.7057139873504639,-0.04964904487133026
1789799210841596400,7.594596435546875,1.4478996992111206,0.826967716217041,-0.0498780757188797
1789799210851568400,7.604568359375,1.566588282585144,0.9051885008811951,-0.057502709329128265
1789799210861540400,7.614540283203125,1.6749075651168823,0.915962278842926,-0.07543829828500748
1789799210871512300,7.62451220703125,1.7466977834701538,0.8880624771118164,-0.07506491988897324
1789799210881484500,7.634484619140625,1.8126795291900635,0.8709133267402649,-0.06540723890066147
1789799210891456300,7.644456298828125,1.8895119428634644,0.8668243288993835,-0.05822735279798508
1789799210901428500,7.654428466796875,1.9631891250610352,0.8619555234909058,-0.041965559124946594
1789799210911400200,7.664400146484375,2.016374349594116,0.8625187873840332,-0.014902516268193722
1789799210921372400,7.674372314453125,2.069831371307373,0.8550789952278137,0.009138104505836964
1789799210931345400,7.684345458984375,2.1130118370056152,0.8354693055152893,0.013472133316099644
1789799210941317400,7.6943173828125,2.1572117805480957,0.8274350762367249,-0.00358834327198565
1789799210951289300,7.704289306640625,2.186098098754883,0.755393922328949,-0.017132913693785667
1789799210961261600,7.714261474609375,2.2102434635162354,0.694050133228302,0.017137974500656128
1789799210971233300,7.7242333984375,2.2147626876831055,0.6356358528137207,0.04334214702248573
1789799210981205500,7.73420556640625,2.193514585494995,0.531391978263855,0.06163300573825836
1789799210991177200,7.74417724609375,2.157585859298706,0.4782065153121948,0.07044460624456406
1789799211001149400,7.7541494140625,2.092660665512085,0.35095617175102234,0.06508100032806396
1789799211011121400,7.764121337890625,2.039466142654419,0.24801699817180634,0.05613277852535248
1789799211021093400,7.77409326171875,1.9821263551712036,0.2297796607017517,0.023021962493658066
1789799211031066400,7.78406640625,1.892057180404663,0.19749470055103302,-0.0148636344820261
1789799211041038600,7.79403857421875,1.7890266180038452,0.1568351536989212,-0.029767749831080437
1789799211051010300,7.80401025390625,1.666857361793518,0.09028728306293488,-0.06695320457220078
1789799211060982500,7.813982421875,1.5264307260513306,0.030785875394940376,-0.0929429903626442
1789799211070954200,7.823954345703125,1.38392972946167,-0.052621930837631226,-0.11226129531860352
1789799211080926500,7.833926513671875,1.2465604543685913,-0.10935365408658981,-0.11430500447750092
1789799211090898400,7.8438984375,1.1474392414093018,-0.1164134293794632,-0.11659665405750275
1789799211100870400,7.853870361328125,1.044677972793579,-0.14815084636211395,-0.13690166175365448
1789799211110842400,7.86384228515625,0.9750788807868958,-0.22626721858978271,-0.1547299176454544
1789799211120814300,7.873814453125,0.9043977856636047,-0.24071727693080902,-0.14609675109386444
1789799211130786300,7.883786376953125,0.8293818831443787,-0.1788989156484604,-0.15517893433570862
1789799211140759600,7.893759521484375,0.744555652141571,-0.11329593509435654,-0.19234681129455566
1789799211150731300,7.903731201171875,0.6526803374290466,0.05125892534852028,-0.19724568724632263
1789799211160703500,7.913703369140625,0.5676096677780151,0.12467429041862488,-0.1778581440448761
1789799211170675500,7.923675537109375,0.48432859778404236,0.12263936549425125,-0.14988750219345093
1789799211180647400,7.9336474609375,0.4069691002368927,0.1378318965435028,-0.11875168234109879
1789799211190619400,7.943619384765625,0.29786816239356995,0.13936828076839447,-0.09562505781650543
1789799211200591400,7.95359130859375,0.1754341423511505,0.15177088975906372,-0.06916708499193192
1789799211210563300,7.963563232421875,0.03168975189328194,0.12107103317975998,-0.045523274689912796
1789799211220535600,7.97353564453125,-0.10438685864210129,0.07650595903396606,-0.008698150515556335
1789799211230506800,7.9835068359375,-0.22612102329730988,0.036331906914711,0.035527899861335754
1789799211240479700,7.993479736328125,-0.3296479284763336,0.03117522969841957,0.0814562439918518
1789799211250451500,8.003451416015626,-0.4247789978981018,0.04989805072546005,0.11344986408948898
1789799211260423700,8.013423583984375,-0.51778644323349,0.06894977390766144,0.12872815132141113
1789799211270395600,8.023395751953124,-0.6032914519309998,0.08560864627361298,0.13634079694747925
1789799211280367600,8.03336767578125,-0.6546595692634583,0.09698034077882767,0.14081597328186035
1789799211290339600,8.043339599609375,-0.7194817066192627,0.13652029633522034,0.1479969173669815
1789799211300311600,8.0533115234375,-0.7504044771194458,0.14712366461753845,0.13088610768318176
1789799211310283800,8.06328369140625,-0.793580174446106,0.14752687513828278,0.09998838603496552
1789799211320255700,8.073255859375,-0.8645995259284973,0.18335384130477905,0.06766213476657867
1789799211330227700,8.083227783203125,-0.9245411157608032,0.21661406755447388,0.010884871706366539
1789799211340199700,8.09319970703125,-0.9966784715652466,0.2506684362888336,-0.07595867663621902
1789799211350172700,8.103172607421875,-1.0784568786621094,0.27967771887779236,-0.17068518698215485
1789799211360144600,8.11314453125,-1.154020071029663,0.31345778703689575,-0.2528194785118103
1789799211370116600,8.12311669921875,-1.224689245223999,0.34566259384155273,-0.3055335581302643
1789799211380088600,8.133088623046875,-1.2904706001281738,0.32594799995422363,-0.3002815246582031
1789799211390060500,8.143060546875,-1.3497440814971924,0.2851337492465973,-0.2743910849094391
1789799211400032800,8.15303271484375,-1.3979848623275757,0.1867685467004776,-0.27178943157196045
1789799211410004700,8.163004638671875,-1.4495497941970825,0.06271903961896896,-0.2836295962333679
1789799211419976700,8.172976806640625,-1.477023720741272,-0.09851539134979248,-0.3087882101535797
1789799211429948700,8.18294873046875,-1.4864259958267212,-0.21265633404254913,-0.36046096682548523
1789799211439920600,8.192920654296875,-1.4829543828964233,-0.27219316363334656,-0.4297436475753784
1789799211449892900,8.202892822265625,-1.4769902229309082,-0.2961568236351013,-0.4952733814716339
1789799211459865600,8.212865478515624,-1.4808703660964966,-0.26042440533638,-0.5505321025848389
1789799211469837600,8.222837646484376,-1.4923944473266602,-0.12851056456565857,-0.5882502198219299
1789799211479809800,8.232809814453125,-1.513609766960144,0.002359827049076557,-0.6141654253005981
1789799211489781500,8.242781494140624,-1.5340771675109863,0.07793368399143219,-0.629339337348938
1789799211499753700,8.252753662109376,-1.531104326248169,0.07096285372972488,-0.6222758293151855
1789799211509725700,8.2627255859375,-1.5397731065750122,0.010992730036377907,-0.6062960624694824
1789799211519697700,8.27269775390625,-1.5648300647735596,-0.05999915301799774,-0.5915104150772095
1789799211529670000,8.282669921875,-1.6004681587219238,-0.14881238341331482,-0.5825755596160889
1789799211539641600,8.2926416015625,-1.6429775953292847,-0.28276777267456055,-0.5786386132240295
1789799211549613800,8.30261376953125,-1.7190393209457397,-0.38596341013908386,-0.5746164321899414
1789799211559585500,8.31258544921875,-1.7225587368011475,-0.46043044328689575,-0.5865098237991333
1789799211569558500,8.32255859375,-1.7076750993728638,-0.5011432766914368,-0.5895774960517883
1789799211579530800,8.33253076171875,-1.7001652717590332,-0.4698348641395569,-0.5878320932388306
1789799211589502500,8.34250244140625,-1.7148722410202026,-0.42629992961883545,-0.5763927698135376
1789799211599474700,8.352474609375,-1.6888142824172974,-0.5535039305686951,-0.5594622492790222
1789799211609446700,8.36244677734375,-1.6922721862792969,-0.618445634841919,-0.49697089195251465
1789799211619418600,8.372418701171876,-1.6894630193710327,-0.6227580904960632,-0.44497212767601013
1789799211629390600,8.382390625,-1.6512432098388672,-0.6500387191772461,-0.425439715385437
1789799211639362600,8.392362548828125,-1.5895897150039673,-0.6851930022239685,-0.42000526189804077
1789799211649334800,8.402334716796876,-1.5559824705123901,-0.7269092798233032,-0.3896907866001129
1789799211659306800,8.412306640625,-1.4873539209365845,-0.7525140047073364,-0.328683078289032
1789799211669278700,8.42227880859375,-1.4363868236541748,-0.5649923086166382,-0.23749244213104248
1789799211679250700,8.432250732421876,-1.258162498474121,-0.4793887138366699,-0.23458561301231384
1789799211689223700,8.4422236328125,-1.0682709217071533,-0.2649962306022644,-0.19926702976226807
1789799211699195600,8.452195556640625,-0.8980985879898071,-0.05385284498333931,-0.10585293173789978
1789799211709167600,8.462167724609374,-0.7401180267333984,0.12469825893640518,-0.01768765039741993
1789799211719139600,8.4721396484375,-0.6291419863700867,0.1669096201658249,-0.024204671382904053
1789799211729111600,8.482111572265625,-0.5272190570831299,0.06075895577669144,-0.03184528276324272
1789799211739083800,8.492083740234374,-0.4634440839290619,-0.037515152245759964,0.019539080560207367
1789799211749055700,8.5020556640625,-0.3602772355079651,-0.029446039348840714,0.020910874009132385
1789799211759027700,8.51202783203125,-0.24016626179218292,0.02371145412325859,0.015247662551701069
1789799211768999700,8.521999755859374,-0.12480318546295166,0.08686299622058868,0.02599431574344635
1789799211778971600,8.5319716796875,-0.003626160090789199,0.14819613099098206,0.04121135175228119
1789799211788944000,8.54194384765625,0.1412697732448578,0.2541193664073944,0.015723036602139473
1789799211798916600,8.55191650390625,0.29948151111602783,0.35817572474479675,-0.026821760460734367
1789799211808888600,8.561888671875,0.4341820776462555,0.42594385147094727,-0.046776559203863144
1789799211818860800,8.57186083984375,0.5398719906806946,0.5021494030952454,-0.059361595660448074
1789799211828832500,8.58183251953125,0.6543551683425903,0.5977715253829956,-0.08059071749448776
1789799211838804700,8.5918046875,0.7759279608726501,0.6828640699386597,-0.10576238483190536
1789799211848776700,8.601776611328125,0.8887903094291687,0.7093052268028259,-0.10500498116016388
1789799211858748700,8.611748779296875,1.010703444480896,0.7057483196258545,-0.08996530622243881
1789799211868721000,8.621720947265626,1.142592191696167,0.7427346110343933,-0.08268742263317108
1789799211878692600,8.631692626953125,1.2736951112747192,0.8055918216705322,-0.07697547227144241
1789799211888664800,8.641664794921875,1.3903911113739014,0.8646777868270874,-0.07975661754608154
1789799211898636500,8.651636474609376,1.502319574356079,0.8838693499565125,-0.09492358565330505
1789799211908609500,8.661609619140625,1.617104411125183,0.9054374694824219,-0.1086343377828598
1789799211918581800,8.671581787109375,1.7337732315063477,0.9586080312728882,-0.12494699656963348
1789799211928553500,8.681553466796874,1.8576229810714722,1.0292552709579468,-0.12173601984977722
1789799211938525700,8.691525634765625,1.9817010164260864,1.0239092111587524,-0.11970269680023193
1789799211948497700,8.70149755859375,2.071329116821289,0.9396676421165466,-0.10686066746711731
1789799211958469600,8.7114697265625,2.1378283500671387,0.8613187670707703,-0.1004355251789093
1789799211968441600,8.721441650390625,2.2001662254333496,0.8269863724708557,-0.10402972996234894
1789799211978413600,8.73141357421875,2.2499966621398926,0.7920209169387817,-0.11200083792209625
1789799211988385800,8.7413857421875,2.285142421722412,0.7441588640213013,-0.11909789592027664
1789799211998357800,8.751357666015625,2.2880663871765137,0.719464123249054,-0.11410872638225555
1789799212008329700,8.761329833984375,2.284682512283325,0.7304840683937073,-0.1232558861374855
1789799212018301700,8.7713017578125,2.3033416271209717,0.7033331394195557,-0.1438269466161728
1789799212028274700,8.781274658203126,2.3182764053344727,0.58085036277771,-0.14675535261631012
1789799212038246700,8.79124658203125,2.321481943130493,0.4635929465293884,-0.11499103158712387
1789799212048218600,8.801218505859374,2.2728612422943115,0.4433092474937439,-0.099204882979393
1789799212058190600,8.811190673828126,2.1853528022766113,0.4078311622142792,-0.09291183203458786
1789799212068162600,8.82116259765625,2.0625479221343994,0.3133488595485687,-0.08622463047504425
1789799212078134800,8.831134765625,1.915376901626587,0.21174873411655426,-0.05836663767695427
1789799212088106800,8.841106689453126,1.7797048091888428,0.17044124007225037,-0.04109284281730652
1789799212098078700,8.85107861328125,1.6681830883026123,0.15792705118656158,-0.06390627473592758
1789799212108050700,8.86105078125,1.5617154836654663,0.11911813169717789,-0.10400629043579102
1789799212118022700,8.871022705078126,1.4312876462936401,0.08681638538837433,-0.11323068290948868
1789799212127995000,8.880994873046875,1.3137820959091187,0.04229898750782013,-0.12369877099990845
1789799212137966600,8.890966552734374,1.2145072221755981,-0.04697602987289429,-0.11549916863441467
1789799212147939600,8.900939697265626,1.1429978609085083,-0.168450266122818,-0.09057517349720001
1789799212157911800,8.910911865234375,1.0517704486846924,-0.1816616803407669,-0.04551022872328758
1789799212167883500,8.920883544921875,0.9654006958007812,-0.17633961141109467,-0.026324281468987465
1789799212177855700,8.930855712890626,0.8862770795822144,-0.16639482975006104,-0.013480122201144695
1789799212187827700,8.94082763671875,0.787222683429718,-0.14132437109947205,-0.008045942522585392
1789799212197799700,8.950799560546875,0.6903459429740906,-0.16777941584587097,-0.01733025349676609
1789799212207772000,8.96077197265625,0.6210622191429138,-0.23951831459999084,-0.03476570174098015
1789799212217743600,8.97074365234375,0.522041380405426,-0.10180492699146271,-0.02641003578901291
1789799212227715800,8.9807158203125,0.4312209188938141,-0.04644739255309105,-0.0441829077899456
1789799212237688800,8.990688720703124,0.3119752109050751,-0.004643487744033337,-0.05136625096201897
1789799212247660500,9.00066064453125,0.15936781466007233,0.009696835651993752,-0.02985084056854248
1789799212257632800,9.0106328125,-0.009131712839007378,0.01438453234732151,0.011568505316972733
1789799212267605800,9.020605712890625,-0.169402077794075,0.014171479269862175,0.047038350254297256
1789799212277577700,9.03057763671875,-0.3104449510574341,0.021072527393698692,0.060981862246990204
1789799212287549700,9.0405498046875,-0.42473265528678894,0.01691240444779396,0.04524683952331543
1789799212297521700,9.050521728515625,-0.5377579927444458,0.06047692522406578,0.013806626200675964
1789799212307493600,9.06049365234375,-0.6540473103523254,0.14912982285022736,-0.024861939251422882
1789799212317465900,9.0704658203125,-0.7665448188781738,0.23961712419986725,-0.06302051246166229
1789799212327437600,9.0804375,-0.8320958614349365,0.24793709814548492,-0.09145162254571915
1789799212337409800,9.090409912109376,-0.9188965559005737,0.23663704097270966,-0.09119302779436111
1789799212347381500,9.100381591796875,-0.9868109226226807,0.23688578605651855,-0.08014889806509018
1789799212357353700,9.110353759765625,-1.0626907348632812,0.2626683712005615,-0.06240984797477722
1789799212367325700,9.12032568359375,-1.1477049589157104,0.25688105821609497,-0.06299813836812973
1789799212377297700,9.130297607421875,-1.2444360256195068,0.27166426181793213,-0.09049634635448456
1789799212387269600,9.14026953125,-1.3493592739105225,0.2860599756240845,-0.13902047276496887
1789799212397243000,9.150242919921874,-1.404980182647705,0.28647783398628235,-0.21151171624660492
1789799212407214600,9.160214599609375,-1.3666157722473145,0.2873729169368744,-0.2925274670124054
1789799212417186800,9.170186767578125,-1.3411833047866821,0.349903404712677,-0.38592320680618286
1789799212427158500,9.180158447265624,-1.3257801532745361,0.3117741346359253,-0.48904532194137573
1789799212437130800,9.190130859375,-1.3046351671218872,0.20866639912128448,-0.561416745185852
1789799212447102700,9.200102783203125,-1.324964165687561,0.10092688351869583,-0.5638729333877563
1789799212457074700,9.21007470703125,-1.395948052406311,0.034630682319402695,-0.5105085372924805
1789799212467046700,9.220046630859375,-1.4740391969680786,0.17448312044143677,-0.5058115124702454
1789799212477018600,9.2300185546875,-1.534638524055481,0.48373523354530334,-0.6177226305007935
1789799212486990600,9.239990478515624,-1.6013894081115723,0.6532536745071411,-0.7457224130630493
1789799212496962800,9.249962890625,-1.6117117404937744,0.5873324871063232,-0.7945660948753357
1789799212506934500,9.2599345703125,-1.582737684249878,0.40306782722473145,-0.7965999245643616
1789799212516906800,9.26990673828125,-1.5652170181274414,0.1539703905582428,-0.7964260578155518
1789799212526879700,9.279879638671876,-1.5561527013778687,-0.08106528967618942,-0.7830684185028076
1789799212536851700,9.289851806640625,-1.5630955696105957,-0.22855834662914276,-0.7650558948516846
1789799212546823700,9.29982373046875,-1.6184378862380981,-0.3240121603012085,-0.756742537021637
1789799212556795600,9.309795654296876,-1.6639270782470703,-0.39955857396125793,-0.7826519012451172
1789799212566767600,9.319767578125,-1.7034456729888916,-0.4247736632823944,-0.8306100964546204
1789799212576739600,9.329739501953124,-1.750407338142395,-0.38279372453689575,-0.8649462461471558
1789799212586711600,9.339711669921876,-1.7578469514846802,-0.46470510959625244,-0.8941808342933655
1789799212596683800,9.349683837890625,-1.778055191040039,-0.5475038290023804,-0.8671444058418274
1789799212606655500,9.359655517578124,-1.8341249227523804,-0.5749008655548096,-0.7950111031532288
1789799212616627700,9.369627685546876,-1.8277239799499512,-0.674923300743103,-0.7667480111122131
1789799212626599400,9.379599365234375,-1.8306756019592285,-0.6050323843955994,-0.7115316390991211
1789799212636571600,9.389571533203124,-1.8151434659957886,-0.5755088329315186,-0.684258222579956
1789799212646543600,9.399543701171876,-1.758471965789795,-0.6851463913917542,-0.695458710193634
1789799212656516600,9.4095166015625,-1.741126537322998,-0.8113317489624023,-0.6865229606628418
1789799212666488600,9.419488525390625,-1.7166270017623901,-0.9566037058830261,-0.6516515612602234
1789799212676460800,9.429460693359376,-1.6551575660705566,-1.0929503440856934,-0.597959041595459
1789799212686432500,9.4394326171875,-1.5929386615753174,-1.098273515701294,-0.537361204624176
1789799212696404700,9.44940478515625,-1.4609036445617676,-1.1687860488891602,-0.5140249729156494
1789799212706376400,9.45937646484375,-1.3263037204742432,-1.1283557415008545,-0.4476968050003052
1789799212716348700,9.4693486328125,-1.1827372312545776,-1.0444036722183228,-0.3687865436077118
1789799212726320600,9.479320556640625,-1.0367296934127808,-0.8778279423713684,-0.309626042842865
1789799212736292600,9.489292724609374,-0.8815649151802063,-0.6545748710632324,-0.2611200213432312
1789799212746264600,9.4992646484375,-0.7406125664710999,-0.43929028511047363,-0.22141201794147491
1789799212756236500,9.509236572265625,-0.5736451745033264,-0.21625587344169617,-0.18521353602409363
1789799212766208800,9.519208740234374,-0.42685145139694214,-0.036488234996795654,-0.15898725390434265
1789799212776180700,9.5291806640625,-0.2942252457141876,0.07631314545869827,-0.10872568190097809
1789799212786153500,9.539153564453125,-0.1821972280740738,0.14985154569149017,-0.03959907591342926
1789799212796125700,9.549125732421874,-0.08026234805583954,0.25729304552078247,-0.006858438719063997
1789799212806097700,9.55909765625,0.04370353743433952,0.3977987766265869,0.007028880994766951
1789799212816069600,9.569069580078125,0.1799234300851822,0.5388221740722656,0.009844108484685421
1789799212826041600,9.57904150390625,0.3021364212036133,0.5989686250686646,0.020288759842514992
1789799212836013600,9.589013671875,0.42181888222694397,0.6566218137741089,0.033125463873147964
1789799212845985500,9.598985595703125,0.5449684858322144,0.7410221695899963,0.014734471216797829
1789799212855957800,9.608957763671874,0.6999743580818176,0.8436742424964905,0.002263953210785985
1789799212865929700,9.6189296875,0.8555556535720825,0.9284248352050781,0.004378503188490868
1789799212875901700,9.628901611328125,0.9719568490982056,0.9560737609863281,0.03158988431096077
1789799212885873700,9.638873779296874,1.0824202299118042,0.9649796485900879,0.052010469138622284
1789799212895845600,9.648845703125,1.2166409492492676,1.0264533758163452,0.04030108451843262
1789799212905817900,9.65881787109375,1.365464448928833,1.0876672267913818,0.022716764360666275
1789799212915789600,9.66878955078125,1.4926234483718872,1.0762525796890259,0.01565326191484928
1789799212925762600,9.678762451171876,1.5983877182006836,1.0626904964447021,0.005606752820312977
1789799212935734800,9.68873486328125,1.6917107105255127,1.0235854387283325,-0.01932176575064659
1789799212945706500,9.69870654296875,1.80009126663208,0.9283971190452576,-0.05349384993314743
1789799212955678700,9.7086787109375,1.9140501022338867,0.8263200521469116,-0.08305121213197708
1789799212965650400,9.718650390625,2.0380873680114746,0.7796971201896667,-0.12279170006513596
1789799212975622700,9.72862255859375,2.158128499984741,0.7901183366775513,-0.14801529049873352
1789799212985594600,9.7385947265625,2.255038022994995,0.7569153904914856,-0.15781919658184052
1789799212995566600,9.748566650390625,2.3001255989074707,0.667297899723053,-0.14922890067100525
1789799213005538800,9.758538818359375,2.322572708129883,0.6668150424957275,-0.16302034258842468
1789799213015510500,9.768510498046876,2.347240924835205,0.7313386797904968,-0.19999487698078156
1789799213025482800,9.778482666015625,2.3656005859375,0.7705481052398682,-0.22892452776432037
1789799213035454700,9.788454833984375,2.387493848800659,0.7620097398757935,-0.22777137160301208
1789799213045426700,9.7984267578125,2.4284095764160156,0.719609797000885,-0.21377034485340118
1789799213055399700,9.808399658203125,2.453514814376831,0.651313066482544,-0.20402637124061584
1789799213065371600,9.81837158203125,2.4340364933013916,0.5070549249649048,-0.21094313263893127
1789799213075343600,9.828343505859374,2.3849799633026123,0.3439653515815735,-0.20889168977737427
1789799213085315600,9.838315673828125,2.277029514312744,0.23241299390792847,-0.22444748878479004
1789799213095287600,9.84828759765625,2.1267335414886475,0.19952082633972168,-0.23060844838619232
1789799213105259800,9.858259765625,1.9509161710739136,0.14582085609436035,-0.2456369251012802
1789799213115231700,9.868231689453125,1.7738852500915527,0.07576080411672592,-0.26860108971595764
1789799213125203700,9.87820361328125,1.6064280271530151,0.024510668590664864,-0.2676545977592468
1789799213135175700,9.88817578125,1.4482477903366089,-0.031144337728619576,-0.2707683742046356
1789799213145147600,9.898147705078125,1.286095380783081,-0.15309634804725647,-0.28358882665634155
1789799213155119600,9.90811962890625,1.1713141202926636,-0.30045250058174133,-0.2973477840423584
1789799213165091800,9.918091796875,1.0706549882888794,-0.40859469771385193,-0.30146583914756775
1789799213175063600,9.9280634765625,0.9416967034339905,-0.3770500719547272,-0.2813456654548645
1789799213185035800,9.938035888671875,0.8279096484184265,-0.33221790194511414,-0.2620513141155243
1789799213195007500,9.948007568359374,0.7476198673248291,-0.30739909410476685,-0.264461487531662
1789799213204980700,9.957980712890626,0.6301699280738831,-0.15329208970069885,-0.25788480043411255
1789799213214952700,9.96795263671875,0.4995048940181732,0.008874718099832535,-0.26440396904945374
1789799213224924700,9.977924560546874,0.35694587230682373,0.06595584750175476,-0.294798880815506
1789799213234895600,9.9878955078125,0.22717297077178955,0.09350411593914032,-0.3152143955230713
1789799213244867800,9.997867919921875,0.13579031825065613,0.07505666464567184,-0.32586225867271423
1789799213254839600,10.007839599609374,0.025611354038119316,-0.025138376280665398,-0.3387748599052429
1789799213264811800,10.017811767578126,-0.09320557862520218,-0.09015732258558273,-0.33865901827812195
1789799213274783700,10.02778369140625,-0.21452881395816803,-0.14563550055027008,-0.3162543773651123
1789799213284755700,10.037755615234374,-0.3066568672657013,-0.15620265901088715,-0.27064961194992065
1789799213294727700,10.047727783203126,-0.39532095193862915,-0.11155475676059723,-0.2133658081293106
1789799213304699600,10.05769970703125,-0.4723470211029053,-0.03807627782225609,-0.15117967128753662
1789799213314671900,10.067671875,-0.5433658361434937,0.04019855335354805,-0.08851414918899536
1789799213324643800,10.077643798828126,-0.6087954044342041,0.11194224655628204,-0.02304673008620739
1789799213334615800,10.08761572265625,-0.6757369041442871,0.14368100464344025,0.03223783150315285
1789799213344588800,10.0975888671875,-0.7598578929901123,0.17422160506248474,0.08865956217050552
1789799213354560800,10.107560791015626,-0.8386586904525757,0.14810903370380402,0.13939304649829865
1789799213364532700,10.11753271484375,-0.8753690719604492,0.004466653801500797,0.14867176115512848
1789799213374504700,10.127504638671875,-0.950697660446167,-0.06914497911930084,0.1449023336172104
1789799213384476700,10.1374765625,-0.9827751517295837,-0.14724430441856384,0.10872674733400345
1789799213394448600,10.14744873046875,-1.0517866611480713,-0.14414359629154205,0.07219430059194565
1789799213404420900,10.1574208984375,-1.122636318206787,-0.12568388879299164,0.01734037511050701
1789799213414392800,10.167392822265626,-1.1833332777023315,-0.057550642639398575,-0.06058185547590256
1789799213424364800,10.17736474609375,-1.2176728248596191,0.06942674517631531,-0.16695623099803925
1789799213434336800,10.187336669921875,-1.2341746091842651,0.16177184879779816,-0.275185227394104
1789799213444308700,10.197308837890626,-1.2686766386032104,0.1803916096687317,-0.37512701749801636
1789799213454281000,10.207281005859375,-1.3303272724151611,0.13000886142253876,-0.4474155902862549
1789799213464252700,10.217252685546875,-1.396242380142212,0.013434582389891148,-0.4882146716117859
1789799213474225000,10.227224853515626,-1.4921499490737915,-0.212793231010437,-0.478418231010437
1789799213484196600,10.237196533203125,-1.6021995544433594,-0.4091443717479706,-0.4308243691921234
1789799213494169600,10.247169677734375,-1.6768321990966797,-0.37627163529396057,-0.4419254660606384
1789799213504141800,10.257141845703124,-1.720284342765808,-0.062136076390743256,-0.557013988494873
1789799213514113800,10.26711376953125,-1.7310086488723755,0.23637712001800537,-0.6810746788978577
1789799213524085800,10.277085693359375,-1.702656865119934,0.28531643748283386,-0.7018372416496277
1789799213534057700,10.2870576171875,-1.6650583744049072,0.03831516578793526,-0.6170022487640381
1789799213544029700,10.29702978515625,-1.630778193473816,-0.30320701003074646,-0.5411338210105896
1789799213554002000,10.307001953125,-1.6390749216079712,-0.48833557963371277,-0.5350386500358582
1789799213563973600,10.3169736328125,-1.6796884536743164,-0.558510959148407,-0.5775032639503479
1789799213573945900,10.32694580078125,-1.725212812423706,-0.6210845708847046,-0.6115837693214417
1789799213583917800,10.336917724609375,-1.773276686668396,-0.7018305659294128,-0.62321537733078
1789799213593889800,10.346889892578124,-1.8019105195999146,-0.7887979745864868,-0.6095706820487976
1789799213603861800,10.35686181640625,-1.823472499847412,-0.9115158915519714,-0.5772989988327026
1789799213613833700,10.366833740234375,-1.8614987134933472,-0.8796815276145935,-0.5039513111114502
1789799213623805700,10.3768056640625,-1.8529049158096313,-0.9192081689834595,-0.4632190465927124
1789799213633778000,10.38677783203125,-1.858980417251587,-0.9398058652877808,-0.44165757298469543
1789799213643749600,10.39674951171875,-1.8883247375488281,-0.9100173115730286,-0.4190632998943329
1789799213653723000,10.406722900390625,-1.877709150314331,-0.8891929984092712,-0.4118317663669586
1789799213663694800,10.41669482421875,-1.8234208822250366,-0.994410514831543,-0.4195820987224579
1789799213673666800,10.426666748046875,-1.7671610116958618,-1.0280693769454956,-0.4113907516002655
1789799213683638800,10.436638671875,-1.6760982275009155,-1.0245246887207031,-0.3852374255657196
1789799213693610800,10.44661083984375,-1.5743635892868042,-1.0803709030151367,-0.329581618309021
1789799213703582700,10.456582763671875,-1.4568138122558594,-1.0863614082336426,-0.23965120315551758
1789799213713555000,10.466554931640625,-1.250856876373291,-1.105830192565918,-0.20758861303329468
1789799213723526700,10.476526611328126,-1.0611969232559204,-0.8971995115280151,-0.1699858456850052
1789799213733499000,10.486498779296875,-0.9041623473167419,-0.6350160837173462,-0.11518091708421707
1789799213743470600,10.496470703125,-0.7279995679855347,-0.41532689332962036,-0.047506265342235565
1789799213753442800,10.50644287109375,-0.5435429215431213,-0.24024775624275208,0.0004511394945438951
1789799213763414800,10.516414794921875,-0.38430267572402954,-0.07252639532089233,0.05198144167661667
1789799213773386800,10.52638671875,-0.25564509630203247,0.05892457067966461,0.09656622260808945
1789799213783358700,10.536358642578126,-0.1743190735578537,0.15354055166244507,0.12378372997045517
1789799213793330700,10.54633056640625,-0.07090000808238983,0.21820583939552307,0.18967458605766296
1789799213803302700,10.556302734375,0.041963960975408554,0.288263738155365,0.2231939435005188
1789799213813276000,10.56627587890625,0.17518725991249084,0.363169401884079,0.2054399698972702
1789799213823247600,10.57624755859375,0.29368433356285095,0.4066987931728363,0.2004321664571762
1789799213833219800,10.5862197265625,0.4329991042613983,0.4679679870605469,0.2069912701845169
1789799213843191800,10.59619189453125,0.5799448490142822,0.5162889361381531,0.20231981575489044
1789799213853163800,10.606163818359375,0.731111466884613,0.5314553380012512,0.2335222065448761
1789799213863135700,10.6161357421875,0.8882217407226562,0.5524019002914429,0.2487240582704544
1789799213873107700,10.626107666015624,1.0558557510375977,0.6135361194610596,0.23533742129802704
1789799213883079700,10.63607958984375,1.2294645309448242,0.7006276249885559,0.2222391963005066
1789799213893052000,10.646052001953125,1.3649680614471436,0.693234384059906,0.2331285923719406
1789799213903023600,10.656023681640624,1.4793434143066406,0.6613925695419312,0.2621874213218689
1789799213912995800,10.665995849609375,1.5995904207229614,0.6845034956932068,0.27648964524269104
1789799213922967600,10.675967529296875,1.7184805870056152,0.768761396408081,0.27752482891082764
1789799213932939800,10.685939697265624,1.8270126581192017,0.8533734679222107,0.28862807154655457
1789799213942911700,10.695911865234375,1.9149768352508545,0.8973672986030579,0.2942793071269989
1789799213952883700,10.7058837890625,1.9923139810562134,0.9137063026428223,0.28905630111694336
1789799213962856000,10.71585595703125,2.088655710220337,0.899147093296051,0.2558799684047699
1789799213972829000,10.725828857421876,2.194162368774414,0.8773171901702881,0.2175682783126831
1789799213982800600,10.735800537109375,2.2864346504211426,0.8523519039154053,0.19891390204429626
1789799213992772900,10.74577294921875,2.3740172386169434,0.7684074640274048,0.1835554540157318
1789799214002744600,10.75574462890625,2.4554545879364014,0.6852201819419861,0.170073464512825
1789799214012716800,10.765716796875,2.5126991271972656,0.6856254935264587,0.1600208282470703
1789799214022688800,10.775688720703124,2.5160422325134277,0.6964579224586487,0.14829012751579285
1789799214032660700,10.78566064453125,2.5029263496398926,0.6028022766113281,0.14755190908908844
1789799214042632700,10.7956328125,2.4893171787261963,0.43546730279922485,0.14831116795539856
1789799214052604700,10.805604736328124,2.4527907371520996,0.27018940448760986,0.13140968978405
1789799214062577000,10.815576904296876,2.3809597492218018,0.20608125627040863,0.10961251705884933
1789799214072548900,10.825548828125,2.2940170764923096,0.1589750051498413,0.09065213799476624
1789799214082520800,10.835520751953124,2.170366048812866,0.09328973293304443,0.08855729550123215
1789799214092492800,10.845492919921876,2.052983522415161,0.018187260255217552,0.08855357021093369
1789799214102464800,10.85546484375,1.9254974126815796,-0.048234373331069946,0.06949865072965622
1789799214112436700,10.865436767578124,1.7876907587051392,-0.10813978314399719,0.05173882842063904
1789799214122409000,10.875408935546876,1.645351529121399,-0.1308211237192154,0.047743819653987885
1789799214132380700,10.885380615234375,1.5013182163238525,-0.10980985313653946,0.025709623470902443
1789799214142353700,10.895353759765625,1.3332351446151733,-0.14340563118457794,-0.010449711233377457
1789799214152326000,10.905325927734374,1.230900526046753,-0.31592386960983276,-0.03912316635251045
1789799214162297600,10.915297607421875,1.1219415664672852,-0.3878129720687866,-0.01411475334316492
1789799214172269800,10.925269775390625,1.030787706375122,-0.4739111065864563,0.005805424880236387
1789799214182241800,10.93524169921875,0.9347919225692749,-0.5046511888504028,0.01390170119702816
1789799214192213800,10.9452138671875,0.8671540021896362,-0.5203659534454346,-0.01173202320933342
1789799214202186000,10.95518603515625,0.7235345244407654,-0.45044252276420593,-0.047566186636686325
1789799214212157700,10.96515771484375,0.5852693319320679,-0.326069712638855,-0.060439907014369965
1789799214222130000,10.9751298828125,0.4538055658340454,-0.22982627153396606,-0.06892793625593185
1789799214232101600,10.9851015625,0.3041553795337677,-0.12357307225465775,-0.06360401213169098
1789799214242073900,10.995073974609374,0.14200960099697113,-0.021404890343546867,-0.040882717818021774
1789799214252045800,11.0050458984375,-0.031022630631923676,0.012144280597567558,-0.014446849934756756
1789799214262017800,11.015017822265625,-0.17245672643184662,-0.03682246431708336,0.014122743159532547
1789799214271989800,11.02498974609375,-0.29018548130989075,-0.07539702206850052,0.07438821345567703
1789799214281961700,11.034961669921875,-0.3955313563346863,-0.10755974799394608,0.133520245552063
1789799214291933700,11.04493359375,-0.4828372299671173,-0.09922032803297043,0.17163966596126556
1789799214301906000,11.054906005859374,-0.5475727915763855,-0.044622860848903656,0.1991027146577835
1789799214311877600,11.064877685546875,-0.6409839987754822,0.09031471610069275,0.2528325319290161
1789799214321849900,11.074849853515625,-0.7494902014732361,0.14405038952827454,0.3002636730670929
1789799214331822800,11.08482275390625,-0.861047625541687,0.0644969642162323,0.32437488436698914
1789799214341794800,11.094794921875,-0.9172693490982056,-0.07453229278326035,0.3007158935070038
1789799214351766800,11.104766845703125,-0.9525783658027649,-0.1622016876935959,0.26639094948768616
1789799214361738800,11.11473876953125,-1.0003392696380615,-0.23524607717990875,0.2364162653684616
1789799214371710700,11.124710693359376,-1.0678410530090332,-0.2278273105621338,0.21588462591171265
1789799214381683000,11.134682861328125,-1.0942343473434448,-0.30915358662605286,0.16257134079933167
1789799214391654700,11.144654541015624,-1.1207013130187988,-0.30351966619491577,0.10936138033866882
1789799214401627000,11.154626953125,-1.1657543182373047,-0.18345211446285248,0.044192228466272354
1789799214411598600,11.1645986328125,-1.22574782371521,-0.019061574712395668,-0.047752343118190765
1789799214421570800,11.17457080078125,-1.3102374076843262,0.14815084636211395,-0.13239026069641113
1789799214431542800,11.184542724609376,-1.4114385843276978,0.22548797726631165,-0.20274591445922852
1789799214441514800,11.1945146484375,-1.520784854888916,0.22538891434669495,-0.23709990084171295
1789799214451486700,11.20448681640625,-1.629956841468811,0.14671353995800018,-0.2634337544441223
1789799214461458700,11.214458740234376,-1.7111949920654297,-0.03777001425623894,-0.2704983353614807
1789799214471430700,11.2244306640625,-1.767824411392212,-0.21552802622318268,-0.2690485119819641
1789799214481403000,11.23440283203125,-1.7803785800933838,-0.24058598279953003,-0.3307102620601654
1789799214491374800,11.244374755859376,-1.7508126497268677,-0.08195611834526062,-0.4434756934642792
1789799214501346800,11.254346923828125,-1.7122581005096436,0.06965205073356628,-0.4962683618068695
1789799214511319800,11.26431982421875,-1.6756953001022339,0.05850192531943321,-0.47658997774124146
1789799214521291800,11.274291748046876,-1.6619515419006348,-0.0611879900097847,-0.4151039719581604
1789799214531263700,11.284263671875,-1.6741493940353394,-0.2027142345905304,-0.3794858157634735
1789799214541235700,11.294235595703125,-1.7280772924423218,-0.2876805067062378,-0.3943324089050293
1789799214551207700,11.304207763671876,-1.7895995378494263,-0.3117903769016266,-0.4324081540107727
1789799214561180000,11.314179931640625,-1.8369464874267578,-0.30412980914115906,-0.45528656244277954
1789799214571151600,11.324151611328125,-1.8719407320022583,-0.30419692397117615,-0.45758965611457825
1789799214581123800,11.334123779296876,-1.867793083190918,-0.44310951232910156,-0.45383432507514954
1789799214591095800,11.344095703125,-1.904188632965088,-0.5399764180183411,-0.40808922052383423
1789799214601067800,11.35406787109375,-1.9597182273864746,-0.5957653522491455,-0.34559309482574463
1789799214611040000,11.3640400390625,-1.976040005683899,-0.693901538848877,-0.310371994972229
1789799214621011700,11.37401171875,-1.970363974571228,-0.735291063785553,-0.29422497749328613
1789799214630984000,11.38398388671875,-1.9349335432052612,-0.7991296648979187,-0.29642048478126526
1789799214640955600,11.39395556640625,-1.9238499402999878,-0.8039281368255615,-0.29457783699035645
1789799214650927900,11.403927978515625,-1.9053891897201538,-0.7750017046928406,-0.26560530066490173
1789799214660899800,11.41389990234375,-1.7631421089172363,-0.937039852142334,-0.26203322410583496
1789799214670871800,11.423871826171874,-1.6423487663269043,-1.0632822513580322,-0.23699523508548737
1789799214680843800,11.43384375,-1.5103998184204102,-1.141524314880371,-0.2063441127538681
1789799214690815700,11.443815673828125,-1.3602542877197266,-1.1617803573608398,-0.17878812551498413
1789799214700787700,11.45378759765625,-1.179544448852539,-1.0996387004852295,-0.14557796716690063
1789799214710760700,11.4637607421875,-0.9934954047203064,-0.9755382537841797,-0.08026687800884247
1789799214720732700,11.473732666015625,-0.8211473822593689,-0.8310370445251465,0.010135725140571594
1789799214730705000,11.483704833984374,-0.6525660753250122,-0.6872103214263916,0.09394833445549011
1789799214740676900,11.4936767578125,-0.47860121726989746,-0.462767630815506,0.1201583668589592
1789799214750648800,11.50364892578125,-0.3297398090362549,-0.21165844798088074,0.10478127002716064
1789799214760620800,11.513620849609374,-0.19789470732212067,-0.015354988165199757,0.12307292968034744
1789799214770592800,11.5235927734375,-0.07701276242733002,0.14380456507205963,0.1378617286682129
1789799214780564700,11.533564697265625,0.03572044521570206,0.29548224806785583,0.11148817837238312
1789799214790537000,11.543536865234374,0.1589566320180893,0.3980403244495392,0.10759410262107849
1789799214800508700,11.5535087890625,0.3159867227077484,0.5387564301490784,0.1301867663860321
1789799214810481000,11.56348095703125,0.4718197286128998,0.6547756791114807,0.12779870629310608
1789799214820452600,11.57345263671875,0.6181551218032837,0.7511171698570251,0.12430170923471451
1789799214830424800,11.5834248046875,0.7450762987136841,0.8183315992355347,0.11215662956237793
1789799214840396800,11.593396728515625,0.8875277042388916,0.878532886505127,0.0889626294374466
1789799214850368800,11.60336865234375,1.0374772548675537,0.9353011250495911,0.07719651609659195
1789799214860340700,11.6133408203125,1.1897062063217163,0.9467766880989075,0.07819440215826035
1789799214870312700,11.623312744140625,1.3501073122024536,0.9298538565635681,0.06976976245641708
1789799214880284700,11.63328466796875,1.5137585401535034,0.9181402325630188,0.060446564108133316
1789799214890257000,11.6432568359375,1.6686166524887085,0.9258378148078918,0.05060964822769165
1789799214900228900,11.653228759765625,1.8109241724014282,0.9154536128044128,0.03695908188819885
1789799214910200800,11.663200927734374,1.9253112077713013,0.8764519095420837,0.024213727563619614
1789799214920173800,11.673173828125,2.007996082305908,0.8393428921699524,0.0006490123341791332
1789799214930145800,11.683145751953125,2.0922422409057617,0.7523999810218811,-0.009492038749158382
1789799214940117800,11.69311767578125,2.1932551860809326,0.6980776190757751,-0.022946061566472054
1789799214950089700,11.70308984375,2.3023369312286377,0.6924445033073425,-0.034757182002067566
1789799214960061700,11.713061767578125,2.3936197757720947,0.648472249507904,-0.05126664787530899
1789799214970034000,11.723033935546875,2.4398460388183594,0.5327123999595642,-0.055577509105205536
1789799214980005600,11.733005615234376,2.4578468799591064,0.47293373942375183,-0.032099612057209015
1789799214989977900,11.742977783203125,2.469970226287842,0.49977999925613403,-0.008987103588879108
1789799214999949600,11.752949462890625,2.4799859523773193,0.5479869246482849,0.0011954930378124118
1789799215009921800,11.762921875,2.498173713684082,0.546025812625885,0.015086008235812187
1789799215019893800,11.772893798828125,2.4949676990509033,0.5044365525245667,0.030181869864463806
1789799215029865700,11.78286572265625,2.4751217365264893,0.4020228087902069,0.04408783093094826
1789799215039838000,11.792837890625,2.4142186641693115,0.2728235423564911,0.05077529698610306
1789799215049809700,11.8028095703125,2.326707124710083,0.12115439027547836,0.052982792258262634
1789799215059782000,11.812781982421875,2.2200818061828613,0.04434802383184433,0.0714092031121254
1789799215069753900,11.82275390625,2.082218885421753,-0.07308299839496613,0.07587878406047821
1789799215079725800,11.832725830078125,1.9319087266921997,-0.15640318393707275,0.07894647866487503
1789799215089697800,11.84269775390625,1.785283088684082,-0.26265984773635864,0.06637343019247055
1789799215099669800,11.852669677734376,1.6503838300704956,-0.3592947721481323,0.06682723015546799
1789799215109641700,11.862641845703125,1.4898521900177002,-0.4739033877849579,0.07013460993766785
1789799215119614000,11.872614013671875,1.3723543882369995,-0.6077203154563904,0.09057650715112686
1789799215129585700,11.882585693359376,1.262129306793213,-0.6663923859596252,0.12828633189201355
1789799215139559000,11.892558837890626,1.1419432163238525,-0.674837052822113,0.15970709919929504
1789799215149531000,11.90253076171875,1.024610996246338,-0.6722683906555176,0.16405364871025085
1789799215159502800,11.9125029296875,0.9053282737731934,-0.6089368462562561,0.1573198437690735
1789799215169474800,11.922474853515626,0.7943354845046997,-0.6487265825271606,0.12310408800840378
1789799215179446800,11.93244677734375,0.644741415977478,-0.4461345970630646,0.1120237410068512
1789799215189418800,11.942418701171874,0.5023025274276733,-0.261663019657135,0.05227625370025635
1789799215199391000,11.952390869140626,0.3654858469963074,-0.16721855103969574,-0.056890182197093964
1789799215209362700,11.96236279296875,0.18773607909679413,-0.13380253314971924,-0.1465042233467102
1789799215219335000,11.9723349609375,0.01978915184736252,-0.09387882798910141,-0.17272090911865234
1789799215229306600,11.982306640625,-0.15113918483257294,-0.06747651100158691,-0.12457548081874847
1789799215239279000,11.992279052734375,-0.28813618421554565,-0.03531032055616379,-0.033589918166399
1789799215249250800,12.002250732421874,-0.3917856216430664,-0.07371629774570465,0.030592530965805054
1789799215259223000,12.01222314453125,-0.4817306697368622,-0.14566825330257416,0.05296068638563156
1789799215269195000,12.022195068359375,-0.5611874461174011,-0.1380196511745453,0.05853734537959099
1789799215279167000,12.0321669921875,-0.6284934878349304,-0.04358556121587753,0.058760784566402435
1789799215289139000,12.042138916015626,-0.6846555471420288,0.08996983617544174,0.06506209075450897
1789799215299111000,12.05211083984375,-0.7321655750274658,0.1542675942182541,0.08477800339460373
1789799215309083000,12.062082763671874,-0.7873835563659668,0.15407584607601166,0.12023080140352249
1789799215319055000,12.07205517578125,-0.8549652695655823,0.18014739453792572,0.16955095529556274
1789799215329026800,12.08202685546875,-0.9364172220230103,0.19718657433986664,0.2036314159631729
1789799215338999000,12.0919990234375,-1.0235427618026733,0.17444157600402832,0.20933644473552704
1789799215348971000,12.101970947265626,-1.0965852737426758,0.10898879915475845,0.19846701622009277
1789799215358943000,12.11194287109375,-1.1777294874191284,-0.0046272422187030315,0.17807678878307343
1789799215368915200,12.121915283203125,-1.2565603256225586,-0.07949482649564743,0.15075676143169403
1789799215378888000,12.131887939453126,-1.3335204124450684,-0.060804493725299835,0.11290577799081802
1789799215388860000,12.14185986328125,-1.3992629051208496,0.01954813487827778,0.05204882100224495
1789799215398832000,12.15183203125,-1.4575104713439941,0.07323905825614929,-0.03351055458188057
1789799215408803800,12.161803955078126,-1.524533987045288,0.0309296865016222,-0.11534576863050461
1789799215418776000,12.171776123046875,-1.6301767826080322,-0.11345971375703812,-0.15811613202095032
1789799215428747800,12.181747802734375,-1.7289772033691406,-0.331707626581192,-0.19314922392368317
1789799215438720000,12.191719970703126,-1.8173874616622925,-0.45141884684562683,-0.2339096963405609
1789799215448692000,12.20169189453125,-1.8675174713134766,-0.38783374428749084,-0.32753604650497437
1789799215458664000,12.211663818359375,-1.8749159574508667,-0.17406128346920013,-0.43351230025291443
1789799215468636200,12.22163623046875,-1.8780492544174194,0.041029192507267,-0.5078619122505188
1789799215478608000,12.23160791015625,-1.8722659349441528,0.11190709471702576,-0.5339909791946411
1789799215488580000,12.241580078125,-1.8327640295028687,0.011237474158406258,-0.4731893837451935
1789799215498552000,12.251552001953126,-1.7821775674819946,-0.1363663673400879,-0.3681551218032837
1789799215508524000,12.26152392578125,-1.789250373840332,-0.2640042304992676,-0.30744490027427673
1789799215518496000,12.27149609375,-1.8170340061187744,-0.31699445843696594,-0.30955013632774353
1789799215528468000,12.281468017578124,-1.8559987545013428,-0.34051018953323364,-0.34494248032569885
1789799215538440000,12.29143994140625,-1.9188405275344849,-0.4039067327976227,-0.3480040431022644
1789799215548412200,12.301412109375,-1.9357324838638306,-0.5563982725143433,-0.3334274888038635
1789799215558383900,12.3113837890625,-1.9883184432983398,-0.6923169493675232,-0.28211450576782227
1789799215568356000,12.321356201171875,-2.029184579849243,-0.6789356470108032,-0.20995749533176422
1789799215578327800,12.331327880859375,-2.0184824466705322,-0.7246711850166321,-0.18368221819400787
1789799215588300000,12.341300048828124,-1.9832022190093994,-0.7077169418334961,-0.16635915637016296
1789799215598272000,12.35127197265625,-1.9086179733276367,-0.6854143142700195,-0.13919463753700256
1789799215608244000,12.361243896484375,-1.8437210321426392,-0.7442262172698975,-0.08582835644483566
1789799215618216000,12.3712158203125,-1.7765103578567505,-0.8165236115455627,-0.022721556946635246
1789799215628188000,12.38118798828125,-1.679215431213379,-0.9934467077255249,0.00026072346372529864
