time,seconds_elapsed,z,y,x
1789799203301435000,0.054434814453125,0.03262331709265709,0.4540528953075409,-0.06662724912166595
1789799203311406800,0.06440673828125,-0.029983608052134514,0.5324461460113525,-0.04415496066212654
1789799203321378800,0.07437890625,-0.14283159375190735,0.5696694254875183,-0.012839380651712418
1789799203331351800,0.084351806640625,-0.13278348743915558,0.8958732485771179,-0.2905071973800659
1789799203341323800,0.09432373046875,0.13380850851535797,1.4018720388412476,-0.6506059765815735
1789799203351295700,0.104295654296875,0.47946685552597046,1.924088954925537,-0.96099454164505
1789799203361267700,0.114267822265625,0.6792571544647217,2.238762617111206,-1.1763049364089966
1789799203371239700,0.12423974609375,0.7578945159912109,2.3681108951568604,-1.3653573989868164
1789799203381211600,0.134211669921875,0.726144552230835,2.476633071899414,-1.4839856624603271
1789799203391184000,0.144183837890625,0.6647080779075623,2.3808434009552,-1.530777096748352
1789799203401156600,0.154156494140625,0.5738884210586548,2.1687986850738525,-1.4978958368301392
1789799203411128800,0.16412890625,0.44103795289993286,1.9203660488128662,-1.410448431968689
1789799203421100800,0.174100830078125,0.26168444752693176,1.6252707242965698,-1.2561174631118774
1789799203431072800,0.18407275390625,0.05840751528739929,1.41525399684906,-1.0319204330444336
1789799203441044700,0.194044677734375,-0.10441628843545914,1.248282551765442,-0.7642771005630493
1789799203451016700,0.2040166015625,-0.22928152978420258,1.1421639919281006,-0.5072882175445557
1789799203460988700,0.21398876953125,-0.3435644209384918,1.1136397123336792,-0.29720747470855713
1789799203470961000,0.2239609375,-0.45110419392585754,1.0244537591934204,-0.1432712823152542
1789799203480933600,0.23393359375,-0.5828135013580322,0.8496304750442505,-0.04382326081395149
1789799203490905900,0.24390576171875,-0.7677069306373596,0.6697726249694824,0.013076241128146648
1789799203500877800,0.2538779296875,-0.9788892269134521,0.5308621525764465,0.06178252771496773
1789799203510849800,0.263849853515625,-1.1795631647109985,0.402052104473114,0.11032716184854507
1789799203520821800,0.27382177734375,-1.350534439086914,0.18817472457885742,0.172169491648674
1789799203530793700,0.283793701171875,-1.4749513864517212,-0.1618577092885971,0.23297119140625
1789799203540765700,0.293765625,-1.5278077125549316,-0.6388293504714966,0.27664515376091003
1789799203550738000,0.303738037109375,-1.4674040079116821,-1.2547221183776855,0.2610577940940857
1789799203560710700,0.313710693359375,-1.2899794578552246,-2.0148112773895264,0.1686336100101471
1789799203570683000,0.323682861328125,-1.2185572385787964,-2.8898251056671143,0.020047597587108612
1789799203580654800,0.33365478515625,-1.308924674987793,-2.988356828689575,-0.31586650013923645
1789799203590626800,0.343626708984375,-1.3651517629623413,-2.7192418575286865,-0.3997073471546173
1789799203600598800,0.353598876953125,-1.1574320793151855,-2.382307529449463,-0.4493601322174072
1789799203610570800,0.36357080078125,-0.9422798156738281,-1.8970855474472046,-0.49843829870224
1789799203620542700,0.373542724609375,-0.8927702903747559,-1.2308050394058228,-0.4858165383338928
1789799203630515000,0.383514892578125,-0.937446653842926,-0.5326159596443176,-0.3573324382305145
1789799203640487700,0.39348779296875,-1.0035881996154785,0.0001824576174840331,-0.10155260562896729
1789799203650459600,0.403459716796875,-1.034879446029663,0.23478905856609344,0.16378743946552277
1789799203660432000,0.413431884765625,-0.973080039024353,-0.04620160162448883,0.24926665425300598
1789799203670403800,0.42340380859375,-0.8721294403076172,-0.7739574909210205,0.10659953206777573
1789799203680375800,0.433375732421875,-0.8083363175392151,-1.4118647575378418,0.0010456715244799852
1789799203690347800,0.44334765625,-0.7330618500709534,-1.9047757387161255,-0.0349099338054657
1789799203700319700,0.45331982421875,-0.5342259407043457,-2.4222021102905273,-0.04820869490504265
1789799203710292000,0.4632919921875,-0.20546701550483704,-2.8869714736938477,-0.007610534783452749
1789799203720264700,0.4732646484375,0.08878352493047714,-2.9102542400360107,0.022670404985547066
1789799203730236700,0.483236572265625,0.2569650709629059,-2.2944631576538086,0.03378444164991379
1789799203740209000,0.493208984375,0.35926321148872375,-1.5660314559936523,0.07241572439670563
1789799203750180600,0.5031806640625,0.4317416846752167,-0.8477105498313904,-0.023686036467552185
1789799203760152800,0.51315283203125,0.47966206073760986,-0.5874794721603394,-0.07121999561786652
1789799203770124800,0.523124755859375,0.43185484409332275,-0.4016757607460022,-0.013655776157975197
1789799203780096800,0.5330966796875,0.33642953634262085,-0.3385460674762726,0.10511428862810135
1789799203790069000,0.543069091796875,0.2769912779331207,-0.4660359025001526,0.2898457944393158
1789799203800041700,0.553041748046875,0.2131078690290451,-0.7661944031715393,0.4992741048336029
1789799203810013700,0.563013671875,0.14118574559688568,-1.0789189338684082,0.677518367767334
1789799203819986000,0.57298583984375,0.08604153990745544,-1.2950563430786133,0.8386995196342468
1789799203829957600,0.58295751953125,0.07517769932746887,-1.289442777633667,0.9855366945266724
1789799203839929900,0.592929931640625,0.08179458975791931,-1.0813125371932983,1.0132691860198975
1789799203849901600,0.602901611328125,0.09666222333908081,-0.777153730392456,0.9070882201194763
1789799203859873800,0.612873779296875,0.16534754633903503,-0.4208667576313019,0.7442119717597961
1789799203869845800,0.622845703125,0.252026230096817,-0.17232933640480042,0.584782600402832
1789799203879818800,0.63281884765625,0.30524206161499023,-0.1121099442243576,0.4503273367881775
1789799203889790700,0.642790771484375,0.3271750807762146,-0.17924223840236664,0.3418290913105011
1789799203899763000,0.652762939453125,0.3311961889266968,-0.27432242035865784,0.29499900341033936
1789799203909734700,0.662734619140625,0.32374945282936096,-0.4492049217224121,0.3102811574935913
1789799203919707000,0.672706787109375,0.3044612407684326,-0.7130123972892761,0.34591132402420044
1789799203929678600,0.6826787109375,0.27530306577682495,-0.9934030771255493,0.3927249014377594
1789799203939650800,0.69265087890625,0.2725386917591095,-1.1888892650604248,0.4324776232242584
1789799203949622800,0.702622802734375,0.29790744185447693,-1.2427715063095093,0.4414695203304291
1789799203959595800,0.712595703125,0.3300403654575348,-1.0954086780548096,0.40898534655570984
1789799203969567700,0.722567626953125,0.32037466764450073,-0.7845374345779419,0.3384375274181366
1789799203979539700,0.732539794921875,0.25417354702949524,-0.4928072690963745,0.23751360177993774
1789799203989511700,0.74251171875,0.17671923339366913,-0.34711191058158875,0.13765119016170502
1789799203999484000,0.75248388671875,0.09511545300483704,-0.34552574157714844,0.0611092783510685
1789799204009455600,0.76245556640625,0.02329106628894806,-0.35485702753067017,0.025607610121369362
1789799204019427800,0.772427734375,-0.014293062500655651,-0.30629536509513855,0.043563444167375565
1789799204029399600,0.782399658203125,-0.007952069863677025,-0.2752612829208374,0.10999918729066849
1789799204039372800,0.792372802734375,0.020584765821695328,-0.31704628467559814,0.1919073611497879
1789799204049344800,0.8023447265625,0.04571089148521423,-0.4055383503437042,0.2570778429508209
1789799204059316700,0.812316650390625,0.057481799274683,-0.4939363896846771,0.2974090278148651
1789799204069288700,0.822288818359375,0.038204509764909744,-0.5488610863685608,0.31459054350852966
1789799204079261000,0.832260986328125,-0.004724848549813032,-0.5125427842140198,0.291558176279068
1789799204089232600,0.842232666015625,-0.03668464347720146,-0.32411205768585205,0.20562677085399628
1789799204099204900,0.852204833984375,-0.04714128002524376,-0.022548753768205643,0.08851052820682526
1789799204109176600,0.862176513671875,-0.035576239228248596,0.3557632267475128,-0.00414483156055212
1789799204119148800,0.872148681640625,-0.002643855521455407,0.6757414937019348,-0.028803572058677673
1789799204129121800,0.882121826171875,0.035195667296648026,0.850740373134613,0.0026393067091703415
1789799204139093800,0.89209375,0.056374453008174896,0.849092960357666,0.07999961078166962
1789799204149065700,0.902065673828125,0.030087189748883247,0.7189469337463379,0.1613646298646927
1789799204159038000,0.912037841796875,-0.06158360838890076,0.508174479007721,0.22103409469127655
1789799204169009700,0.922009765625,-0.14127391576766968,0.2744976580142975,0.24628351628780365
1789799204178982000,0.93198193359375,-0.18051505088806152,0.17594709992408752,0.23203906416893005
1789799204188953600,0.94195361328125,-0.18682807683944702,0.23744405806064606,0.19901028275489807
1789799204198925800,0.95192578125,-0.16416297852993011,0.35244283080101013,0.16556097567081451
1789799204208898800,0.96189892578125,-0.10359496623277664,0.4428251385688782,0.1508024036884308
1789799204218870500,0.97187060546875,-0.025221867486834526,0.4719223082065582,0.15574654936790466
1789799204228842800,0.9818427734375,0.031269367784261703,0.4669414162635803,0.15644778311252594
1789799204238814700,0.991814697265625,0.03027999959886074,0.40782323479652405,0.14088505506515503
1789799204248786700,1.00178662109375,-0.014782543294131756,0.3076852858066559,0.09549334645271301
1789799204258758700,1.011758544921875,-0.052936851978302,0.19368813931941986,0.03591416776180267
1789799204268730600,1.021730712890625,-0.04293614998459816,0.08255036920309067,-0.003563463222235441
1789799204278702800,1.031702880859375,-0.004000203683972359,0.05638134852051735,-0.024609891697764397
1789799204288674600,1.041674560546875,0.03011276014149189,0.09233591705560684,-0.06766442209482193
1789799204298647600,1.0516474609375,0.04070867970585823,0.10006467998027802,-0.1432609260082245
1789799204308619800,1.061619873046875,0.055776577442884445,0.12621141970157623,-0.20323050022125244
1789799204318591500,1.071591552734375,0.09656368941068649,0.13930563628673553,-0.2314986288547516
1789799204328563700,1.081563720703125,0.145138680934906,0.13381530344486237,-0.22598855197429657
1789799204338535400,1.091535400390625,0.17507635056972504,0.09759018570184708,-0.19538936018943787
1789799204348507600,1.101507568359375,0.18340590596199036,0.035122308880090714,-0.14574284851551056
1789799204358479600,1.111479736328125,0.20723961293697357,-0.018919888883829117,-0.06429778784513474
1789799204368451600,1.12145166015625,0.24558885395526886,-0.0869203507900238,0.031155366450548172
1789799204378424600,1.131424560546875,0.27602052688598633,-0.12042585015296936,0.110877625644207
1789799204388396800,1.141396728515625,0.2977340817451477,-0.12177415937185287,0.14795681834220886
1789799204398368500,1.151368408203125,0.30780962109565735,-0.07256799936294556,0.13914601504802704
1789799204408340700,1.1613408203125,0.3300430178642273,-0.0031815888360142708,0.09612917900085449
1789799204418312400,1.1713125,0.3483967185020447,0.03666489198803902,0.03986723721027374
1789799204428284700,1.18128466796875,0.3607649803161621,0.0266104768961668,0.0071004945784807205
1789799204438256600,1.191256591796875,0.35452890396118164,-0.013226949609816074,0.006395289674401283
1789799204448228600,1.201228515625,0.336270809173584,-0.050368089228868484,0.03767385333776474
1789799204458200600,1.21120068359375,0.3153729736804962,-0.06291983276605606,0.10248320549726486
1789799204468173800,1.221173828125,0.28673097491264343,-0.08902204781770706,0.16762012243270874
1789799204478145500,1.2311455078125,0.25064727663993835,-0.1528785228729248,0.19808880984783173
1789799204488117800,1.24111767578125,0.23096595704555511,-0.20679818093776703,0.20284058153629303
1789799204498089500,1.25108935546875,0.23317985236644745,-0.26644980907440186,0.18703392148017883
1789799204508061700,1.261061767578125,0.21856123208999634,-0.3209676742553711,0.14181622862815857
1789799204518033700,1.27103369140625,0.18598385155200958,-0.3687690198421478,0.07959413528442383
1789799204528005600,1.281005615234375,0.1475011706352234,-0.35246285796165466,0.025756346061825752
1789799204537977600,1.2909775390625,0.13224178552627563,-0.25266194343566895,-0.008515872992575169
1789799204547950800,1.300950927734375,0.16432197391986847,-0.1266082227230072,-0.014082950539886951
1789799204557922600,1.310922607421875,0.21893328428268433,-0.026278426870703697,0.017779640853405
1789799204567894800,1.320894775390625,0.2363804429769516,-0.039428457617759705,0.08767922222614288
1789799204577866500,1.330866455078125,0.21980039775371552,-0.1434592455625534,0.17319466173648834
1789799204587838700,1.340838623046875,0.20847903192043304,-0.2869458496570587,0.23934544622898102
1789799204597810700,1.350810791015625,0.21549460291862488,-0.4008215367794037,0.27800124883651733
1789799204607782700,1.36078271484375,0.2548915445804596,-0.36858221888542175,0.2985094487667084
1789799204617754600,1.370754638671875,0.33505481481552124,-0.24125249683856964,0.32265740633010864
1789799204627726600,1.3807265625,0.43223145604133606,-0.11993290483951569,0.3770582973957062
1789799204637699600,1.390699462890625,0.5247259736061096,-0.12952642142772675,0.4952664375305176
1789799204647671800,1.400671875,0.5638006329536438,-0.2859402894973755,0.6580225825309753
1789799204657643500,1.4106435546875,0.5814384818077087,-0.5130389332771301,0.7956723570823669
1789799204667615700,1.42061572265625,0.5568029284477234,-0.7341019511222839,0.8441569209098816
1789799204677587500,1.43058740234375,0.5009297728538513,-0.8562681078910828,0.7814871072769165
1789799204687559700,1.4405595703125,0.46662721037864685,-0.8582624197006226,0.6653954386711121
1789799204697531600,1.45053173828125,0.46829596161842346,-0.764307975769043,0.5734482407569885
1789799204707503600,1.460503662109375,0.49158984422683716,-0.6854907870292664,0.4771070182323456
1789799204717475600,1.4704755859375,0.5156760215759277,-0.6848188638687134,0.3780355453491211
1789799204727448600,1.480448486328125,0.5618168115615845,-0.6874223351478577,0.31077834963798523
1789799204737420500,1.490420654296875,0.6282193064689636,-0.6626690626144409,0.2616627514362335
1789799204747392800,1.500392822265625,0.6868714690208435,-0.6741795539855957,0.20719030499458313
1789799204757364500,1.510364501953125,0.7621843218803406,-0.7624691724777222,0.15077124536037445
1789799204767336700,1.520336669921875,0.8533688187599182,-0.9173244833946228,0.09408599138259888
1789799204777308700,1.53030859375,0.9816982746124268,-1.135919451713562,0.03928159549832344
1789799204787280600,1.54028076171875,1.1799346208572388,-1.400431513786316,0.01322031021118164
1789799204797252600,1.550252685546875,1.4580525159835815,-1.7147510051727295,0.06187652796506882
1789799204807224600,1.560224609375,2.042426586151123,-2.1432533264160156,0.2758893370628357
1789799204817197600,1.570197509765625,2.2654762268066406,-2.6387975215911865,0.5693454742431641
1789799204827169500,1.58016943359375,1.8858428001403809,-3.1274447441101074,0.7366713285446167
1789799204837141500,1.5901416015625,1.8172965049743652,-3.627220392227173,0.8617501258850098
1789799204847113700,1.60011376953125,2.259403944015503,-4.110727787017822,1.0681806802749634
1789799204857085700,1.610085693359375,2.7501516342163086,-4.440965175628662,1.3613526821136475
1789799204867057700,1.6200576171875,3.2887868881225586,-4.534305572509766,1.6731511354446411
1789799204877029600,1.630029541015625,3.8852169513702393,-4.4599761962890625,1.8631693124771118
1789799204887001600,1.640001708984375,4.408829689025879,-4.413600921630859,1.8984471559524536
1789799204896973600,1.6499736328125,4.8695783615112305,-4.424365520477295,1.809722661972046
1789799204906946600,1.659946533203125,5.270522594451904,-4.486180305480957,1.6017844676971436
1789799204916918500,1.66991845703125,5.578989505767822,-4.56173849105835,1.4305447340011597
1789799204926890500,1.679890380859375,5.7146782875061035,-4.600276947021484,1.3835737705230713
1789799204936862700,1.68986279296875,5.7076334953308105,-4.607746601104736,1.381386160850525
1789799204946834700,1.699834716796875,5.616160869598389,-4.493144989013672,1.372972846031189
1789799204956806700,1.709806640625,5.5432658195495605,-4.168280124664307,1.3057423830032349
1789799204966778600,1.719778564453125,5.499960899353027,-3.608842372894287,1.1133434772491455
1789799204976750600,1.72975048828125,5.495014190673828,-2.923301935195923,0.7790262699127197
1789799204986722800,1.739722900390625,5.557318210601807,-2.0842678546905518,0.386892706155777
1789799204996695600,1.749695556640625,5.62056827545166,-1.2306921482086182,0.03692244365811348
1789799205006667500,1.75966748046875,5.540189743041992,-0.5961673259735107,-0.297664612531662
1789799205016639700,1.7696396484375,5.344343662261963,-0.17002348601818085,-0.5842937231063843
1789799205026611500,1.779611572265625,4.930359840393066,-0.027614086866378784,-0.7403479814529419
1789799205036583700,1.789583740234375,4.4560546875,-0.24512137472629547,-0.8141122460365295
1789799205046555400,1.799555419921875,4.24891471862793,-1.0061171054840088,-0.954851508140564
1789799205056527600,1.809527587890625,4.230130672454834,-1.8004776239395142,-1.0256513357162476
1789799205066499600,1.81949951171875,4.373933792114258,-2.1485702991485596,-0.9750635027885437
1789799205076471600,1.829471435546875,4.560303688049316,-1.9826116561889648,-0.9571758508682251
1789799205086443800,1.83944384765625,4.660914421081543,-1.3026100397109985,-0.9636809825897217
1789799205096416800,1.849416748046875,4.612460613250732,-0.460664838552475,-0.9660796523094177
1789799205106388500,1.859388427734375,4.349775791168213,0.2009063959121704,-0.9745870232582092
1789799205116360700,1.869360595703125,3.9440865516662598,0.5885273814201355,-0.9239174127578735
1789799205126332400,1.87933251953125,3.5190587043762207,0.6511195302009583,-0.8675713539123535
1789799205136304600,1.8893046875,3.2720115184783936,0.5647354125976562,-0.9624698758125305
1789799205146276600,1.899276611328125,3.0433976650238037,0.8584943413734436,-1.0123331546783447
1789799205156248600,1.90924853515625,2.791783332824707,0.8538346290588379,-1.111398458480835
1789799205166220500,1.919220458984375,2.447984457015991,0.6981268525123596,-1.2399892807006836
1789799205176192500,1.929192626953125,2.0509188175201416,0.29982444643974304,-1.3176885843276978
1789799205186165500,1.93916552734375,1.72234046459198,-0.006202105898410082,-1.2749669551849365
1789799205196137700,1.9491376953125,1.5536874532699585,-0.09549470245838165,-1.1199840307235718
1789799205206109400,1.959109375,1.4434245824813843,0.1686161458492279,-0.8671582937240601
1789799205216081700,1.96908154296875,1.2660775184631348,0.5337158441543579,-0.5962794423103333
1789799205226053600,1.9790537109375,1.0296447277069092,0.6414517760276794,-0.3777881860733032
1789799205236025900,1.98902587890625,0.8586482405662537,0.7931568622589111,-0.1763424277305603
1789799205245997800,1.998997802734375,0.7238584756851196,1.0264099836349487,-0.049453333020210266
1789799205255969800,2.0089697265625,0.4956362545490265,0.9952542185783386,0.04699064791202545
1789799205265941800,2.018941650390625,0.227346733212471,0.6670143604278564,0.20378252863883972
1789799205275913700,2.028913818359375,-0.050551194697618484,0.29252469539642334,0.4349347651004791
1789799205285886700,2.03888671875,-0.3147096335887909,-0.007641111966222525,0.6613956689834595
1789799205295859000,2.04885888671875,-0.5213839411735535,-0.15375970304012299,0.8610475063323975
1789799205305830700,2.05883056640625,-0.6513797640800476,0.032039009034633636,0.8827288150787354
1789799205315803000,2.068802978515625,-0.6779192686080933,0.36959362030029297,0.6135149002075195
1789799205325774800,2.07877490234375,-0.7294599413871765,0.7157671451568604,0.11525838822126389
1789799205335746800,2.088746826171875,-0.8815043568611145,0.6220177412033081,-0.4566360116004944
1789799205345718800,2.09871875,-0.9478082656860352,0.29228419065475464,-0.884492814540863
1789799205355690800,2.108690673828125,-0.9836304187774658,0.06540604680776596,-1.0204423666000366
1789799205365662700,2.118662841796875,-1.1310755014419556,0.09285739064216614,-0.7186347246170044
1789799205375636000,2.128635986328125,-1.6932098865509033,0.2614762485027313,-0.21493324637413025
1789799205385607700,2.138607666015625,-2.1488113403320312,0.2002352923154831,0.12678281962871552
1789799205395580000,2.148579833984375,-2.8873379230499268,-0.009730995632708073,0.4377329647541046
1789799205405551900,2.1585517578125,-3.269911050796509,-0.46279898285865784,0.8052683472633362
1789799205415523800,2.16852392578125,-3.3865127563476562,-0.8886059522628784,1.140158772468567
1789799205425495800,2.178495849609375,-3.0547237396240234,-1.2634614706039429,1.230660319328308
1789799205435467800,2.1884677734375,-2.557065963745117,-1.6412785053253174,1.1843374967575073
1789799205445439700,2.198439697265625,-2.32372784614563,-1.9413409233093262,1.2387603521347046
1789799205455412000,2.208411865234375,-2.228781223297119,-1.9918240308761597,1.2628142833709717
1789799205465383700,2.2183837890625,-2.228878974914551,-1.8275765180587769,1.2272160053253174
1789799205475357000,2.22835693359375,-2.2894368171691895,-1.7520931959152222,1.1623592376708984
1789799205485328600,2.23832861328125,-2.5057084560394287,-1.865387201309204,1.2196688652038574
1789799205495300900,2.24830078125,-2.5536956787109375,-1.875572681427002,1.2556004524230957
1789799205505272800,2.25827294921875,-2.424640417098999,-1.8911139965057373,1.2210441827774048
1789799205515244800,2.268244873046875,-2.400164842605591,-1.7320771217346191,1.1039897203445435
1789799205525216800,2.278216796875,-2.2955148220062256,-1.48804771900177,0.8784050345420837
1789799205535188700,2.288188720703125,-2.155635356903076,-1.2218838930130005,0.6090153455734253
1789799205545160700,2.29816064453125,-1.851711392402649,-1.12273371219635,0.41051042079925537
1789799205555133000,2.3081328125,-1.579944133758545,-1.0242164134979248,0.25006401538848877
1789799205565105700,2.318105712890625,-1.385134220123291,-1.1548761129379272,0.273852676153183
1789799205575078000,2.328077880859375,-1.2381600141525269,-1.4882352352142334,0.2941824495792389
1789799205585049900,2.3380498046875,-1.1377720832824707,-1.6170425415039062,0.3921472430229187
1789799205595021800,2.348021728515625,-1.1106791496276855,-1.569517731666565,0.36691805720329285
1789799205604993800,2.357993896484375,-1.0425201654434204,-1.2431442737579346,0.20820802450180054
1789799205614965800,2.3679658203125,-0.8560908436775208,-0.9242451190948486,-0.02313358336687088
1789799205624937700,2.377937744140625,-0.7072589993476868,-0.6648517847061157,-0.25845515727996826
1789799205634910000,2.387909912109375,-0.7110720872879028,-0.5879991054534912,-0.36585140228271484
1789799205644881700,2.397881591796875,-0.650896430015564,-0.48859161138534546,-0.3604567348957062
1789799205654854000,2.40785400390625,-0.5710819959640503,-0.3884085416793823,-0.3496760129928589
1789799205664827000,2.417826904296875,-0.6379982233047485,-0.24770332872867584,-0.38780876994132996
1789799205674798800,2.427798828125,-0.7125797867774963,-0.031022947281599045,-0.5083418488502502
1789799205684770800,2.437770751953125,-0.8735902309417725,0.16176800429821014,-0.5787386298179626
1789799205694742800,2.44774267578125,-0.7610583901405334,0.3616313338279724,-0.5684077143669128
1789799205704714800,2.45771484375,-0.8308706879615784,0.23600947856903076,-0.38308295607566833
1789799205714687000,2.46768701171875,-0.77664715051651,-0.20559749007225037,-0.2705753445625305
1789799205724658700,2.47765869140625,-0.5983514785766602,-0.3693167567253113,-0.19129368662834167
1789799205734631000,2.487630859375,-0.4950242340564728,-0.28336456418037415,-0.14428409934043884
1789799205744602600,2.4976025390625,-0.42402252554893494,-0.19323202967643738,-0.10011344403028488
1789799205754574800,2.507574951171875,-0.3741372525691986,-0.10186509788036346,-0.11915504932403564
1789799205764547800,2.5175478515625,-0.34322860836982727,-0.017246969044208527,-0.12062805145978928
1789799205774519800,2.527519775390625,-0.2570588290691376,0.030303772538900375,-0.14576667547225952
1789799205784491800,2.53749169921875,-0.17072901129722595,0.04857971891760826,-0.20151184499263763
1789799205794464000,2.547464111328125,-0.09525208920240402,0.13243228197097778,-0.24758371710777283
1789799205804435700,2.557435791015625,-0.058916449546813965,0.06127142906188965,-0.2560010552406311
1789799205814408000,2.567407958984375,-0.08157222718000412,-0.07463128119707108,-0.2656792402267456
1789799205824379600,2.577379638671875,-0.05866105109453201,-0.014935840852558613,-0.24455158412456512
1789799205834351900,2.587351806640625,0.04359181970357895,0.1488610804080963,-0.18870216608047485
1789799205844323800,2.59732373046875,0.17867904901504517,0.28785499930381775,-0.13476809859275818
1789799205854296600,2.607296630859375,0.34415990114212036,0.35626307129859924,-0.10151054710149765
1789799205864268800,2.617268798828125,0.5109832882881165,0.3057308793067932,-0.04732121527194977
1789799205874240800,2.62724072265625,0.7012860774993896,0.24321824312210083,0.0021486005280166864
1789799205884212700,2.637212646484375,0.8911388516426086,0.26840412616729736,-0.029045801609754562
1789799205894184700,2.647184814453125,1.036499261856079,0.32223567366600037,-0.06282160431146622
1789799205904156700,2.65715673828125,1.0820651054382324,0.3238413333892822,-0.04255241900682449
1789799205914129000,2.66712890625,1.0972867012023926,0.38827624917030334,0.01541207917034626
1789799205924100900,2.677100830078125,1.17705500125885,0.48059630393981934,-0.01363314874470234
1789799205934072800,2.68707275390625,1.3164613246917725,0.5733933448791504,-0.15899807214736938
1789799205944044800,2.697044921875,1.5147126913070679,0.7483303546905518,-0.2644524574279785
1789799205954017800,2.707017822265625,1.7692370414733887,0.9161609411239624,-0.2905392050743103
1789799205963989800,2.71698974609375,2.140228509902954,1.0814579725265503,-0.3798529803752899
1789799205973961700,2.726961669921875,2.514493942260742,1.2140556573867798,-0.5008419752120972
1789799205983933700,2.73693359375,2.8380203247070312,1.5408231019973755,-0.5474701523780823
1789799205993905700,2.74690576171875,3.1601128578186035,1.8869069814682007,-0.6770704984664917
1789799206003878000,2.7568779296875,3.462843179702759,2.1399929523468018,-0.8591437935829163
1789799206013849900,2.766849853515625,3.4663376808166504,2.447849988937378,-1.0687289237976074
1789799206023821800,2.77682177734375,3.313352108001709,2.9743940830230713,-1.1755797863006592
1789799206033793800,2.786793701171875,3.309880256652832,3.6442785263061523,-1.309944748878479
1789799206043766800,2.796766845703125,3.5650441646575928,4.352903842926025,-1.801331639289856
1789799206053738800,2.80673876953125,4.087063312530518,4.238410472869873,-1.9340132474899292
1789799206063710700,2.816710693359375,4.808920383453369,3.8010990619659424,-1.9502431154251099
1789799206073682700,2.8266826171875,5.235771179199219,3.075162649154663,-1.9820321798324585
1789799206083655000,2.836655029296875,5.063290119171143,1.747524619102478,-1.6865049600601196
1789799206093626600,2.846626708984375,4.50831413269043,0.7356364130973816,-1.4530243873596191
1789799206103598800,2.856598876953125,2.7554993629455566,0.35675591230392456,-1.0358413457870483
1789799206113570800,2.86657080078125,1.6562514305114746,0.5390333533287048,-0.4578413665294647
1789799206123542800,2.876542724609375,1.6877517700195312,1.0608959197998047,0.30412083864212036
1789799206133515800,2.886515869140625,1.3202680349349976,0.9311344623565674,0.8622008562088013
1789799206143487700,2.89648779296875,0.9025096893310547,0.7090948224067688,1.0798265933990479
1789799206153459700,2.906459716796875,0.761491060256958,0.5171014070510864,1.0086411237716675
1789799206163432000,2.916431884765625,0.45147809386253357,0.4199734926223755,0.8127767443656921
1789799206173403600,2.926403564453125,-0.057461563497781754,0.4217197299003601,0.38204294443130493
1789799206183376000,2.9363759765625,-0.6342090368270874,0.41219866275787354,-0.0570426806807518
1789799206193347600,2.94634765625,-1.3476190567016602,0.1987748146057129,-0.32357504963874817
1789799206203319800,2.95631982421875,-1.7436820268630981,-0.06304076313972473,-0.419570654630661
1789799206213291800,2.966291748046875,-2.221980571746826,0.027075013145804405,-0.38795310258865356
1789799206223263700,2.976263671875,-2.6120989322662354,-0.017329541966319084,-0.39206168055534363
1789799206233237000,2.986237060546875,-2.362159013748169,-0.8657740354537964,-0.4547863304615021
1789799206243209200,2.996209228515625,-0.5824071168899536,-2.4771041870117188,-0.7501580119132996
1789799206253181200,3.00618115234375,1.1276507377624512,-2.2170753479003906,-0.7766839265823364
1789799206263153200,3.016153076171875,2.0481760501861572,-1.407744288444519,-0.4957370460033417
1789799206273125000,3.026125,2.4077601432800293,-0.2550586760044098,-0.41348186135292053
1789799206283097000,3.03609716796875,3.3591270446777344,0.08399396389722824,-0.5827562808990479
1789799206293069000,3.046069091796875,3.5285234451293945,-0.5824927091598511,0.018808938562870026
1789799206303041300,3.056041259765625,2.0816564559936523,-0.7280299663543701,0.7444952726364136
1789799206313013000,3.066012939453125,1.3223516941070557,0.6773260235786438,0.1077507883310318
1789799206322985200,3.075985107421875,1.0249978303909302,0.22663308680057526,0.07362066209316254
1789799206332958200,3.085958251953125,0.8606736063957214,0.17414644360542297,-0.044406648725271225
1789799206342930200,3.09593017578125,0.8979415893554688,0.404509037733078,-0.4065612852573395
1789799206352902100,3.105902099609375,0.9707534909248352,0.23034733533859253,-0.4794538617134094
1789799206362874000,3.1158740234375,0.9182575345039368,0.05778413265943527,-0.1895117610692978
1789799206372846000,3.12584619140625,0.6527068614959717,0.04766412079334259,0.17675037682056427
1789799206382818300,3.135818359375,0.27684104442596436,-0.038991786539554596,0.4368492066860199
1789799206392790000,3.1457900390625,-0.04811786115169525,-0.21903745830059052,0.6140918731689453
1789799206402762200,3.15576220703125,-0.25094473361968994,-0.3657897412776947,0.7368918061256409
1789799206412734000,3.16573388671875,-0.3870666027069092,-0.43438076972961426,0.9175774455070496
1789799206422706200,3.1757060546875,-0.5093984007835388,-0.4096207022666931,1.1104286909103394
1789799206432679200,3.18567919921875,-0.5910333395004272,-0.21155688166618347,1.1553913354873657
1789799206442651100,3.195651123046875,-0.575887143611908,0.08647419512271881,1.0260119438171387
1789799206452623000,3.205623046875,-0.447328120470047,0.23260851204395294,0.8321561813354492
1789799206462595300,3.21559521484375,-0.21069000661373138,0.3496148884296417,0.732992947101593
1789799206472567000,3.225567138671875,0.10071422904729843,0.4966892898082733,0.7848026156425476
1789799206482539300,3.235539306640625,0.19943253695964813,0.576445460319519,0.7270815372467041
1789799206492511000,3.245510986328125,0.06405528634786606,0.5448435544967651,0.4408649802207947
1789799206502483200,3.255483154296875,-0.5507493019104004,-0.1147359311580658,0.14399148523807526
1789799206512455200,3.265455078125,-1.036808729171753,-0.6881065368652344,0.04152584448456764
1789799206522427100,3.27542724609375,-1.235241413116455,-1.0380232334136963,0.010931171476840973
1789799206532400000,3.285400146484375,-1.193102478981018,-0.7777954339981079,0.006653602700680494
1789799206542372400,3.295372314453125,-0.979287326335907,-0.3087036609649658,0.1797471046447754
1789799206552344000,3.305343994140625,-1.0654948949813843,-0.24806639552116394,0.24110713601112366
1789799206562316300,3.31531640625,-1.426364541053772,-0.45035067200660706,0.20563063025474548
1789799206572288000,3.3252880859375,-1.8462363481521606,-0.5546054244041443,0.20805783569812775
1789799206582260200,3.33526025390625,-2.1303136348724365,-0.16377830505371094,0.16711199283599854
1789799206592232200,3.345232177734375,-1.8659818172454834,0.5516335964202881,0.2824132740497589
1789799206602204200,3.3552041015625,-1.2933404445648193,1.012952446937561,0.42309078574180603
1789799206612176100,3.365176025390625,-0.8844095468521118,1.1096832752227783,0.44957616925239563
1789799206622148000,3.375148193359375,-0.7437810897827148,1.172016978263855,0.4316348433494568
1789799206632121000,3.38512109375,-0.7208539247512817,1.1811567544937134,0.41165846586227417
1789799206642093000,3.395093017578125,-0.6445144414901733,0.9796328544616699,0.4033178687095642
1789799206652065000,3.40506494140625,-0.5730929970741272,0.790371835231781,0.4112527668476105
1789799206662037200,3.415037353515625,-0.49946269392967224,0.6510013341903687,0.3110807538032532
1789799206672009200,3.42500927734375,-0.44719788432121277,0.5074897408485413,0.20750242471694946
1789799206681981200,3.434981201171875,-0.44666633009910583,0.4620141386985779,0.12001532316207886
1789799206691953200,3.444953125,-0.5082843899726868,0.43450236320495605,0.009761787950992584
1789799206701925000,3.454925048828125,-0.5224204659461975,0.3745627999305725,-0.19054441154003143
1789799206711897000,3.46489697265625,-0.5940616130828857,0.3737305700778961,-0.3526057302951813
1789799206721869300,3.474869384765625,-0.6326524019241333,0.34281426668167114,-0.453712522983551
1789799206731842000,3.484842041015625,-0.6511597633361816,0.22745703160762787,-0.5301841497421265
1789799206741814000,3.49481396484375,-0.6859611868858337,0.15743817389011383,-0.5808964371681213
1789799206751786200,3.5047861328125,-0.7326493263244629,0.09950936585664749,-0.5980581045150757
1789799206761758200,3.51475830078125,-0.7891256809234619,0.06360925734043121,-0.613641083240509
1789799206771730200,3.524730224609375,-0.8883230686187744,0.00877397134900093,-0.6850447058677673
1789799206781702100,3.5347021484375,-1.0159984827041626,0.0002697500167414546,-0.7891433835029602
1789799206791674000,3.544674072265625,-1.1435577869415283,0.007544707041233778,-0.89315265417099
1789799206801646300,3.554646240234375,-1.228243350982666,-0.08847809582948685,-0.9543629884719849
1789799206811618000,3.5646181640625,-1.257306456565857,-0.31912514567375183,-1.0000050067901611
1789799206821590300,3.57459033203125,-1.3604456186294556,-0.5506863594055176,-1.031069278717041
1789799206831563300,3.584563232421875,-1.461503028869629,-0.7275521755218506,-1.0811647176742554
1789799206841535000,3.594534912109375,-1.4834282398223877,-0.7483623027801514,-1.0992511510849
1789799206851507200,3.604507080078125,-1.4170500040054321,-0.6095434427261353,-1.0574285984039307
1789799206861479200,3.614479248046875,-1.2206240892410278,-0.45368966460227966,-0.9878396987915039
1789799206871451100,3.624451171875,-1.1818199157714844,-0.2818255126476288,-0.8444822430610657
1789799206881423400,3.63442333984375,-1.2107651233673096,-0.1823805421590805,-0.7317888736724854
1789799206891395000,3.64439501953125,-1.258636713027954,-0.22276951372623444,-0.6833334565162659
1789799206901367300,3.6543671875,-1.3128283023834229,-0.2736295759677887,-0.6489685773849487
1789799206911339000,3.664339111328125,-1.3027160167694092,-0.3435138761997223,-0.648576557636261
1789799206921311200,3.674311279296875,-1.2842166423797607,-0.3138972222805023,-0.6346856355667114
1789799206931284200,3.6842841796875,-1.2504842281341553,-0.14193877577781677,-0.5871804356575012
1789799206941256000,3.694255859375,-1.2809456586837769,-0.04791936278343201,-0.5664647817611694
1789799206951228200,3.704228271484375,-1.2694454193115234,-0.13480739295482635,-0.5566568374633789
1789799206961200000,3.7142001953125,-1.2464714050292969,-0.2834348678588867,-0.5299131870269775
1789799206971172000,3.724172119140625,-1.199850082397461,-0.3897690176963806,-0.506350040435791
1789799206981144000,3.73414404296875,-1.1152400970458984,-0.29733744263648987,-0.4604225158691406
1789799206991116000,3.744115966796875,-1.0455597639083862,-0.2882075905799866,-0.44434207677841187
1789799207001088300,3.754088134765625,-1.0120463371276855,-0.43039068579673767,-0.4507710635662079
1789799207011060200,3.764060302734375,-0.9460364580154419,-0.5380279421806335,-0.4605959951877594
1789799207021033000,3.774032958984375,-0.8814393281936646,-0.557048499584198,-0.42772647738456726
1789799207031005200,3.784005126953125,-0.8496057391166687,-0.4680885374546051,-0.36024996638298035
1789799207040977200,3.79397705078125,-0.7893829345703125,-0.3447052240371704,-0.37102922797203064
1789799207050949000,3.80394921875,-0.7181974649429321,-0.3780626356601715,-0.5038464069366455
1789799207060921000,3.813921142578125,-0.6021435260772705,-0.7251429557800293,-0.6813818216323853
1789799207070893000,3.82389306640625,-0.4609230160713196,-0.9340322613716125,-0.7473480701446533
1789799207080865000,3.833864990234375,-0.43348369002342224,-0.633971631526947,-0.6793046593666077
1789799207090837200,3.843837158203125,-0.37030869722366333,-0.20229797065258026,-0.5938009023666382
1789799207100809200,3.853809326171875,-0.3205544650554657,0.13891150057315826,-0.4716833829879761
1789799207110781200,3.86378125,-0.29401952028274536,0.379875123500824,-0.2825171947479248
1789799207120754200,3.873754150390625,-0.22941096127033234,0.4226349890232086,-0.09791992604732513
1789799207130726100,3.88372607421875,-0.14945514500141144,0.36022087931632996,0.06759447604417801
1789799207140698000,3.893697998046875,-0.049950115382671356,0.363860160112381,0.26497822999954224
1789799207150670000,3.903670166015625,0.15267090499401093,0.5360974669456482,0.4568938910961151
1789799207160642000,3.91364208984375,0.15959005057811737,0.7073348760604858,0.5650486946105957
1789799207170614300,3.9236142578125,0.15432631969451904,0.7805680632591248,0.6314050555229187
1789799207180586000,3.9335859375,0.19042201340198517,0.7695273160934448,0.6274391412734985
1789799207190558200,3.94355810546875,0.25375011563301086,0.7102746367454529,0.6055681705474854
1789799207200530200,3.9535302734375,0.30511584877967834,0.6108765006065369,0.5830567479133606
1789799207210502100,3.963502197265625,0.3978574872016907,0.536664605140686,0.5501898527145386
1789799207220475100,3.97347509765625,0.5326523780822754,0.5764487981796265,0.4935665428638458
1789799207230447000,3.983447021484375,0.6729170680046082,0.6851882934570312,0.47117602825164795
1789799207240419000,3.993419189453125,0.7985958456993103,0.8065668344497681,0.45043542981147766
1789799207250391300,4.003391357421875,0.9157288670539856,0.912144124507904,0.4032684564590454
1789799207260363000,4.013363037109375,1.0102434158325195,0.9358174800872803,0.35031870007514954
1789799207270335200,4.023335205078125,0.8628438115119934,0.9620482325553894,0.39638927578926086
1789799207280307000,4.033306884765625,1.1518844366073608,0.856416642665863,0.2864578366279602
1789799207290279200,4.043279052734375,1.1579556465148926,0.6640754342079163,0.11158721894025803
1789799207300251100,4.053251220703125,1.1882253885269165,0.5674359202384949,-0.015375126153230667
1789799207310223000,4.06322314453125,1.2409125566482544,0.6182458400726318,-0.028066685423254967
1789799207320196000,4.073196044921875,1.3053312301635742,0.7695398926734924,-0.01871352642774582
1789799207330168000,4.08316796875,1.3444567918777466,0.8779692053794861,-0.08790723979473114
1789799207340140000,4.09314013671875,1.335739254951477,0.8102957606315613,-0.20184406638145447
1789799207350112300,4.1031123046875,1.259833574295044,0.8412725925445557,-0.08474966883659363
1789799207360084000,4.113083984375,1.5336896181106567,0.8103883266448975,-0.25615882873535156
1789799207370056200,4.12305615234375,1.5200227499008179,0.6682887077331543,-0.31269559264183044
1789799207380028000,4.13302783203125,1.5263251066207886,0.7210680246353149,-0.3230065703392029
1789799207390000000,4.143000244140625,1.525682806968689,0.7628077268600464,-0.3720385432243347
1789799207399972000,4.15297216796875,1.5235376358032227,0.6809989213943481,-0.43005260825157166
1789799207409945000,4.162945068359375,1.541463851928711,0.5310277938842773,-0.4732666611671448
1789799207419917000,4.1729169921875,1.4760395288467407,0.1590302437543869,-0.49450936913490295
1789799207429889300,4.18288916015625,1.5702946186065674,0.24297679960727692,-0.5827990174293518
1789799207439861000,4.192861083984375,1.5412369966506958,0.19033613801002502,-0.5266075134277344
1789799207449833200,4.202833251953125,1.5328019857406616,0.1541331261396408,-0.49401894211769104
1789799207459805000,4.212804931640625,1.5330349206924438,0.1715945303440094,-0.5384110808372498
1789799207469777200,4.222777099609375,1.5509567260742188,0.118985116481781,-0.6054716110229492
1789799207479749000,4.2327490234375,1.5544397830963135,0.06916166841983795,-0.6666534543037415
1789799207489721000,4.24272119140625,1.522254228591919,0.06765272468328476,-0.6701149940490723
1789799207499693000,4.252693115234375,1.503878116607666,0.06741425395011902,-0.6445317268371582
1789799207509666300,4.262666259765625,1.3581643104553223,-0.0784073919057846,-0.6218346357345581
1789799207519638000,4.272637939453125,1.3746654987335205,0.016091756522655487,-0.5371689796447754
1789799207529610200,4.2826103515625,1.4125401973724365,-0.06813390552997589,-0.4588802456855774
1789799207539582000,4.29258203125,1.4389536380767822,-0.09684088081121445,-0.34446486830711365
1789799207549554200,4.30255419921875,1.5034812688827515,-0.0791148841381073,-0.2816166579723358
1789799207559526100,4.312526123046875,1.528968095779419,-0.11848988384008408,-0.2590048313140869
1789799207569498000,4.322498046875,1.4227961301803589,-0.44817936420440674,-0.36759254336357117
1789799207579470000,4.332469970703125,1.1578810214996338,-0.19943422079086304,-0.20634813606739044
1789799207589442000,4.342442138671875,0.991913914680481,-0.08544746786355972,-0.10969562828540802
1789799207599415000,4.3524150390625,0.9273008704185486,0.014292608946561813,-0.027482248842716217
1789799207609387300,4.36238720703125,0.9344090819358826,0.05322722718119621,0.014331510290503502
1789799207619359000,4.37235888671875,0.9612262845039368,0.12762348353862762,0.048008114099502563
1789799207629331200,4.382331298828125,0.9511646032333374,0.1451854407787323,0.07452759891748428
1789799207639303200,4.39230322265625,0.9037054777145386,0.08278326690196991,0.07958720624446869
1789799207649275100,4.402275146484375,0.8366478681564331,-0.0158985685557127,0.040093597024679184
1789799207659247000,4.4122470703125,0.7655923366546631,-0.06322107464075089,0.027340514585375786
1789799207669219000,4.422218994140625,0.7621608376502991,-0.06802807748317719,0.04054287075996399
1789799207679191000,4.43219091796875,0.6396375894546509,-0.07281289249658585,0.030693572014570236
1789799207689163300,4.442163330078125,0.43431854248046875,-0.06576216965913773,-0.01772322878241539
1789799207699136000,4.452135986328125,0.31795305013656616,-0.026640068739652634,-0.029197193682193756
1789799207709108200,4.462108154296875,0.23730029165744781,-0.005038103554397821,-0.03390992432832718
1789799207719080200,4.472080078125,0.16324152052402496,0.026999615132808685,-0.026194078847765923
1789799207729052200,4.48205224609375,0.093099445104599,0.03895188495516777,-0.011331776157021523
1789799207739024100,4.492024169921875,0.009399225935339928,0.07975965738296509,0.00782820489257574
1789799207748996000,4.50199609375,-0.07097071409225464,0.15978631377220154,0.025687895715236664
1789799207758968000,4.511968017578125,-0.16141964495182037,0.2541466951370239,0.04441191628575325
1789799207768940300,4.521940185546875,-0.2496267408132553,0.31317219138145447,0.06092245131731033
1789799207778912000,4.531912109375,-0.3340103328227997,0.34510043263435364,0.07196510583162308
1789799207788885000,4.541885009765625,-0.3940204083919525,0.38803911209106445,0.08570515364408493
1789799207798857200,4.551857177734375,-0.4395498037338257,0.42545315623283386,0.0954936072230339
1789799207808829200,4.5618291015625,-0.47932252287864685,0.46866774559020996,0.09103228151798248
1789799207818801200,4.57180126953125,-0.5327359437942505,0.48678281903266907,0.07661939412355423
1789799207828773000,4.581773193359375,-0.5704793334007263,0.44809532165527344,0.05344056338071823
1789799207838745000,4.5917451171875,-0.6103455424308777,0.37728914618492126,0.036858923733234406
1789799207848717300,4.60171728515625,-0.6371387839317322,0.31535547971725464,0.02966173365712166
1789799207858689000,4.61168896484375,-0.6434334516525269,0.22883515059947968,0.016503717750310898
1789799207868661200,4.6216611328125,-0.6620609164237976,0.16089579463005066,0.012976361438632011
1789799207878633000,4.631633056640625,-0.6882789731025696,0.14707204699516296,0.01279713399708271
1789799207888606000,4.64160595703125,-0.7267211675643921,0.1442570835351944,0.00032475125044584274
1789799207898578200,4.651578125,-0.7742226123809814,0.16271989047527313,-0.027415534481406212
1789799207908550100,4.661550048828125,-0.8111913204193115,0.1669314056634903,-0.08141831308603287
1789799207918522000,4.671522216796875,-0.8217376470565796,0.150970458984375,-0.13872303068637848
1789799207928494300,4.681494384765625,-0.8190494179725647,0.11038202792406082,-0.18836142122745514
1789799207938466000,4.691466064453125,-0.8119667768478394,0.09867388010025024,-0.24116243422031403
1789799207948438300,4.701438232421875,-0.8177290558815002,0.0758892074227333,-0.3145785927772522
1789799207958410000,4.711409912109375,-0.8491301536560059,0.03729971870779991,-0.37830060720443726
1789799207968382200,4.72138232421875,-0.9037619829177856,0.016605090349912643,-0.39298632740974426
1789799207978355200,4.731355224609375,-0.9655123949050903,-0.0410965159535408,-0.3811585605144501
1789799207988327000,4.741326904296875,-1.017611026763916,-0.15795975923538208,-0.37905335426330566
1789799207998299100,4.751299072265625,-1.032185673713684,-0.25295311212539673,-0.375221848487854
1789799208008271000,4.76127099609375,-1.0735448598861694,-0.3438180387020111,-0.39093637466430664
1789799208018243000,4.7712431640625,-1.1067943572998047,-0.37669670581817627,-0.4208596348762512
1789799208028215300,4.78121533203125,-1.1176800727844238,-0.294790118932724,-0.4628062844276428
1789799208038187000,4.79118701171875,-1.1341028213500977,-0.20628568530082703,-0.49700936675071716
1789799208048159200,4.8011591796875,-1.1478590965270996,-0.16557741165161133,-0.49337443709373474
1789799208058131200,4.811131103515625,-1.1854957342147827,-0.1962306797504425,-0.47506949305534363
1789799208068104000,4.82110400390625,-1.2312543392181396,-0.256006121635437,-0.4580971598625183
1789799208078076200,4.831076171875,-1.2672028541564941,-0.27636510133743286,-0.45141077041625977
1789799208088048000,4.841048095703125,-1.2963361740112305,-0.2548273205757141,-0.45102459192276
1789799208098020000,4.85102001953125,-1.311266303062439,-0.21868516504764557,-0.4519663155078888
1789799208107992000,4.860991943359375,-1.3078124523162842,-0.20959420502185822,-0.4415197968482971
1789799208117964000,4.870964111328125,-1.2999804019927979,-0.156210258603096,-0.42816802859306335
1789799208127936000,4.88093603515625,-1.3059972524642944,-0.09618207812309265,-0.4265008866786957
1789799208137908200,4.890908203125,-1.2974504232406616,-0.052102744579315186,-0.42700886726379395
1789799208147880200,4.900880126953125,-1.2902941703796387,-0.026175007224082947,-0.40824049711227417
1789799208157852200,4.91085205078125,-1.2878371477127075,-0.06775147467851639,-0.4048992991447449
1789799208167825200,4.9208251953125,-1.3108527660369873,-0.13514409959316254,-0.4048926532268524
1789799208177797000,4.930797119140625,-1.3411824703216553,-0.2230755090713501,-0.3750304877758026
1789799208187769000,4.94076904296875,-1.3292752504348755,-0.29937613010406494,-0.35408180952072144
1789799208197741000,4.950740966796875,-1.3360766172409058,-0.3194856345653534,-0.35277098417282104
1789799208207713000,4.960713134765625,-1.3113560676574707,-0.23253077268600464,-0.38129425048828125
1789799208217685200,4.970685302734375,-1.2935922145843506,-0.10448020696640015,-0.41857078671455383
1789799208227657000,4.980656982421875,-1.2613743543624878,-0.0188760906457901,-0.4286133050918579
1789799208237629200,4.990629150390625,-1.2624708414077759,0.012212062254548073,-0.40503114461898804
1789799208247601200,5.00060107421875,-1.2699010372161865,-0.03730542212724686,-0.38288429379463196
1789799208257574400,5.010574462890625,-1.2971025705337524,-0.03882530331611633,-0.36245039105415344
1789799208267546000,5.020546142578125,-1.2748347520828247,-0.09855654090642929,-0.36588746309280396
1789799208277518300,5.030518310546875,-1.250948190689087,-0.12840130925178528,-0.39879122376441956
1789799208287490300,5.040490234375,-1.223462462425232,-0.1817588061094284,-0.4566026031970978
1789799208297462300,5.050462158203125,-1.1464353799819946,-0.2769884765148163,-0.5361630916595459
1789799208307434200,5.060434326171875,-1.0539398193359375,-0.3228568732738495,-0.588982105255127
1789799208317406200,5.07040625,-0.9634244441986084,-0.3962526321411133,-0.6068792939186096
1789799208327378200,5.080378173828125,-0.8959836363792419,-0.4896659255027771,-0.5589368343353271
1789799208337350400,5.090350341796875,-0.8147753477096558,-0.5479921698570251,-0.4673282206058502
1789799208347323100,5.1003232421875,-0.7288807034492493,-0.5239400863647461,-0.40922895073890686
1789799208357295400,5.11029541015625,-0.6272776126861572,-0.5701093077659607,-0.42427968978881836
1789799208367267300,5.120267333984375,-0.55975341796875,-0.5647127032279968,-0.38021767139434814
1789799208377239300,5.1302392578125,-0.5121097564697266,-0.466580331325531,-0.3020060956478119
1789799208387211300,5.140211181640625,-0.44552862644195557,-0.32949143648147583,-0.2650616466999054
1789799208397183200,5.150183349609375,-0.3717625141143799,-0.2022036612033844,-0.2214726209640503
1789799208407155200,5.1601552734375,-0.2863738536834717,-0.05914025381207466,-0.18895277380943298
1789799208417127400,5.17012744140625,-0.2058507651090622,0.009758327156305313,-0.17858655750751495
1789799208427099100,5.18009912109375,-0.16642001271247864,0.07784337550401688,-0.15265269577503204
1789799208437072400,5.190072265625,-0.10433879494667053,0.17387166619300842,-0.10601340979337692
1789799208447044000,5.200044189453125,-0.0324195921421051,0.2128710001707077,-0.05478164553642273
1789799208457016300,5.210016357421875,0.06618953496217728,0.2720324993133545,-0.0010212166234850883
1789799208466988300,5.21998828125,0.1910925954580307,0.378511518239975,0.057874590158462524
1789799208476960300,5.229960205078125,0.31490081548690796,0.49022361636161804,0.09805024415254593
1789799208486932200,5.23993212890625,0.4267421364784241,0.5815261006355286,0.14221902191638947
1789799208496904200,5.249904296875,0.5118408203125,0.6330026984214783,0.1831466257572174
1789799208506876200,5.259876220703125,0.5928637385368347,0.6852534413337708,0.19053183495998383
1789799208516848400,5.269848388671875,0.6706104278564453,0.6943562030792236,0.1904563456773758
1789799208526820000,5.279820068359375,0.75693279504776,0.687378466129303,0.20241740345954895
1789799208536793300,5.28979345703125,0.8485812544822693,0.6835438013076782,0.2062961608171463
1789799208546765300,5.299765380859375,0.9557607173919678,0.7111924290657043,0.20726129412651062
1789799208556737300,5.3097373046875,1.049232006072998,0.6885505318641663,0.2078598290681839
1789799208566709200,5.319709228515625,1.1353323459625244,0.6263907551765442,0.20767447352409363
1789799208576681200,5.32968115234375,1.232262372970581,0.572163999080658,0.17914976179599762
1789799208586653200,5.339653076171875,1.3330390453338623,0.5211125612258911,0.1436426341533661
1789799208596625400,5.34962548828125,1.4297304153442383,0.4878227710723877,0.11344636976718903
1789799208606597000,5.35959716796875,1.5341907739639282,0.4998165965080261,0.1045258492231369
1789799208616569300,5.3695693359375,1.625648856163025,0.5886189937591553,0.10964790731668472
1789799208626542300,5.379542236328125,1.70633065700531,0.6986895799636841,0.10727875679731369
1789799208636514300,5.389514404296875,1.7616043090820312,0.7692441940307617,0.085157610476017
1789799208646486300,5.399486328125,1.8015834093093872,0.8084885478019714,0.05771853029727936
1789799208656458200,5.409458251953125,1.8416011333465576,0.8652520775794983,0.012047450989484787
1789799208666430200,5.41943017578125,1.8990020751953125,0.8979530334472656,-0.038933709263801575
1789799208676402400,5.42940234375,1.9515832662582397,0.8773139715194702,-0.06850052624940872
1789799208686374100,5.4393740234375,2.0133466720581055,0.8554483652114868,-0.07235118746757507
1789799208696346400,5.449346435546875,2.0594894886016846,0.7982858419418335,-0.08075811713933945
1789799208706318000,5.459318115234375,2.070603609085083,0.714851438999176,-0.09588673710823059
1789799208716291000,5.469291015625,2.0436363220214844,0.6217108964920044,-0.125595360994339
1789799208726263300,5.47926318359375,1.977811336517334,0.5559737086296082,-0.1588428020477295
1789799208736235300,5.4892353515625,1.8790000677108765,0.4811410903930664,-0.1762954294681549
1789799208746207200,5.499207275390625,1.7742928266525269,0.38229894638061523,-0.19668565690517426
1789799208756179500,5.509179443359375,1.6924145221710205,0.37840014696121216,-0.2236814647912979
1789799208766151200,5.519151123046875,1.6368188858032227,0.41396453976631165,-0.2439853996038437
1789799208776123400,5.529123291015625,1.5625797510147095,0.4086920917034149,-0.26124122738838196
1789799208786095000,5.53909521484375,1.49409019947052,0.3854437470436096,-0.2581127882003784
1789799208796067300,5.5490673828125,1.3977969884872437,0.2828189432621002,-0.2525778114795685
1789799208806039300,5.559039306640625,1.3534998893737793,0.24882261455059052,-0.23965775966644287
1789799208816012000,5.569011962890625,1.303488850593567,0.2614319920539856,-0.2215374857187271
1789799208825984300,5.578984375,1.205079197883606,0.1597820520401001,-0.2185741811990738
1789799208835956200,5.588956298828125,1.1298710107803345,0.015379545278847218,-0.21759146451950073
1789799208845928200,5.59892822265625,1.081184983253479,0.012969384901225567,-0.19397561252117157
1789799208855900200,5.608900146484375,1.0234739780426025,-0.025749698281288147,-0.18013331294059753
1789799208865872100,5.6188720703125,0.9965003728866577,-0.022737130522727966,-0.15771295130252838
1789799208875844400,5.62884423828125,0.9518783688545227,-0.0012487770291045308,-0.12842124700546265
1789799208885816300,5.63881640625,0.9101764559745789,-0.01781337335705757,-0.09328164160251617
1789799208895788300,5.648788330078125,0.8497762680053711,0.0011735614389181137,-0.056355178356170654
1789799208905761300,5.65876123046875,0.7611393332481384,0.047579143196344376,-0.03568904846906662
1789799208915733200,5.668733154296875,0.6672950387001038,0.12149790674448013,-0.020334862172603607
1789799208925705200,5.678705322265625,0.5786988735198975,0.16602648794651031,-0.013271359726786613
1789799208935677200,5.68867724609375,0.48833972215652466,0.15861313045024872,-0.028433658182621002
1789799208945649200,5.698649169921875,0.4002106487751007,0.15910181403160095,-0.056432802230119705
1789799208955621000,5.70862109375,0.2984353005886078,0.1311722844839096,-0.09610632807016373
1789799208965593300,5.71859326171875,0.20113615691661835,0.11950870603322983,-0.11810670047998428
1789799208975565300,5.7285654296875,0.08836594223976135,0.12580162286758423,-0.12185496091842651
1789799208985537300,5.738537353515625,-0.04204532131552696,0.10323292016983032,-0.123872309923172
1789799208995509200,5.74850927734375,-0.1909538358449936,0.07462377846240997,-0.1227206215262413
1789799209005482200,5.758482177734375,-0.33243295550346375,0.029478134587407112,-0.10750651359558105
1789799209015454200,5.7684541015625,-0.43704989552497864,0.006783532444387674,-0.0642811506986618
1789799209025426200,5.77842626953125,-0.4941491484642029,0.02057524397969246,0.0072944993153214455
1789799209035398100,5.788398193359375,-0.5528265833854675,0.11899346858263016,0.09464552253484726
1789799209045370400,5.798370361328125,-0.5754386782646179,0.18732298910617828,0.1472807675600052
1789799209055342000,5.808342041015625,-0.6295669078826904,0.23340260982513428,0.15991027653217316
1789799209065314300,5.818314208984375,-0.706786572933197,0.22039200365543365,0.131417915225029
1789799209075286300,5.828286376953125,-0.7696073651313782,0.10737345367670059,0.08835180848836899
1789799209085258200,5.83825830078125,-0.8186377286911011,-0.08788765221834183,0.0578511506319046
1789799209095231200,5.848231201171875,-0.935193657875061,-0.2904544472694397,0.04153530299663544
1789799209105203200,5.858203125,-0.9501049518585205,-0.46557965874671936,-0.004309154115617275
1789799209115175200,5.868175048828125,-0.9773845076560974,-0.4559091627597809,-0.06557357311248779
1789799209125147400,5.8781474609375,-0.9799728393554688,-0.46465736627578735,-0.1483909636735916
1789799209135119000,5.888119140625,-0.9851292371749878,-0.3738343417644501,-0.20947176218032837
1789799209145091300,5.89809130859375,-0.9843407273292542,-0.2754680812358856,-0.2782047390937805
1789799209155063000,5.90806298828125,-0.9716834425926208,-0.21559041738510132,-0.390950083732605
1789799209165035300,5.91803515625,-0.9320526719093323,-0.12745176255702972,-0.5423099994659424
1789799209175007200,5.92800732421875,-0.9111679792404175,-0.022319233044981956,-0.6718316674232483
1789799209184980200,5.937980224609375,-0.9222637414932251,0.07301980257034302,-0.7340114116668701
1789799209194952200,5.9479521484375,-0.967102587223053,0.10455218702554703,-0.6933187246322632
1789799209204924400,5.95792431640625,-1.0563386678695679,0.024807561188936234,-0.6082406044006348
1789799209214896000,5.967896240234375,-1.183708906173706,-0.10150331258773804,-0.5678605437278748
1789799209224868400,5.977868408203125,-1.2771261930465698,-0.18712660670280457,-0.5904462933540344
1789799209234839600,5.987839599609375,-1.2450356483459473,-0.13658460974693298,-0.6307841539382935
1789799209244811800,5.997811767578125,-1.1811968088150024,-0.03623243421316147,-0.651973307132721
1789799209254783700,6.00778369140625,-1.148357629776001,-0.02108806185424328,-0.6652618050575256
1789799209264755700,6.017755615234375,-1.1324889659881592,-0.0375080443918705,-0.6838040351867676
1789799209274728700,6.027728759765625,-1.1308344602584839,-0.032605066895484924,-0.6945640444755554
1789799209284701000,6.037700927734375,-1.120662808418274,0.027992233633995056,-0.6804553866386414
1789799209294672600,6.047672607421875,-1.10563325881958,0.09173252433538437,-0.6464204788208008
1789799209304644900,6.057644775390625,-1.1348141431808472,0.15462413430213928,-0.615016758441925
1789799209314616600,6.067616455078125,-1.2460130453109741,0.15528377890586853,-0.595150351524353
1789799209324588800,6.0775888671875,-1.353890061378479,0.12322331219911575,-0.5698474049568176
1789799209334560800,6.087560791015625,-1.436181664466858,0.015388852916657925,-0.5407094955444336
1789799209344532700,6.09753271484375,-1.5292980670928955,-0.091343455016613,-0.5236191749572754
1789799209354504700,6.107504638671875,-1.5606050491333008,-0.19381549954414368,-0.5347466468811035
1789799209364476700,6.1174765625,-1.5388590097427368,-0.3076179623603821,-0.5610219240188599
1789799209374449700,6.12744970703125,-1.5106439590454102,-0.4228687584400177,-0.5754238963127136
1789799209384422000,6.137421875,-1.5293617248535156,-0.42084822058677673,-0.5680767893791199
1789799209394393600,6.1473935546875,-1.4689850807189941,-0.4901149272918701,-0.5856802463531494
1789799209404365800,6.15736572265625,-1.4843307733535767,-0.44988813996315,-0.5765107274055481
1789799209414337800,6.167337890625,-1.4821432828903198,-0.45578327775001526,-0.5781424641609192
1789799209424309800,6.177309814453125,-1.4959403276443481,-0.4870684742927551,-0.5780112147331238
1789799209434281700,6.18728173828125,-1.5069329738616943,-0.46643123030662537,-0.5749964714050293
1789799209444253700,6.197253662109375,-1.488357424736023,-0.4242214560508728,-0.560895562171936
1789799209454225700,6.2072255859375,-1.4437870979309082,-0.4178876578807831,-0.5401994585990906
1789799209464199000,6.217198974609375,-1.444846272468567,-0.31607234477996826,-0.47627031803131104
1789799209474170600,6.227170654296875,-1.3786025047302246,-0.3509243428707123,-0.45204657316207886
1789799209484142800,6.237142822265625,-1.31821608543396,-0.42994698882102966,-0.4377829432487488
1789799209494114800,6.24711474609375,-1.2421351671218872,-0.4539223611354828,-0.4025222957134247
1789799209504086800,6.257086669921875,-1.1433584690093994,-0.5078591108322144,-0.3710120618343353
1789799209514058800,6.267058837890625,-1.0347678661346436,-0.5539673566818237,-0.36527639627456665
1789799209524030700,6.27703076171875,-0.9125024676322937,-0.5874035954475403,-0.33014798164367676
1789799209534002700,6.287002685546875,-0.7816687822341919,-0.5878657698631287,-0.26466643810272217
1789799209543975000,6.296974853515625,-0.6534681916236877,-0.4933704435825348,-0.22714543342590332
1789799209553946600,6.306946533203125,-0.5235097408294678,-0.35414278507232666,-0.21841612458229065
1789799209563920000,6.316919921875,-0.404898077249527,-0.21190522611141205,-0.18739987909793854
1789799209573891800,6.326891845703125,-0.3070783317089081,-0.0806344673037529,-0.15058673918247223
1789799209583863800,6.33686376953125,-0.21232305467128754,0.0716586634516716,-0.07151376456022263
1789799209593835800,6.346835693359375,-0.08733797073364258,0.06533152610063553,-0.10019640624523163
1789799209603807700,6.356807861328125,0.02553665079176426,0.23324808478355408,-0.1608075648546219
1789799209613779700,6.36677978515625,0.0937252938747406,0.32510456442832947,-0.17762568593025208
1789799209623752000,6.376751953125,0.15688428282737732,0.38944706320762634,-0.16006188094615936
1789799209633723600,6.3867236328125,0.23114892840385437,0.367914080619812,-0.15476883947849274
1789799209643695900,6.39669580078125,0.3033967614173889,0.28393635153770447,-0.14983373880386353
1789799209653668900,6.4066689453125,0.3964899480342865,0.24048787355422974,-0.14661796391010284
1789799209663640800,6.416640869140625,0.5151673555374146,0.2636840045452118,-0.14406052231788635
1789799209673612800,6.42661279296875,0.654556930065155,0.3421197235584259,-0.1346072405576706
1789799209683584800,6.436584716796875,0.7758349180221558,0.4343191385269165,-0.14434029161930084
1789799209693556700,6.446556640625,0.885523796081543,0.5208373069763184,-0.1415257453918457
1789799209703529000,6.456529052734375,0.9898757934570312,0.6188035011291504,-0.13381588459014893
1789799209713500700,6.466500732421875,1.0841957330703735,0.7008793950080872,-0.13353213667869568
1789799209723473000,6.476472900390625,1.163455843925476,0.703278124332428,-0.12541241943836212
1789799209733444600,6.486444580078125,1.2440576553344727,0.6451126337051392,-0.1298993080854416
1789799209743416800,6.496416748046875,1.3325254917144775,0.5993003845214844,-0.13095179200172424
1789799209753389800,6.506389892578125,1.452984094619751,0.683809220790863,-0.10015951842069626
1789799209763361800,6.51636181640625,1.5794721841812134,0.7583452463150024,-0.06106218695640564
1789799209773333800,6.526333740234375,1.6992273330688477,0.7563478350639343,-0.022970862686634064
1789799209783306000,6.536305908203125,1.812553882598877,0.6736135482788086,0.02254415862262249
1789799209793277700,6.546277587890625,1.9120653867721558,0.5700594186782837,0.05133119970560074
1789799209803250000,6.55625,1.9997038841247559,0.5203898549079895,0.05494217574596405
1789799209813221600,6.5662216796875,2.0843007564544678,0.5403859615325928,0.0360834077000618
1789799209823193900,6.57619384765625,2.1575868129730225,0.5909026265144348,0.029978375881910324
1789799209833165800,6.586165771484375,2.2054684162139893,0.6717584133148193,0.02864718809723854
1789799209843138800,6.596138916015625,2.2331950664520264,0.7655027508735657,0.02479066513478756
1789799209853110800,6.60611083984375,2.2532079219818115,0.7515263557434082,0.011078990064561367
1789799209863083000,6.6160830078125,2.2687227725982666,0.6686045527458191,0.004744927864521742
1789799209873054700,6.6260546875,2.2633016109466553,0.6044936180114746,0.016631407663226128
1789799209883027000,6.63602685546875,2.246312141418457,0.5077604055404663,0.01020519994199276
1789799209892998700,6.64599853515625,2.1930344104766846,0.36728397011756897,-0.013513049110770226
1789799209902971000,6.655970947265625,2.0879828929901123,0.20145589113235474,-0.017281953245401382
1789799209912942800,6.66594287109375,1.9910871982574463,0.11725251376628876,0.016056032851338387
1789799209922914800,6.675914794921875,1.9073675870895386,0.052269261330366135,0.00927562452852726
1789799209932886800,6.68588671875,1.8239845037460327,-0.020291868597269058,-0.01909090206027031
1789799209942859800,6.69585986328125,1.7284433841705322,-0.09419112652540207,-0.03367037698626518
1789799209952831700,6.705831787109375,1.60675847530365,-0.11953359097242355,-0.016139857470989227
1789799209962804000,6.715803955078125,1.4695161581039429,-0.1599995195865631,0.01488490216434002
1789799209972775700,6.725775634765625,1.3522260189056396,-0.1631794571876526,0.023606756702065468
1789799209982748000,6.735747802734375,1.2620118856430054,-0.09868860244750977,0.011371130123734474
1789799209992720000,6.745719970703125,1.1840192079544067,-0.07180950045585632,-0.013476157560944557
1789799210002691800,6.75569189453125,1.133651852607727,-0.07025368511676788,0.006525248754769564
1789799210012663800,6.765663818359375,1.0829402208328247,-0.13503910601139069,0.049944888800382614
1789799210022635800,6.7756357421875,0.9928404092788696,-0.19847001135349274,0.06938676536083221
1789799210032607700,6.785607666015625,0.8964167237281799,-0.2242680788040161,0.06106199696660042
1789799210042580700,6.795580810546875,0.8141713738441467,-0.2832997143268585,0.028878228738904
1789799210052552700,6.805552734375,0.6981555223464966,-0.2740159332752228,0.009297467768192291
1789799210062524700,6.815524658203125,0.6020700335502625,-0.26919612288475037,0.0019410173408687115
1789799210072497000,6.825496826171875,0.49441784620285034,-0.2792176306247711,-0.022233957424759865
1789799210082468900,6.83546875,0.3603180944919586,-0.26536011695861816,-0.049907930195331573
1789799210092440800,6.84544091796875,0.26996877789497375,-0.1764635443687439,-0.06156472489237785
1789799210102412800,6.855412841796875,0.18397556245326996,-0.08069439977407455,-0.05754920840263367
1789799210112384800,6.865384765625,0.0966222733259201,-0.008549388498067856,-0.03723648935556412
1789799210122357000,6.87535693359375,-0.008363000117242336,0.01694025844335556,-0.017540281638503075
1789799210132329700,6.885329833984375,-0.14246274530887604,-0.04104631394147873,-0.018980378285050392
1789799210142301700,6.8953017578125,-0.2704257667064667,-0.10589615255594254,-0.01505221612751484
1789799210152274000,6.90527392578125,-0.37619879841804504,-0.11800222843885422,0.030836841091513634
1789799210162245600,6.91524560546875,-0.46728450059890747,-0.08427488803863525,0.09176997095346451
1789799210172217900,6.9252177734375,-0.5341106653213501,-0.03487001731991768,0.14043577015399933
1789799210182189800,6.93518994140625,-0.5823703408241272,0.03256228566169739,0.183757945895195
1789799210192161800,6.945161865234375,-0.6475504636764526,0.11240577697753906,0.232416033744812
1789799210202134000,6.955134033203125,-0.7030904293060303,0.1758585274219513,0.2623733878135681
1789799210212105700,6.965105712890625,-0.7412787675857544,0.15730798244476318,0.25420936942100525
1789799210222078700,6.97507861328125,-0.8008451461791992,0.11188937723636627,0.2370881587266922
1789799210232051500,6.985051513671875,-0.8593822717666626,0.1376221477985382,0.22888654470443726
1789799210242023400,6.9950234375,-0.8827978372573853,0.0868910476565361,0.2098497450351715
1789799210251995400,7.004995361328125,-0.9561588168144226,0.060874637216329575,0.18507660925388336
1789799210261967400,7.01496728515625,-1.0029397010803223,0.034038495272397995,0.14715425670146942
1789799210271939600,7.024939697265625,-1.0713623762130737,0.019381199032068253,0.09482967108488083
1789799210281911300,7.034911376953125,-1.1185948848724365,-0.026256060227751732,0.02286972850561142
1789799210291883500,7.044883544921875,-1.1716359853744507,-0.025853823870420456,-0.046415068209171295
1789799210301855200,7.054855224609375,-1.2091413736343384,0.013759099878370762,-0.10430313646793365
1789799210311827500,7.064827392578125,-1.231076955795288,0.036396924406290054,-0.14927951991558075
1789799210321799400,7.07479931640625,-1.2546765804290771,0.004508235491812229,-0.20244739949703217
1789799210331772400,7.0847724609375,-1.271415114402771,-0.050623245537281036,-0.26082947850227356
1789799210341744400,7.094744384765625,-1.2994904518127441,-0.11298222094774246,-0.28398141264915466
1789799210351716600,7.104716552734375,-1.3333911895751953,-0.1933029294013977,-0.28145846724510193
1789799210361688300,7.114688232421875,-1.363101601600647,-0.2584744691848755,-0.27772098779678345
1789799210371660500,7.12466064453125,-1.4050564765930176,-0.2893255949020386,-0.2951223850250244
1789799210381632300,7.13463232421875,-1.4425735473632812,-0.22826892137527466,-0.3466132581233978
1789799210391604500,7.1446044921875,-1.4728773832321167,-0.061463210731744766,-0.42626717686653137
1789799210401576400,7.154576416015625,-1.4768521785736084,0.10099734365940094,-0.47148075699806213
1789799210411548400,7.16454833984375,-1.4492950439453125,0.1784513145685196,-0.4680279493331909
1789799210421520400,7.174520263671875,-1.4167962074279785,0.1523755043745041,-0.40665486454963684
1789799210431493600,7.18449365234375,-1.4004896879196167,0.029017414897680283,-0.3327275216579437
1789799210441465300,7.19446533203125,-1.433619737625122,-0.14291998744010925,-0.2865227460861206
1789799210451437600,7.2044375,-1.477594017982483,-0.2755190134048462,-0.27568501234054565
1789799210461409300,7.2144091796875,-1.5552276372909546,-0.26896151900291443,-0.2659676671028137
1789799210471381500,7.224381591796875,-1.5938199758529663,-0.2136233001947403,-0.266545832157135
1789799210481353500,7.234353515625,-1.6151598691940308,-0.2273060828447342,-0.2778286039829254
1789799210491325400,7.244325439453125,-1.6652641296386719,-0.24154150485992432,-0.2537468373775482
1789799210501297400,7.25429736328125,-1.6720772981643677,-0.3929691016674042,-0.23866721987724304
1789799210511269400,7.264269287109375,-1.6916640996932983,-0.5359468460083008,-0.21861028671264648
1789799210521241300,7.274241455078125,-1.7561078071594238,-0.5412595868110657,-0.17071732878684998
1789799210531214600,7.284214599609375,-1.722802758216858,-0.5985299348831177,-0.1781894862651825
1789799210541186300,7.294186279296875,-1.6876198053359985,-0.6800719499588013,-0.19493091106414795
1789799210551158500,7.304158447265625,-1.6548551321029663,-0.7720984816551208,-0.2102067917585373
1789799210561130500,7.314130615234375,-1.6405140161514282,-0.7579770684242249,-0.1891941875219345
1789799210571102500,7.3241025390625,-1.576060175895691,-0.8485631942749023,-0.18544325232505798
1789799210581074400,7.334074462890625,-1.4903849363327026,-0.8942004442214966,-0.17622525990009308
1789799210591046400,7.34404638671875,-1.3779007196426392,-0.8598719835281372,-0.15747714042663574
1789799210601018400,7.354018310546875,-1.2347499132156372,-0.8124206066131592,-0.14655712246894836
1789799210610990600,7.363990478515625,-1.0878814458847046,-0.7811682820320129,-0.13126738369464874
1789799210620962300,7.37396240234375,-0.9508965015411377,-0.8047716021537781,-0.08191421627998352
1789799210630935600,7.383935546875,-0.8575713038444519,-0.7253406643867493,-0.0002542384900152683
1789799210640907500,7.393907470703125,-0.7834411263465881,-0.5510314702987671,0.025219962000846863
1789799210650879500,7.40387939453125,-0.6671862006187439,-0.31894612312316895,-0.00927343312650919
1789799210660851500,7.4138515625,-0.555769145488739,-0.15386955440044403,-0.0009846105240285397
1789799210670823400,7.423823486328125,-0.47348541021347046,-0.07174503058195114,0.05033982917666435
1789799210680795400,7.43379541015625,-0.40126287937164307,0.04109364002943039,0.0770886167883873
1789799210690767600,7.443767578125,-0.28995153307914734,0.15782862901687622,0.05587627366185188
1789799210700739300,7.4537392578125,-0.17528195679187775,0.24784879386425018,0.031216735020279884
1789799210710711600,7.463711669921875,-0.07498703896999359,0.3234451413154602,0.03201794996857643
1789799210720683300,7.473683349609375,0.022170940414071083,0.3898124396800995,0.036071281880140305
1789799210730656500,7.483656494140625,0.13305963575839996,0.4015192985534668,0.02406628243625164
1789799210740628500,7.49362841796875,0.24869543313980103,0.428215354681015,0.010656467638909817
1789799210750600400,7.503600341796875,0.3646644055843353,0.46267226338386536,0.0018743041437119246
1789799210760572400,7.513572509765625,0.4802013635635376,0.4746037721633911,0.012320021167397499
1789799210770544600,7.523544677734375,0.5937929153442383,0.4703778028488159,0.03777756169438362
1789799210780516400,7.533516357421875,0.705146074295044,0.4947736859321594,0.018664056435227394
1789799210790488600,7.543488525390625,0.8292797207832336,0.5268176794052124,-0.0033147400245070457
1789799210800460300,7.553460205078125,0.9587855339050293,0.590659499168396,-0.00938381813466549
1789799210810432500,7.5634326171875,1.086814522743225,0.6637916564941406,-0.031374741345644
1789799210820404500,7.573404541015625,1.2021232843399048,0.661068320274353,-0.04966852813959122
1789799210830377200,7.583377197265625,1.308336615562439,0.6920116543769836,-0.04586433619260788
1789799210840349400,7.593349365234375,1.4305751323699951,0.8151636719703674,-0.044511985033750534
1789799210850321400,7.6033212890625,1.5501316785812378,0.9011059999465942,-0.04979102313518524
1789799210860293400,7.61329345703125,1.663243055343628,0.9194746017456055,-0.06942224502563477
1789799210870265600,7.623265625,1.7375242710113525,0.8944084048271179,-0.07296119630336761
1789799210880237300,7.6332373046875,1.8026223182678223,0.8731158971786499,-0.0623740628361702
1789799210890209500,7.64320947265625,1.8791345357894897,0.8699143528938293,-0.05510178208351135
1789799210900181500,7.653181396484375,1.9540681838989258,0.861788272857666,-0.04104907810688019
1789799210910153500,7.663153564453125,2.008634328842163,0.8629181385040283,-0.014724919572472572
1789799210920125400,7.67312548828125,2.0631144046783447,0.8601697087287903,0.01149470079690218
1789799210930098400,7.683098388671875,2.106590747833252,0.8373475074768066,0.017654450610280037
1789799210940070400,7.6930703125,2.149341106414795,0.833594560623169,0.0037602069787681103
1789799210950042400,7.70304248046875,2.1829733848571777,0.7667983770370483,-0.014863410964608192
1789799210960014300,7.713014404296875,2.205864429473877,0.6991761922836304,0.015582911670207977
1789799210969986600,7.722986572265625,2.213043212890625,0.6472406387329102,0.0460679866373539
1789799210979958500,7.73295849609375,2.195279836654663,0.5459026098251343,0.06410664319992065
1789799210989930500,7.742930419921875,2.164731740951538,0.4889739155769348,0.07458710670471191
1789799210999902500,7.75290234375,2.0981392860412598,0.37109094858169556,0.0695023387670517
1789799211009874400,7.76287451171875,2.045865535736084,0.2552780210971832,0.06415057927370071
1789799211019846400,7.772846435546875,1.989112138748169,0.2333652675151825,0.03230423107743263
1789799211029818600,7.782818603515625,1.9026387929916382,0.20193883776664734,-0.008807651698589325
1789799211039791400,7.792791259765625,1.8014745712280273,0.16532249748706818,-0.021910669282078743
1789799211049763300,7.802763427734375,1.6836808919906616,0.09821324050426483,-0.05803152173757553
1789799211059735600,7.812735595703125,1.5431346893310547,0.03940851241350174,-0.08483356982469559
1789799211069707500,7.82270751953125,1.3995294570922852,-0.03796180337667465,-0.10564471036195755
1789799211079679500,7.832679443359375,1.261393666267395,-0.10486520081758499,-0.11182404309511185
1789799211089651500,7.8426513671875,1.1584773063659668,-0.11339329928159714,-0.11073493957519531
1789799211099623400,7.85262353515625,1.055559515953064,-0.13727545738220215,-0.12923139333724976
1789799211109595600,7.862595703125,0.9807669520378113,-0.2149932086467743,-0.14910577237606049
1789799211119567400,7.8725673828125,0.9117144346237183,-0.2435138076543808,-0.14287982881069183
1789799211129539600,7.88253955078125,0.839358925819397,-0.18838007748126984,-0.14713729918003082
1789799211139512300,7.89251220703125,0.7583711743354797,-0.12067001312971115,-0.18346759676933289
1789799211149484300,7.902484375,0.6614997386932373,0.03433940187096596,-0.1935776323080063
1789799211159456500,7.91245654296875,0.5764468908309937,0.12474492937326431,-0.17532913386821747
1789799211169428200,7.92242822265625,0.492437481880188,0.12519489228725433,-0.15076732635498047
1789799211179400400,7.932400390625,0.4198937714099884,0.13770774006843567,-0.11802002042531967
1789799211189372400,7.942372314453125,0.30983784794807434,0.13955923914909363,-0.09346607327461243
1789799211199344400,7.952344482421875,0.19107286632061005,0.1532691866159439,-0.06770718097686768
1789799211209316600,7.962316650390625,0.0465865358710289,0.12902642786502838,-0.044659387320280075
1789799211219288300,7.972288330078125,-0.08953668922185898,0.08218114823102951,-0.010693960823118687
1789799211229260500,7.982260498046875,-0.2135033756494522,0.04249754920601845,0.03425207734107971
1789799211239231500,7.9922314453125,-0.3197198212146759,0.03143185004591942,0.08111198991537094
1789799211249204700,8.002204833984376,-0.41502368450164795,0.0477321594953537,0.11474744975566864
1789799211259176700,8.0121767578125,-0.5093022584915161,0.06945529580116272,0.13125638663768768
1789799211269148700,8.022148681640624,-0.5953146815299988,0.0845361053943634,0.13992337882518768
1789799211279120600,8.03212060546875,-0.6522828936576843,0.10040321946144104,0.1454012244939804
1789799211289092900,8.0420927734375,-0.7134000062942505,0.13261446356773376,0.1532323807477951
1789799211299064600,8.052064697265624,-0.7548747658729553,0.15365584194660187,0.14001324772834778
1789799211309036800,8.062036865234376,-0.7859517335891724,0.1436968743801117,0.10705863684415817
1789799211319008500,8.072008544921875,-0.8577768802642822,0.18065142631530762,0.07787438482046127
1789799211328980700,8.081980712890624,-0.9185826778411865,0.21487592160701752,0.02427734062075615
1789799211338952700,8.09195263671875,-0.987948477268219,0.24797821044921875,-0.060096658766269684
1789799211348924700,8.101924560546875,-1.0690548419952393,0.27791866660118103,-0.15569350123405457
1789799211358897700,8.111897705078125,-1.1472963094711304,0.3107895255088806,-0.23939372599124908
1789799211368870000,8.121869873046874,-1.218116283416748,0.34433406591415405,-0.29688286781311035
1789799211378841600,8.131841552734375,-1.2846430540084839,0.33142465353012085,-0.2983534634113312
1789799211388813800,8.141813720703125,-1.3446382284164429,0.29340654611587524,-0.27199786901474
1789799211398785500,8.15178564453125,-1.3930310010910034,0.2036588042974472,-0.2672121524810791
1789799211408757800,8.1617578125,-1.4435750246047974,0.08200161904096603,-0.27607691287994385
1789799211418729700,8.171729736328125,-1.4774041175842285,-0.07634647190570831,-0.3000357747077942
1789799211428701700,8.18170166015625,-1.4862253665924072,-0.20086650550365448,-0.3489658832550049
1789799211438673700,8.191673583984375,-1.4859356880187988,-0.26478928327560425,-0.4165174961090088
1789799211448645600,8.201645751953125,-1.4766228199005127,-0.2946188449859619,-0.484419584274292
1789799211458617600,8.21161767578125,-1.480952262878418,-0.26830950379371643,-0.5400338768959045
1789799211468590800,8.2215908203125,-1.4918755292892456,-0.14723774790763855,-0.5799679160118103
1789799211478562600,8.2315625,-1.5113943815231323,-0.008325150236487389,-0.6062034964561462
1789799211488534800,8.24153466796875,-1.534258484840393,0.07324180752038956,-0.6243059635162354
1789799211498506800,8.2515068359375,-1.5337013006210327,0.07774893939495087,-0.6207154989242554
1789799211508478700,8.261478759765625,-1.5389453172683716,0.018930260092020035,-0.6035981774330139
1789799211518450700,8.27145068359375,-1.5638957023620605,-0.04819444939494133,-0.5891063213348389
1789799211528422700,8.281422607421876,-1.5991111993789673,-0.13349370658397675,-0.5799384117126465
1789799211538394600,8.29139453125,-1.6371067762374878,-0.26418647170066833,-0.5730836987495422
1789799211548366800,8.301366943359374,-1.7063134908676147,-0.3800889551639557,-0.5728699564933777
1789799211558338600,8.311338623046876,-1.7287170886993408,-0.4467795491218567,-0.5799481272697449
1789799211568310800,8.321310791015625,-1.7101188898086548,-0.5003142356872559,-0.5859283804893494
1789799211578283800,8.33128369140625,-1.7016428709030151,-0.4737401604652405,-0.582443118095398
1789799211588255700,8.341255859375,-1.7177687883377075,-0.41719764471054077,-0.5720688700675964
1789799211598227700,8.351227783203125,-1.6924291849136353,-0.5368776917457581,-0.5598529577255249
1789799211608199700,8.36119970703125,-1.6920703649520874,-0.612795889377594,-0.500373125076294
1789799211618171600,8.371171630859376,-1.6889688968658447,-0.6255893707275391,-0.4459877610206604
1789799211628143900,8.381143798828125,-1.6575098037719727,-0.6422392725944519,-0.4211616516113281
1789799211638115600,8.391115478515625,-1.5997135639190674,-0.6793045997619629,-0.4172332286834717
1789799211648087800,8.401087890625,-1.5645185708999634,-0.7192636132240295,-0.3892325162887573
1789799211658059500,8.4110595703125,-1.498502492904663,-0.7526023983955383,-0.3330528438091278
1789799211668031700,8.42103173828125,-1.4563710689544678,-0.5795213580131531,-0.23744602501392365
1789799211678003500,8.43100341796875,-1.2815688848495483,-0.4956211447715759,-0.23065683245658875
1789799211687976700,8.440976806640625,-1.0936352014541626,-0.29257476329803467,-0.20300868153572083
1789799211697948700,8.45094873046875,-0.9205790758132935,-0.0765383169054985,-0.11437629163265228
1789799211707920600,8.460920654296874,-0.762292206287384,0.10502583533525467,-0.02100573480129242
1789799211717892600,8.470892578125,-0.6478679180145264,0.18680937588214874,-0.011435398831963539
1789799211727864800,8.48086474609375,-0.536508321762085,0.07345044612884521,-0.03306332975625992
1789799211737836500,8.49083642578125,-0.47532224655151367,-0.02882213518023491,0.01994902268052101
1789799211747808800,8.500808837890625,-0.37958982586860657,-0.03235391527414322,0.0266743041574955
1789799211757780500,8.510780517578125,-0.25431233644485474,0.015739576891064644,0.019444886595010757
1789799211767752700,8.520752685546874,-0.14082439243793488,0.08124688267707825,0.027741437777876854
1789799211777724700,8.530724609375,-0.02234167978167534,0.14190277457237244,0.044050898402929306
1789799211787696600,8.540696533203125,0.12023650109767914,0.23867172002792358,0.02488146349787712
1789799211797669600,8.550669677734374,0.279638409614563,0.3466048538684845,-0.01759755238890648
1789799211807641900,8.560641845703126,0.4174431562423706,0.4196484386920929,-0.040740158408880234
1789799211817613600,8.570613525390625,0.5257419347763062,0.4933202564716339,-0.052300672978162766
1789799211827585800,8.580585693359374,0.6378365159034729,0.58714359998703,-0.07193243503570557
1789799211837557500,8.5905576171875,0.7599328756332397,0.6781123876571655,-0.09968443214893341
1789799211847529700,8.60052978515625,0.872138500213623,0.7088953852653503,-0.10257169604301453
1789799211857501700,8.610501708984375,0.9945224523544312,0.707124650478363,-0.0880872905254364
1789799211867473700,8.6204736328125,1.1238362789154053,0.7363524436950684,-0.07855798304080963
1789799211877445600,8.630445556640625,1.257229208946228,0.7995806932449341,-0.07363966107368469
1789799211887417600,8.64041748046875,1.3738822937011719,0.8613247275352478,-0.07469160854816437
1789799211897389600,8.6503896484375,1.48768949508667,0.8829829096794128,-0.08775627613067627
1789799211907361800,8.66036181640625,1.6020609140396118,0.9021906852722168,-0.10232482105493546
1789799211917334500,8.67033447265625,1.7165606021881104,0.9521443843841553,-0.11969555914402008
1789799211927306800,8.680306640625,1.8398302793502808,1.021261215209961,-0.11803921312093735
1789799211937278700,8.69027880859375,1.9650771617889404,1.0327167510986328,-0.11621148884296417
1789799211947250700,8.700250732421875,2.0616512298583984,0.9529141783714294,-0.1033027395606041
1789799211957222700,8.71022265625,2.127664566040039,0.8709205389022827,-0.09546292573213577
1789799211967194600,8.720194580078125,2.1919333934783936,0.8332943320274353,-0.09878907352685928
1789799211977166600,8.73016650390625,2.2428853511810303,0.7980452179908752,-0.10549544543027878
1789799211987138800,8.740138916015624,2.281395196914673,0.7519803047180176,-0.1147850826382637
1789799211997110500,8.750110595703125,2.287569761276245,0.7197688221931458,-0.1097346693277359
1789799212007082800,8.760082763671875,2.282144069671631,0.7319235801696777,-0.11728660017251968
1789799212017054500,8.770054443359374,2.2995290756225586,0.710530161857605,-0.13717348873615265
1789799212027026700,8.780026611328125,2.314786195755005,0.6026890277862549,-0.14555445313453674
1789799212036999700,8.789999755859375,2.3232080936431885,0.4734947681427002,-0.11418428272008896
1789799212046971600,8.7999716796875,2.2797818183898926,0.44375094771385193,-0.09766975790262222
1789799212056943600,8.809943603515626,2.1970527172088623,0.41814732551574707,-0.08961901813745499
1789799212066915800,8.819915771484375,2.07832407951355,0.3273637294769287,-0.08420534431934357
1789799212076887600,8.829887451171874,1.931865930557251,0.22561845183372498,-0.05772233381867409
1789799212086859800,8.83985986328125,1.793792486190796,0.17176996171474457,-0.037050072103738785
1789799212096831500,8.84983154296875,1.6799194812774658,0.16304226219654083,-0.05578967183828354
1789799212106803700,8.8598037109375,1.579188346862793,0.1259923130273819,-0.09607092291116714
1789799212116775700,8.869775634765626,1.4456452131271362,0.09205379337072372,-0.10855049639940262
1789799212126747600,8.87974755859375,1.3286253213882446,0.050420697778463364,-0.1183738261461258
1789799212136719600,8.8897197265625,1.2217247486114502,-0.03229841589927673,-0.11256680637598038
1789799212146691600,8.899691650390626,1.1508815288543701,-0.15674591064453125,-0.09101464599370956
1789799212156664600,8.90966455078125,1.0629225969314575,-0.17758648097515106,-0.04659205675125122
1789799212166636800,8.91963671875,0.9739372730255127,-0.18122632801532745,-0.025717265903949738
1789799212176608500,8.9296083984375,0.8969913721084595,-0.16666096448898315,-0.01012312714010477
1789799212186580700,8.939580810546875,0.7972263693809509,-0.1411338597536087,-0.0030945143662393093
1789799212196552700,8.949552734375,0.7020391225814819,-0.16050542891025543,-0.011847791261970997
1789799212206524700,8.959524658203126,0.6324337124824524,-0.24235577881336212,-0.03155664727091789
1789799212216496600,8.96949658203125,0.5320866107940674,-0.11359860002994537,-0.02136233076453209
1789799212226468600,8.979468505859375,0.4415425956249237,-0.05022185668349266,-0.036557264626026154
1789799212236441600,8.989441650390624,0.3287995457649231,-0.007442968897521496,-0.04784480482339859
1789799212246413800,8.999413818359375,0.1786806285381317,0.010860031470656395,-0.02964968979358673
1789799212256385500,9.009385498046875,0.010453005321323872,0.015443330630660057,0.009931541047990322
1789799212266357800,9.019357666015624,-0.15299983322620392,0.014200320467352867,0.04792313277721405
1789799212276330800,9.029330810546876,-0.296061635017395,0.021534932777285576,0.06497162580490112
1789799212286302500,9.039302490234375,-0.4152793884277344,0.020064180716872215,0.05386331304907799
1789799212296274700,9.049274658203124,-0.5232857465744019,0.05047987774014473,0.021595388650894165
1789799212306246700,9.05924658203125,-0.6425450444221497,0.1383020281791687,-0.016224829480051994
1789799212316218600,9.069218505859375,-0.7527317404747009,0.2325662225484848,-0.05501643195748329
1789799212326190600,9.079190673828125,-0.8245236277580261,0.24852223694324493,-0.08459896594285965
1789799212336162600,9.08916259765625,-0.9103426933288574,0.240915447473526,-0.0875697210431099
1789799212346134800,9.099134765625,-0.9804450869560242,0.23468263447284698,-0.0789077877998352
1789799212356106800,9.109106689453125,-1.0536372661590576,0.26257234811782837,-0.05957616865634918
1789799212366078700,9.11907861328125,-1.14274263381958,0.2634441554546356,-0.056081440299749374
1789799212376050700,9.12905078125,-1.2309521436691284,0.26652008295059204,-0.08323688805103302
1789799212386022700,9.139022705078125,-1.3403960466384888,0.2887086868286133,-0.12605345249176025
1789799212395994600,9.14899462890625,-1.405070424079895,0.28712010383605957,-0.19922380149364471
1789799212405967600,9.158967529296875,-1.3721628189086914,0.2834603190422058,-0.2779119610786438
1789799212415939600,9.168939697265625,-1.3450145721435547,0.3474467396736145,-0.3685435950756073
1789799212425911600,9.17891162109375,-1.3296960592269897,0.32388249039649963,-0.47355523705482483
1789799212435883800,9.1888837890625,-1.3081228733062744,0.22226585447788239,-0.5530285239219666
1789799212445855700,9.198855712890625,-1.321254849433899,0.11729039996862411,-0.5647827982902527
1789799212455827700,9.20882763671875,-1.3855886459350586,0.033468201756477356,-0.5140117406845093
1789799212465799700,9.218799560546875,-1.4679303169250488,0.14400503039360046,-0.4939623773097992
1789799212475771600,9.228771728515625,-1.527918815612793,0.44865334033966064,-0.5960674285888672
1789799212485743900,9.238743896484374,-1.594562292098999,0.6483080983161926,-0.7285961508750916
1789799212495715600,9.248715576171875,-1.6153037548065186,0.6048253178596497,-0.787725031375885
1789799212505687800,9.258687744140625,-1.586867094039917,0.4317200481891632,-0.7936058640480042
1789799212515659500,9.268659423828124,-1.568565845489502,0.18794971704483032,-0.7921344637870789
1789799212525632500,9.278632568359376,-1.5598779916763306,-0.0536448173224926,-0.7812737822532654
1789799212535604700,9.288604736328125,-1.5619733333587646,-0.2163330763578415,-0.7622833251953125
1789799212545576400,9.298576416015624,-1.6126583814620972,-0.3087792992591858,-0.7517457008361816
1789799212555548700,9.308548583984376,-1.6604105234146118,-0.39428672194480896,-0.7736387848854065
1789799212565520600,9.318520751953125,-1.7000023126602173,-0.4224769175052643,-0.8192877769470215
1789799212575492600,9.32849267578125,-1.7486563920974731,-0.3870563209056854,-0.8584122657775879
1789799212585464800,9.33846484375,-1.758353352546692,-0.4503406584262848,-0.8889533281326294
1789799212595436500,9.3484365234375,-1.7755184173583984,-0.5396878719329834,-0.8692832589149475
1789799212605408800,9.35840869140625,-1.8321335315704346,-0.5661401152610779,-0.7993274331092834
1789799212615380700,9.368380615234376,-1.8303953409194946,-0.6642400622367859,-0.7663444876670837
1789799212625352700,9.378352783203125,-1.8226510286331177,-0.6285337209701538,-0.7192845940589905
1789799212635324700,9.38832470703125,-1.8243759870529175,-0.565018355846405,-0.6800114512443542
1789799212645296600,9.398296630859376,-1.7617301940917969,-0.6681672930717468,-0.6902828812599182
1789799212655269600,9.40826953125,-1.747066855430603,-0.7957542538642883,-0.6829684972763062
1789799212665241600,9.41824169921875,-1.7198376655578613,-0.9354422092437744,-0.6539706587791443
1789799212675213600,9.428213623046876,-1.664215087890625,-1.078542947769165,-0.5999974608421326
1789799212685185800,9.438185791015625,-1.6130316257476807,-1.084721326828003,-0.533883273601532
1789799212695157800,9.44815771484375,-1.4779249429702759,-1.1668598651885986,-0.5157716274261475
1789799212705129700,9.458129638671876,-1.3473011255264282,-1.134511113166809,-0.45441150665283203
1789799212715101700,9.468101806640625,-1.203345537185669,-1.0570091009140015,-0.3737233281135559
1789799212725073700,9.47807373046875,-1.0561965703964233,-0.9020121693611145,-0.3108433187007904
1789799212735045600,9.488045654296876,-0.8980453014373779,-0.6811849474906921,-0.26049357652664185
1789799212745017900,9.498017822265625,-0.7612903714179993,-0.4669654369354248,-0.22237429022789001
1789799212754989600,9.507989501953125,-0.5945056676864624,-0.24121485650539398,-0.18544475734233856
1789799212764961800,9.5179619140625,-0.4472927153110504,-0.053079474717378616,-0.15877918899059296
1789799212774933500,9.52793359375,-0.3124994933605194,0.0667707622051239,-0.11242233961820602
1789799212784905700,9.53790576171875,-0.19544771313667297,0.13837304711341858,-0.04276776313781738
1789799212794878700,9.547878662109374,-0.09510113298892975,0.24415700137615204,-0.004877373110502958
1789799212804850700,9.5578505859375,0.025261227041482925,0.3803250789642334,0.011030353605747223
1789799212814822700,9.56782275390625,0.1618691384792328,0.5273310542106628,0.013338781893253326
1789799212824795000,9.577794921875,0.28606459498405457,0.5925096273422241,0.022005775943398476
1789799212834766600,9.5877666015625,0.4056471884250641,0.6498229503631592,0.036941047757864
1789799212844738800,9.59773876953125,0.5265864133834839,0.7317032217979431,0.02255970798432827
1789799212854710500,9.60771044921875,0.677208662033081,0.8313432335853577,0.006788200698792934
1789799212864682800,9.617682861328126,0.8352904319763184,0.9235357642173767,0.007144804112613201
1789799212874654700,9.62765478515625,0.9579593539237976,0.9563496112823486,0.03100326471030712
1789799212884626700,9.637626708984374,1.0655200481414795,0.9618362784385681,0.05711328610777855
1789799212894598700,9.6475986328125,1.1971327066421509,1.0181632041931152,0.04654107242822647
1789799212904570600,9.657570556640625,1.3470072746276855,1.0861250162124634,0.029017342254519463
1789799212914542600,9.66754248046875,1.4756635427474976,1.0791749954223633,0.02003263495862484
1789799212924515800,9.677515869140626,1.5858067274093628,1.066240668296814,0.012679653242230415
1789799212934487600,9.687487548828125,1.679399013519287,1.0344047546386719,-0.009891968220472336
1789799212944459800,9.697459716796875,1.785264492034912,0.942888617515564,-0.045174334198236465
1789799212954431700,9.707431640625,1.8980319499969482,0.8374325037002563,-0.07416124641895294
1789799212964403700,9.71740380859375,2.0204532146453857,0.7844836711883545,-0.112075075507164
1789799212974375700,9.727375732421875,2.1421616077423096,0.7876741290092468,-0.14084678888320923
1789799212984347600,9.73734765625,2.2447822093963623,0.7698476910591125,-0.15363675355911255
1789799212994319600,9.747319580078125,2.297081232070923,0.6766014099121094,-0.14565180242061615
1789799213004291800,9.757291748046875,2.3185665607452393,0.6625129580497742,-0.15514877438545227
1789799213014263600,9.767263671875,2.3428900241851807,0.7258557081222534,-0.18999117612838745
1789799213024235800,9.77723583984375,2.361030340194702,0.7700850963592529,-0.22333474457263947
1789799213034207500,9.78720751953125,2.3829081058502197,0.7672496438026428,-0.2254522293806076
1789799213044179700,9.7971796875,2.419419288635254,0.7266823649406433,-0.21257556974887848
1789799213054151700,9.807151611328125,2.452322483062744,0.6661365032196045,-0.19938334822654724
1789799213064124700,9.817124755859375,2.4367082118988037,0.5311107635498047,-0.20541128516197205
1789799213074096600,9.8270966796875,2.39267897605896,0.3637292683124542,-0.20373483002185822
1789799213084068900,9.83706884765625,2.2913522720336914,0.2442047894001007,-0.217481791973114
1789799213094040600,9.84704052734375,2.145479679107666,0.20586645603179932,-0.22568245232105255
1789799213104012800,9.8570126953125,1.9739830493927002,0.15429070591926575,-0.2373504340648651
1789799213113984500,9.866984619140625,1.7925927639007568,0.08746960759162903,-0.26122114062309265
1789799213123956700,9.876956787109375,1.6249922513961792,0.03118838556110859,-0.26423531770706177
1789799213133928700,9.8869287109375,1.4683324098587036,-0.02181331254541874,-0.26367631554603577
1789799213143900700,9.896900634765625,1.3025760650634766,-0.13417617976665497,-0.2762042284011841
1789799213153872600,9.90687255859375,1.1839878559112549,-0.28048279881477356,-0.2911927402019501
1789799213163844600,9.9168447265625,1.0844298601150513,-0.40624910593032837,-0.3004117012023926
1789799213173816600,9.926816650390625,0.9540172815322876,-0.3828257918357849,-0.27854713797569275
1789799213183788800,9.936788818359375,0.839139461517334,-0.33472099900245667,-0.2607782781124115
1789799213193760500,9.946760498046874,0.7565135359764099,-0.3017217516899109,-0.2561805844306946
1789799213203733800,9.956733642578126,0.6446890234947205,-0.17929625511169434,-0.25586965680122375
1789799213213705700,9.966705810546875,0.5173619985580444,-0.0009329054737463593,-0.2570587396621704
1789799213223677700,9.976677734375,0.37204980850219727,0.0608857199549675,-0.2864621877670288
1789799213233649700,9.986649658203126,0.23766721785068512,0.0928412526845932,-0.30793631076812744
1789799213243620600,9.99662060546875,0.14902308583259583,0.08536683768033981,-0.3190624713897705
1789799213253592800,10.0065927734375,0.035538334399461746,-0.011993005871772766,-0.3334057331085205
1789799213263564800,10.016564697265625,-0.07829765230417252,-0.08083147555589676,-0.33500200510025024
1789799213273536800,10.026536865234375,-0.2030598223209381,-0.13940583169460297,-0.3158421516418457
1789799213283508700,10.0365087890625,-0.29688194394111633,-0.1563083827495575,-0.2725212275981903
1789799213293480700,10.046480712890625,-0.38752397894859314,-0.1169939935207367,-0.21676313877105713
1789799213303452700,10.05645263671875,-0.4646024703979492,-0.047975897789001465,-0.15468432009220123
1789799213313425000,10.0664248046875,-0.536189079284668,0.03311016410589218,-0.09103210270404816
1789799213323396600,10.076396728515626,-0.6020408272743225,0.1061406061053276,-0.027121564373373985
1789799213333368800,10.086368896484375,-0.6738982200622559,0.14668723940849304,0.03158329054713249
1789799213343341800,10.096341796875,-0.7473047375679016,0.1672465205192566,0.08423838019371033
1789799213353313800,10.106313720703126,-0.8324303030967712,0.16176199913024902,0.14075732231140137
1789799213363285800,10.11628564453125,-0.8712184429168701,0.024426091462373734,0.15361186861991882
1789799213373257700,10.1262578125,-0.9424172639846802,-0.0598301999270916,0.15112261474132538
1789799213383229700,10.136229736328126,-0.9789595603942871,-0.1386202573776245,0.11741670221090317
1789799213393202000,10.146201904296875,-1.043591856956482,-0.14543528854846954,0.08269893378019333
1789799213403173600,10.156173583984375,-1.1167025566101074,-0.12635084986686707,0.029355695471167564
1789799213413145900,10.166145751953126,-1.1776868104934692,-0.06828835606575012,-0.04425966739654541
1789799213423117600,10.17611767578125,-1.2179495096206665,0.05572064220905304,-0.1485835611820221
1789799213433089800,10.18608984375,-1.233380675315857,0.15494230389595032,-0.2577715516090393
1789799213443061800,10.196061767578126,-1.2640812397003174,0.18344919383525848,-0.3589264154434204
1789799213453033700,10.20603369140625,-1.3245997428894043,0.1397930532693863,-0.4351727068424225
1789799213463005700,10.216005615234375,-1.3880338668823242,0.03675698861479759,-0.4809000790119171
1789799213472977700,10.225977783203126,-1.4801355600357056,-0.17940965294837952,-0.4768635332584381
1789799213482949600,10.23594970703125,-1.5910825729370117,-0.39037439227104187,-0.43142950534820557
1789799213492921900,10.245921875,-1.670692801475525,-0.3996959924697876,-0.42983612418174744
1789799213502894600,10.25589453125,-1.7182395458221436,-0.10491468757390976,-0.5334821343421936
1789799213512866800,10.26586669921875,-1.7337015867233276,0.21298445761203766,-0.6663674712181091
1789799213522838800,10.2758388671875,-1.7096854448318481,0.29653099179267883,-0.7011282444000244
1789799213532810800,10.285810791015624,-1.67339026927948,0.0816892683506012,-0.6251381039619446
1789799213542782700,10.29578271484375,-1.633331537246704,-0.2650027871131897,-0.5408093333244324
1789799213552754700,10.305754638671875,-1.6364420652389526,-0.4753895699977875,-0.5270962119102478
1789799213562726700,10.3157265625,-1.6740914583206177,-0.5503868460655212,-0.5654296278953552
1789799213572699000,10.325698974609375,-1.7236601114273071,-0.6083998084068298,-0.6037581562995911
1789799213582670600,10.335670654296875,-1.765215516090393,-0.6974681615829468,-0.6210195422172546
1789799213592642800,10.345642822265624,-1.7994416952133179,-0.768210232257843,-0.6074568629264832
1789799213602614500,10.355614501953125,-1.8253235816955566,-0.9023945331573486,-0.5778144598007202
1789799213612586800,10.365586669921875,-1.8591103553771973,-0.8904334902763367,-0.5108993053436279
1789799213622558700,10.375558837890624,-1.8553297519683838,-0.9098436832427979,-0.46361061930656433
1789799213632530700,10.38553076171875,-1.8603146076202393,-0.9385852813720703,-0.43887490034103394
1789799213642503000,10.3955029296875,-1.885373592376709,-0.9176134467124939,-0.41789692640304565
1789799213652476000,10.405475830078124,-1.8875938653945923,-0.8804333209991455,-0.40264660120010376
1789799213662447600,10.415447509765626,-1.8317506313323975,-0.9820888042449951,-0.4151364266872406
1789799213672419800,10.425419921875,-1.776477575302124,-1.0278974771499634,-0.40972062945365906
1789799213682391600,10.4353916015625,-1.690865397453308,-1.0208698511123657,-0.38478341698646545
1789799213692363800,10.44536376953125,-1.5823160409927368,-1.076727271080017,-0.3364585041999817
1789799213702335700,10.455335693359375,-1.483817458152771,-1.0745772123336792,-0.24077486991882324
1789799213712307700,10.4653076171875,-1.274531364440918,-1.1167830228805542,-0.20643579959869385
1789799213722279700,10.47527978515625,-1.0849930047988892,-0.9271402359008789,-0.1721125841140747
1789799213732251600,10.485251708984375,-0.9265288710594177,-0.6643480658531189,-0.11797717213630676
1789799213742223600,10.4952236328125,-0.7523549795150757,-0.4377692639827728,-0.05114781856536865
1789799213752195800,10.50519580078125,-0.5654865503311157,-0.2593366801738739,-0.00030887359753251076
1789799213762167800,10.515167724609375,-0.40348508954048157,-0.09167857468128204,0.048818208277225494
1789799213772139800,10.525139892578125,-0.27098801732063293,0.04527847468852997,0.09697961062192917
1789799213782111700,10.53511181640625,-0.18636532127857208,0.14525669813156128,0.12230919301509857
1789799213792083700,10.545083740234375,-0.08615988492965698,0.21121148765087128,0.18563249707221985
1789799213802056000,10.555055908203125,0.023836633190512657,0.2779906392097473,0.22603358328342438
1789799213812028700,10.565028564453126,0.15735633671283722,0.3591395318508148,0.2128160446882248
1789799213822000600,10.575000732421875,0.2778915762901306,0.40024709701538086,0.20330816507339478
1789799213831972900,10.584972900390625,0.4143838882446289,0.4634609520435333,0.2124635875225067
1789799213841944600,10.594944580078124,0.5608010292053223,0.5137765407562256,0.20422562956809998
1789799213851916800,10.604916748046875,0.7101390957832336,0.5318807363510132,0.23507168889045715
1789799213861888800,10.614888671875,0.8669239282608032,0.5507128238677979,0.25424259901046753
1789799213871860700,10.62486083984375,1.0327718257904053,0.6006795763969421,0.24205170571804047
1789799213881833000,10.6348330078125,1.206276535987854,0.6955723166465759,0.22713014483451843
1789799213891804700,10.6448046875,1.349142074584961,0.698111355304718,0.2347257435321808
1789799213901777000,10.65477685546875,1.4638863801956177,0.6633581519126892,0.2633607089519501
1789799213911748600,10.66474853515625,1.5809235572814941,0.6794406771659851,0.2813471853733063
1789799213921720800,10.674720947265625,1.7031160593032837,0.7579476237297058,0.28052401542663574
1789799213931692800,10.68469287109375,1.8130470514297485,0.8461597561836243,0.29179105162620544
1789799213941664800,10.694664794921875,1.9030792713165283,0.8952304124832153,0.2982369363307953
1789799213951636700,10.70463671875,1.9823322296142578,0.9162478446960449,0.29545021057128906
1789799213961608700,10.714608642578124,2.0732438564300537,0.9030805826187134,0.2659747302532196
1789799213971581700,10.724581787109376,2.1806674003601074,0.8812785744667053,0.22643612325191498
1789799213981554000,10.734553955078125,2.274686813354492,0.8573786020278931,0.2053534835577011
1789799213991525600,10.744525634765624,2.360928535461426,0.7844823002815247,0.18956439197063446
1789799214001497900,10.754497802734376,2.4440181255340576,0.691865086555481,0.17601647973060608
1789799214011469800,10.7644697265625,2.506478786468506,0.6830694675445557,0.16577929258346558
1789799214021441800,10.77444189453125,2.5157535076141357,0.7011809945106506,0.15321744978427887
1789799214031413800,10.784413818359376,2.5007543563842773,0.6209577918052673,0.15063337981700897
1789799214041385700,10.7943857421875,2.491097927093506,0.46004602313041687,0.15297122299671173
1789799214051357700,10.804357666015624,2.4568192958831787,0.28847774863243103,0.13689079880714417
1789799214061330000,10.814329833984376,2.388585090637207,0.2125610113143921,0.11765185743570328
1789799214071301600,10.824301513671875,2.3062868118286133,0.16559270024299622,0.09813328832387924
1789799214081273900,10.83427392578125,2.1835131645202637,0.1024361178278923,0.09237831085920334
1789799214091245600,10.84424560546875,2.0676443576812744,0.029322221875190735,0.09352000802755356
1789799214101217800,10.8542177734375,1.9412240982055664,-0.03979432210326195,0.07792467623949051
1789799214111189800,10.864189697265624,1.8047395944595337,-0.10084861516952515,0.05775602161884308
1789799214121161700,10.87416162109375,1.6606796979904175,-0.12884671986103058,0.053476739674806595
1789799214131133700,10.8841337890625,1.5205334424972534,-0.1121971607208252,0.03455045446753502
1789799214141105700,10.894105712890624,1.351915955543518,-0.1288689225912094,-0.0013263300061225891
1789799214151078700,10.90407861328125,1.2407809495925903,-0.2971159815788269,-0.03534635156393051
1789799214161051000,10.91405078125,1.132412075996399,-0.37283289432525635,-0.013091649860143661
1789799214171022600,10.924022705078125,1.039394497871399,-0.4669269025325775,0.006305483169853687
1789799214180994800,10.933994873046874,0.9465740323066711,-0.5042780637741089,0.017846425995230675
1789799214190966800,10.943966796875,0.8704299926757812,-0.5034216046333313,0.0001553134061396122
1789799214200938800,10.953938720703125,0.7417482137680054,-0.4716545343399048,-0.04176030680537224
1789799214210910700,10.96391064453125,0.6006233096122742,-0.3366575837135315,-0.054182086139917374
1789799214220882700,10.973882568359375,0.47065433859825134,-0.24283365905284882,-0.06438307464122772
1789799214230854700,10.983854736328125,0.3223319947719574,-0.1342424750328064,-0.06069086119532585
1789799214240827000,10.993826904296874,0.16218654811382294,-0.032342322170734406,-0.04016014561057091
1789799214250798600,11.003798583984375,-0.010177768766880035,0.016771163791418076,-0.013354364782571793
1789799214260770800,11.013770751953125,-0.15900911390781403,-0.028885414823889732,0.01449735090136528
1789799214270742800,11.02374267578125,-0.27733683586120605,-0.07000994682312012,0.07005142420530319
1789799214280714800,11.03371484375,-0.3854565918445587,-0.10371103882789612,0.1313696652650833
1789799214290686700,11.043686767578125,-0.4738604724407196,-0.10251021385192871,0.17190323770046234
1789799214300658700,11.05365869140625,-0.5381870269775391,-0.059046629816293716,0.19804921746253967
1789799214310631000,11.063630859375,-0.6311613917350769,0.07625872641801834,0.24980056285858154
1789799214320603000,11.073602783203125,-0.7368287444114685,0.1474865823984146,0.29959821701049805
1789799214330575600,11.08357568359375,-0.851995050907135,0.08332383632659912,0.32786208391189575
1789799214340547800,11.0935478515625,-0.9162213802337646,-0.052813656628131866,0.3099324703216553
1789799214350519800,11.103519775390625,-0.9491626024246216,-0.15626440942287445,0.2739401161670685
1789799214360491800,11.11349169921875,-0.9925161600112915,-0.23188264667987823,0.24104222655296326
1789799214370463700,11.123463623046876,-1.0651406049728394,-0.21986272931098938,0.22371943295001984
1789799214380435700,11.133435791015625,-1.094040036201477,-0.30024418234825134,0.1732562631368637
1789799214390407700,11.14340771484375,-1.1162981986999512,-0.30935537815093994,0.12116695940494537
1789799214400380000,11.1533798828125,-1.16067373752594,-0.20248943567276,0.058064285665750504
1789799214410351900,11.163351806640625,-1.2180705070495605,-0.038783859461545944,-0.030263716354966164
1789799214420323800,11.17332373046875,-1.299478530883789,0.13206905126571655,-0.11907094717025757
1789799214430295800,11.1832958984375,-1.4001445770263672,0.22320163249969482,-0.19072729349136353
1789799214440267800,11.193267822265625,-1.5077462196350098,0.2301296889781952,-0.2303377091884613
1789799214450240000,11.203239990234374,-1.6203137636184692,0.16406811773777008,-0.2556861937046051
1789799214460211700,11.213211669921876,-1.7038339376449585,-0.009601217694580555,-0.2671927809715271
1789799214470184000,11.223183837890625,-1.764098048210144,-0.2005530595779419,-0.2620675265789032
1789799214480155600,11.23315576171875,-1.7821600437164307,-0.24568921327590942,-0.313076913356781
1789799214490128000,11.2431279296875,-1.7565652132034302,-0.10503461211919785,-0.42747727036476135
1789799214500099800,11.253099853515625,-1.7189035415649414,0.06008206307888031,-0.4892719089984894
1789799214510071800,11.26307177734375,-1.6811540126800537,0.06974934041500092,-0.4785412549972534
1789799214520044800,11.273044921875,-1.6632258892059326,-0.03905064985156059,-0.41787949204444885
1789799214530017000,11.28301708984375,-1.6708933115005493,-0.18816371262073517,-0.3775656223297119
1789799214539988700,11.29298876953125,-1.7196259498596191,-0.28107762336730957,-0.38526296615600586
1789799214549961000,11.3029609375,-1.7850995063781738,-0.3090687692165375,-0.4226526618003845
1789799214559932700,11.3129326171875,-1.8322699069976807,-0.30669498443603516,-0.4487244784832001
1789799214569905000,11.32290478515625,-1.8753385543823242,-0.28999456763267517,-0.45074447989463806
1789799214579876900,11.332876953125,-1.8685156106948853,-0.42465940117836,-0.45377156138420105
1789799214589848800,11.342848876953125,-1.8938814401626587,-0.5370341539382935,-0.41342228651046753
1789799214599820800,11.35282080078125,-1.9559029340744019,-0.5822066068649292,-0.3468734920024872
1789799214609792800,11.362792724609376,-1.978153109550476,-0.6828392148017883,-0.3085636496543884
1789799214619764700,11.3727646484375,-1.9741160869598389,-0.7274869084358215,-0.292041540145874
1789799214629737000,11.382737060546875,-1.9397951364517212,-0.7925980091094971,-0.2925339639186859
1789799214639708700,11.392708740234376,-1.9296106100082397,-0.8072379231452942,-0.2920798659324646
1789799214649681000,11.402680908203125,-1.9153412580490112,-0.7680696249008179,-0.2625020146369934
1789799214659652600,11.412652587890625,-1.7829115390777588,-0.9144174456596375,-0.2597053050994873
1789799214669624800,11.422624755859376,-1.6592702865600586,-1.0494415760040283,-0.23496320843696594
1789799214679596800,11.4325966796875,-1.5280044078826904,-1.1327491998672485,-0.20692197978496552
1789799214689568800,11.44256884765625,-1.3823171854019165,-1.1621185541152954,-0.17852869629859924
1789799214699540700,11.452540771484376,-1.2042369842529297,-1.1099615097045898,-0.1473219096660614
1789799214709512700,11.4625126953125,-1.018402099609375,-0.9924074411392212,-0.08576959371566772
1789799214719485700,11.472485595703125,-0.842875063419342,-0.8452695608139038,0.0018626570235937834
1789799214729458000,11.4824580078125,-0.6751275658607483,-0.7083516716957092,0.0898580253124237
1789799214739429600,11.4924296875,-0.49851688742637634,-0.49168092012405396,0.12573252618312836
1789799214749401900,11.50240185546875,-0.3484320342540741,-0.24048836529254913,0.10925928503274918
1789799214759373800,11.512373779296874,-0.21489261090755463,-0.035389069467782974,0.12386632710695267
1789799214769345800,11.522345703125,-0.09353156387805939,0.12444666773080826,0.1427486687898636
1789799214779317800,11.53231787109375,0.020427508279681206,0.279967337846756,0.11998863518238068
1789799214789289700,11.542289794921874,0.14008387923240662,0.3869026005268097,0.11061990261077881
1789799214799261700,11.55226171875,0.29452723264694214,0.5206911563873291,0.1336490511894226
1789799214809234000,11.56223388671875,0.45095065236091614,0.6446647644042969,0.13294783234596252
1789799214819206000,11.572205810546874,0.6007795333862305,0.7417579293251038,0.13006295263767242
1789799214829177900,11.582177734375,0.7279478907585144,0.8117513656616211,0.1190691664814949
1789799214839149800,11.59214990234375,0.8679282069206238,0.8726176023483276,0.09678585082292557
1789799214849121800,11.602121826171874,1.0184180736541748,0.9320843815803528,0.08140849322080612
1789799214859094000,11.612093994140626,1.1678733825683594,0.9493468403816223,0.08353409171104431
1789799214869065700,11.622065673828125,1.328554630279541,0.9356779456138611,0.07694276422262192
1789799214879038000,11.632037841796874,1.4931145906448364,0.9197990298271179,0.06733593344688416
1789799214889009700,11.642009765625,1.648250937461853,0.9267237782478333,0.05715067312121391
1789799214898982000,11.65198193359375,1.793671727180481,0.9196135401725769,0.042686253786087036
1789799214908953900,11.661953857421874,1.9124929904937744,0.882175624370575,0.03013530559837818
1789799214918926600,11.671926513671876,1.9975299835205078,0.8496003746986389,0.007797501049935818
1789799214928898800,11.68189892578125,2.0804219245910645,0.7658618092536926,-0.004488193430006504
1789799214938870800,11.691870849609375,2.176467180252075,0.701485276222229,-0.016051629558205605
1789799214948842800,11.7018427734375,2.288057804107666,0.6945579051971436,-0.028040381148457527
1789799214958815000,11.71181494140625,2.382725715637207,0.661282479763031,-0.04473188892006874
1789799214968786700,11.72178662109375,2.434148073196411,0.5483223795890808,-0.05290406569838524
1789799214978759000,11.731759033203126,2.455186367034912,0.47619301080703735,-0.03134257346391678
1789799214988731000,11.74173095703125,2.467191696166992,0.4945983588695526,-0.006840693298727274
1789799214998702800,11.751702880859375,2.4762067794799805,0.5459681749343872,0.004573488608002663
1789799215008674800,11.7616748046875,2.494757890701294,0.5520958304405212,0.01772604137659073
1789799215018646800,11.771646728515625,2.4974803924560547,0.5098811388015747,0.034002479165792465
1789799215028618800,11.78161865234375,2.4771411418914795,0.4189584255218506,0.04492224007844925
1789799215038591000,11.791591064453126,2.4239933490753174,0.2915036678314209,0.055628933012485504
1789799215048562700,11.801562744140625,2.337003707885742,0.13973571360111237,0.05745026841759682
1789799215058535000,11.811534912109375,2.232346773147583,0.05864661931991577,0.07591743022203445
1789799215068506600,11.821506591796876,2.0996015071868896,-0.05899958685040474,0.0804717019200325
1789799215078478800,11.831478759765625,1.9495095014572144,-0.14475752413272858,0.08296015858650208
1789799215088450800,11.841450927734375,1.8014081716537476,-0.2505683898925781,0.07071387767791748
1789799215098422800,11.8514228515625,1.66591477394104,-0.34439340233802795,0.07043718546628952
1789799215108394800,11.861394775390625,1.5096958875656128,-0.4558781385421753,0.0730433538556099
1789799215118366700,11.87136669921875,1.3810378313064575,-0.5876433849334717,0.09311692416667938
1789799215128338700,11.881338623046876,1.2744477987289429,-0.664351761341095,0.1268109679222107
1789799215138312000,11.89131201171875,1.1550565958023071,-0.6699829697608948,0.16265060007572174
1789799215148283000,11.901282958984375,1.0372647047042847,-0.6757897138595581,0.16887281835079193
1789799215158255900,11.911255859375,0.9187143445014954,-0.6137411594390869,0.16335007548332214
1789799215168227800,11.921227783203125,0.812122642993927,-0.6466109156608582,0.13137109577655792
1789799215178199800,11.93119970703125,0.6609470248222351,-0.4748286008834839,0.11979034543037415
1789799215188171800,11.941171875,0.51682448387146,-0.27699166536331177,0.06909281015396118
1789799215198143700,11.951143798828125,0.3767698407173157,-0.16938504576683044,-0.03589978814125061
1789799215208115700,11.96111572265625,0.2106676995754242,-0.142446368932724,-0.1357259750366211
1789799215218088000,11.971087890625,0.03828554227948189,-0.09440918266773224,-0.1684132218360901
1789799215228059600,11.9810595703125,-0.13190430402755737,-0.07025138288736343,-0.130000039935112
1789799215238032100,11.9910322265625,-0.27476397156715393,-0.03635542094707489,-0.03978893160820007
1789799215248003800,12.00100390625,-0.3815612494945526,-0.061950527131557465,0.030407734215259552
1789799215257976000,12.01097607421875,-0.47247299551963806,-0.1383248269557953,0.055277276784181595
1789799215267948000,12.020947998046875,-0.5537013411521912,-0.14395448565483093,0.062852643430233
1789799215277920000,12.030919921875,-0.6224449276924133,-0.056629955768585205,0.06326235830783844
1789799215287892200,12.040892333984376,-0.6795644164085388,0.07615445554256439,0.06712766736745834
1789799215297864000,12.050864013671875,-0.7286139726638794,0.15335863828659058,0.08539162576198578
1789799215307836200,12.060836181640624,-0.7818260788917542,0.1547006070613861,0.11966358125209808
1789799215317807900,12.070807861328126,-0.8468692898750305,0.17816917598247528,0.1677156686782837
1789799215327780000,12.080780029296875,-0.9273247122764587,0.19897033274173737,0.20595332980155945
1789799215337752000,12.090751953125,-1.0146716833114624,0.18072155117988586,0.2149316370487213
1789799215347724000,12.10072412109375,-1.0887815952301025,0.1217125654220581,0.20417165756225586
1789799215357696000,12.110696044921875,-1.169392466545105,0.01063280925154686,0.18498200178146362
1789799215367668000,12.12066796875,-1.2488616704940796,-0.0734543725848198,0.1591397523880005
1789799215377640000,12.130639892578126,-1.3258063793182373,-0.06681717932224274,0.12421251088380814
1789799215387613200,12.14061328125,-1.3936794996261597,0.009652825072407722,0.06605280190706253
1789799215397585000,12.1505849609375,-1.451501488685608,0.07336628437042236,-0.01971256174147129
1789799215407557000,12.16055712890625,-1.516067624092102,0.043603066354990005,-0.10213366895914078
1789799215417529000,12.170529052734375,-1.6179008483886719,-0.08866868913173676,-0.14953060448169708
1789799215427501000,12.1805009765625,-1.7178138494491577,-0.30225685238838196,-0.18522974848747253
1789799215437473000,12.19047314453125,-1.8092186450958252,-0.4462244212627411,-0.22248832881450653
1789799215447445000,12.200445068359375,-1.8634155988693237,-0.4006097912788391,-0.308396577835083
1789799215457417000,12.2104169921875,-1.8777536153793335,-0.20717068016529083,-0.4165041148662567
1789799215467389200,12.22038916015625,-1.8808495998382568,0.021468093618750572,-0.495911568403244
1789799215477361000,12.23036083984375,-1.8753530979156494,0.1171213760972023,-0.5316276550292969
1789799215487333000,12.2403330078125,-1.8424084186553955,0.029018418863415718,-0.48266860842704773
1789799215497304800,12.250304931640626,-1.7866169214248657,-0.11499877274036407,-0.37648189067840576
1789799215507277000,12.260277099609375,-1.788187861442566,-0.24916990101337433,-0.3065808415412903
1789799215517249000,12.2702490234375,-1.81331467628479,-0.31251636147499084,-0.3021467626094818
1789799215527221000,12.280220947265626,-1.851566195487976,-0.3332922160625458,-0.33745309710502625
1789799215537193000,12.29019287109375,-1.913054347038269,-0.39146000146865845,-0.3452129065990448
1789799215547165000,12.3001650390625,-1.934330940246582,-0.5308887362480164,-0.3332771360874176
1789799215557137000,12.310136962890626,-1.971911907196045,-0.692058265209198,-0.29152676463127136
1789799215567109000,12.320109130859375,-2.028888702392578,-0.679882287979126,-0.214873269200325
1789799215577081000,12.3300810546875,-2.0228288173675537,-0.7175136804580688,-0.1807214319705963
1789799215587053000,12.340052978515626,-1.9908461570739746,-0.7145740985870361,-0.1649635136127472
1789799215597025000,12.35002490234375,-1.920798897743225,-0.6810405254364014,-0.138870507478714
1789799215606997000,12.3599970703125,-1.8499311208724976,-0.7371786236763,-0.09104067087173462
1789799215616969200,12.36996923828125,-1.7941277027130127,-0.791019082069397,-0.01996823213994503
1789799215626941000,12.37994091796875,-1.693152904510498,-0.9707198739051819,0.0006515595596283674
1789799215636914000,12.389913818359375,-1.5799888372421265,-1.131996989250183,0.025026150047779083
