time,seconds_elapsed,z,y,x
1789453531540997000,0.0569970703125,9.079710520935057,7.013963401031494,-0.5606921012878417
1789453531550936000,0.06693603515625,9.121309774780272,6.5038488098144525,-0.6220435188293457
1789453531560875800,0.076875732421875,8.711602015686035,5.762544120788574,-0.9546879119873046
1789453531570815000,0.08681494140625,7.977031018829345,5.144391179656982,-1.4659996040344236
1789453531580755000,0.0967548828125,7.309647306060791,4.874594580078124,-2.0548235748291015
1789453531590694000,0.10669384765625,7.020098542785644,4.9360956352233885,-2.5049334869384765
1789453531600634000,0.116634033203125,7.257274144744873,5.146785381317138,-2.6575638427734374
1789453531610573000,0.126572998046875,7.690026094818115,5.258863946533203,-2.505831312561035
1789453531620513000,0.136512939453125,7.94859987411499,5.397877280426025,-1.9795558601379393
1789453531630452000,0.146451904296875,8.027907804107665,5.566219584655761,-1.3383587280273437
1789453531640392200,0.15639208984375,8.072050897216796,5.86130493927002,-0.7275380294799805
1789453531650331100,0.1663310546875,8.228122917938231,6.265476107025146,-0.4574421546936035
1789453531660270800,0.176270751953125,8.736292220306396,6.931513081359863,-0.23523031311035156
1789453531670211000,0.186211181640625,9.764302558135986,7.523329804229736,0.24660277099609373
1789453531680150000,0.19614990234375,10.456376475524902,7.209689386749267,0.29343934097290036
1789453531690090000,0.206090087890625,10.415076496887206,6.547842265319824,-0.13871405868530273
1789453531700029000,0.21602880859375,9.95957963104248,5.065981075286865,-0.38741175613403317
1789453531709969200,0.22596923828125,6.80551821899414,3.2953193099975584,-0.3559878593444824
1789453531719908000,0.235908203125,3.949983826446533,2.2493524597167966,-0.6673837127685547
1789453531729847800,0.245847900390625,3.4014123710632322,2.643497908020019,-1.2373533454895018
1789453531739787000,0.255787109375,2.3766940605163573,2.9441198539733886,-1.8384475997924803
1789453531749727000,0.26572705078125,3.7873277511596677,3.33901349029541,-2.0355203239440915
1789453531759666000,0.275666015625,8.410381519317626,5.771821652221679,-2.864213373565674
1789453531769606000,0.28560595703125,12.977770098876952,8.44719236984253,-3.799298759460449
1789453531779545000,0.295545166015625,11.77947216796875,7.032817739105224,-3.403956210327148
1789453531789485000,0.305485107421875,7.383418644714355,4.372710057067871,-2.092831526184082
1789453531799424000,0.315424072265625,4.177432984161377,1.993172882080078,-1.8957588020324705
1789453531809364000,0.325364013671875,3.330633784484863,1.795800882720947,-2.6056395942687987
1789453531819303000,0.335302978515625,5.153219798278808,6.565349864959717,-3.6692636817932125
1789453531829243000,0.345242919921875,8.614187935638427,9.389310723114013,-4.844667059326172
1789453531839181800,0.355181884765625,11.279532933807372,6.462099918365478,-4.460098417663574
1789453531849122000,0.3651220703125,11.003601192474365,3.2351649932861326,-3.6514568069458004
1789453531859061000,0.37506103515625,9.99773722000122,1.5068506698608397,-1.1091139190673827
1789453531869001000,0.3850009765625,11.539752726745604,1.3869909492492676,0.7387608497619629
1789453531878940200,0.394940185546875,13.519458224487304,2.7825112419128417,1.2949638229370117
1789453531888880000,0.404880126953125,11.788001511383056,3.2212486961364744,1.2632406509399414
1789453531898819800,0.41481982421875,9.827898539733885,3.1592987281799316,0.780809016418457
1789453531908758800,0.4247587890625,8.244283779144286,3.1925182762145994,0.10459668502807616
1789453531918699000,0.434698974609375,6.343437298583984,3.080589348602295,-0.19961656341552733
1789453531928638200,0.44463818359375,5.307196892547607,3.464709077453613,0.0022445640563964844
1789453531938578200,0.454578125,5.212027376556396,4.674229828643798,0.3321954803466797
1789453531948517400,0.464517333984375,5.045929636383057,5.910386073303222,0.8099883491516113
1789453531958457300,0.474457275390625,4.767154780578613,6.287921747589111,1.2277765388488768
1789453531968396300,0.484396240234375,4.835838440704346,5.346252307128906,1.3377601776123047
1789453531978336300,0.494336181640625,6.303334420776367,4.271555036926269,2.1835119140624997
1789453531988275200,0.504275146484375,9.239074568939209,4.306121323394775,3.5345898384094236
1789453531998215200,0.514215087890625,11.027842484283447,4.73064320526123,4.39216294555664
1789453532008154000,0.524154052734375,10.67439846420288,4.867262337493896,4.487931011962891
1789453532018094300,0.53409423828125,10.08018753967285,4.867112699890137,4.091690637207031
1789453532028033300,0.544033203125,9.542240354156494,4.758625437164306,2.9376854370117185
1789453532037973200,0.55397314453125,8.810213196563721,4.828955110931396,2.035819599151611
1789453532047912200,0.563912109375,7.5718123878479,5.218910706329345,2.4033295539855954
1789453532057852200,0.57385205078125,6.255001474761962,6.172401517486572,2.5212439857482907
1789453532067792100,0.583792236328125,5.3938370651245116,7.267449501800536,2.23453833694458
1789453532077731000,0.59373095703125,5.13945313873291,7.760655043792724,2.437297290039062
1789453532087671300,0.60367138671875,5.395483078765869,7.418134568786621,2.934243772125244
1789453532097610200,0.6136103515625,6.931363443756103,6.650044748687744,3.566911560821533
1789453532107550200,0.62355029296875,9.134777159118652,5.755211878204346,3.5749919914245605
1789453532117489400,0.633489501953125,10.389338829040527,5.12688358001709,3.0832828254699707
1789453532127429000,0.64342919921875,10.52161847076416,4.790198971557617,2.6069863327026366
1789453532137368300,0.653368408203125,10.249726944732666,4.680364970397949,1.9526210914611815
1789453532147308300,0.663308349609375,9.863063376617431,4.585943642425537,1.3052888175964354
1789453532157247200,0.673247314453125,9.080309071350097,4.839878656005859,1.2922703460693359
1789453532167187200,0.683187255859375,8.793304147338867,5.112518370056152,1.5352818145751952
1789453532177126100,0.693126220703125,9.018508740997314,5.421520021820068,2.0681413215637208
1789453532187066400,0.70306640625,9.18759923324585,5.843049151611328,2.532466806030273
1789453532197005300,0.71300537109375,8.838045790863037,5.842899514007568,2.466177347564697
1789453532206945300,0.7229453125,8.338555469512938,5.690119520568848,2.1677999656677245
1789453532216885200,0.73288525390625,7.798812632751464,5.580734432220459,1.8330606460571288
1789453532226824200,0.74282421875,7.27852268447876,5.8357169090270995,1.6502034942626953
1789453532236764200,0.75276416015625,7.435342893218993,6.00136573638916,1.6174328590393066
1789453532246703000,0.762703125,7.663689876556396,6.065709906005859,1.802983487701416
1789453532256643300,0.772643310546875,8.174851930999756,6.001665011596679,2.0106804817199704
1789453532266582300,0.782582275390625,8.826972608184814,5.887790795135498,2.522291448974609
1789453532276522200,0.792522216796875,9.618854807281494,5.771971289825439,2.6309283493041993
1789453532286461400,0.80246142578125,9.289502441406249,5.502025052642822,2.3020248962402343
1789453532296401200,0.812401123046875,8.42773948135376,5.431994654083252,1.8900725730895995
1789453532306340000,0.822340087890625,8.148964625549317,5.329792170715332,1.5174749397277831
1789453532316280000,0.832280029296875,7.499238150024413,5.409549013519287,1.4772224243164063
1789453532326220300,0.84222021484375,7.023689845275879,5.717353564453124,1.5560814414978026
1789453532336159200,0.8521591796875,6.795342861938476,5.969792201995849,1.5846622238159178
1789453532346099200,0.86209912109375,6.053439622497558,6.120327631378173,1.6774375381469726
1789453532356038400,0.872038330078125,6.232256558990478,6.153696817016601,1.5952864936828612
1789453532365978400,0.881978271484375,6.484545558929443,5.933130989074707,1.4820108276367188
1789453532375917300,0.891917236328125,6.782922940826416,5.596147105407715,1.248875440979004
1789453532385857300,0.901857177734375,7.154173835754394,5.456235945892334,1.1894693122863769
1789453532395796200,0.911796142578125,7.4703580924987785,5.548711985015869,1.2496236289978027
1789453532405736200,0.921736083984375,7.5902178131103515,5.609315214538574,1.285087741088867
1789453532415675100,0.931675048828125,7.5439797935485835,5.663783302307128,1.3615525566101074
1789453532425615400,0.941615478515625,7.407510298919678,5.788431426239013,1.4737807594299315
1789453532435555300,0.951555419921875,7.3563342384338375,5.955576629638672,1.5307926864624022
1789453532445494300,0.961494384765625,7.239018357086181,6.134393566131592,1.6698060203552245
1789453532455434200,0.971434326171875,7.162703179168701,6.354510481262206,2.044797855377197
1789453532465373200,0.981373291015625,7.402123345184326,6.5385647338867185,2.4064719436645507
1789453532475313200,0.991313232421875,7.83981333618164,6.583605652618408,2.5125650047302246
1789453532485252000,1.001252197265625,8.116642903137206,6.4555158638000485,2.3540987823486326
1789453532495192300,1.0111923828125,8.218546111297607,6.239738439178466,2.104353621673584
1789453532505131300,1.02113134765625,8.40170253829956,6.111199737548827,1.921047557067871
1789453532515071200,1.0310712890625,8.583063314056396,6.007351240539551,1.8546084609985352
1789453532525010400,1.041010498046875,8.792705596923827,5.91831686630249,1.9047370582580565
1789453532534950100,1.0509501953125,9.229497762298584,5.918915416717529,2.0362685119628905
1789453532544890000,1.06089013671875,9.65895768508911,5.995529869842529,2.307411849975586
1789453532554829000,1.0708291015625,9.92740754623413,6.026504853820801,2.6295816108703614
1789453532564769300,1.080769287109375,9.879074600219726,6.06511135559082,2.7085902656555176
1789453532574708200,1.090708251953125,9.504681315612793,6.0610711402893065,2.668038475036621
1789453532584648200,1.100648193359375,9.132532595062255,6.202927588653564,2.6517279762268067
1789453532594587400,1.11058740234375,8.824877681732177,6.358999609374999,2.553266432952881
1789453532604527400,1.12052734375,8.425943830108642,6.551283930206298,2.3992893386840817
1789453532614466300,1.13046630859375,8.120084568023682,6.625953094482422,2.025644242095947
1789453532624406300,1.14040625,7.750030773925781,6.514921992492676,1.5791256324768066
1789453532634345200,1.15034521484375,7.5062711174011225,6.3323641159057615,1.2077250999450684
1789453532644285200,1.16028515625,7.463923675537109,6.2867246467590325,1.0326491035461425
1789453532654225400,1.170225341796875,7.4028715332031245,6.26263299255371,0.9334393722534179
1789453532664164400,1.180164306640625,7.369951260375976,6.159981596374512,0.7679401824951172
1789453532674104300,1.190104248046875,7.397035666656493,6.066158818817138,0.6681319007873535
1789453532684043300,1.200043212890625,7.5810899192810055,6.193500419616699,1.0871171913146973
1789453532693983200,1.209983154296875,8.054244022369383,6.310816300964355,1.575683967590332
1789453532703922200,1.219922119140625,8.304587733459472,6.269665959930419,1.6635212409973144
1789453532713862100,1.229862060546875,8.13370158996582,6.126013860321045,1.5581763679504395
1789453532723801000,1.239801025390625,7.781005757904052,5.996726970672607,1.38549457321167
1789453532733741300,1.2497412109375,7.382520819091797,5.866242980194092,1.1136030471801757
1789453532743681300,1.259681396484375,6.982689141845703,5.762244845581054,0.9118915573120117
1789453532753620200,1.2696201171875,6.721421885681152,5.644330413818359,0.6892308029174804
1789453532763560200,1.279560302734375,6.4840966461181635,5.519233377075195,0.5804442649841308
1789453532773499100,1.2894990234375,6.22507395401001,5.539883366394043,0.6615478462219238
1789453532783439000,1.299439208984375,6.00750087814331,5.56038371810913,0.7466916427612305
1789453532793378300,1.30937841796875,5.906495495605468,5.438728346252441,0.7015010864257812
1789453532803318300,1.319318359375,5.912780274963379,5.2822074127197265,0.6063315704345703
1789453532813257200,1.32925732421875,5.9974751586914055,5.194519776916503,0.7275380294799805
1789453532823197200,1.339197265625,6.161328334808349,5.283853426361084,0.8897451919555663
1789453532833137200,1.34913720703125,6.16716420135498,5.455936670684814,0.9401730644226074
1789453532843076400,1.359076416015625,5.856666173553466,5.6854807548522945,0.856824919128418
1789453532853016000,1.36901611328125,5.537040251922607,5.822099887084961,0.5954080253601074
1789453532862955300,1.378955322265625,5.47763412322998,5.766584336090087,0.30615853729248044
1789453532872895200,1.388895263671875,5.729923123168945,5.593453628540039,0.033219548034667964
1789453532882834200,1.398834228515625,6.278943491363525,5.410297201538086,-0.3537432952880859
1789453532892774400,1.4087744140625,6.641365767669678,5.4233156730651855,-0.4165910888671875
1789453532902713300,1.41871337890625,7.133673484039306,5.41388850402832,-0.1788169364929199
1789453532912653300,1.4286533203125,7.8429557258605955,5.493944622039795,0.3012204963684082
1789453532922593300,1.43859326171875,7.910741560363769,5.5659203094482415,0.5615899269104003
1789453532932532700,1.44853271484375,7.467215702819824,6.051793608856201,0.6521206771850585
1789453532942473000,1.458472900390625,6.698078419494628,6.185868901824951,0.36541502838134765
1789453532952412000,1.468411865234375,6.159233408355712,5.882104566192627,0.0025438392639160153
1789453532962351900,1.478351806640625,6.224924316406249,5.829282492065429,-0.30346506042480464
1789453532972291000,1.488291015625,6.373215181732177,5.885546231079101,-0.7688380081176758
1789453532982230800,1.498230712890625,6.904279037475585,5.50980620803833,-0.9085995300292968
1789453532992170800,1.508170654296875,7.716362313079833,5.322011015319824,-0.8303390632629394
1789453533002110000,1.51810986328125,8.259397177124024,5.506514180755615,-0.5698199951171875
1789453533012050000,1.5280498046875,8.543409349060058,5.544372494506836,-0.30750527572631836
1789453533021988900,1.53798876953125,7.438036370086669,5.827337203216552,0.0073322425842285155
1789453533031929000,1.54792919921875,6.540210747528076,6.544849513244628,0.14948796615600585
1789453533041868000,1.557867919921875,6.0981812660217285,6.00750087814331,-0.3033154228210449
1789453533051808000,1.56780810546875,5.499481213378906,6.102221481323242,-0.18854338073730467
1789453533061747000,1.577746826171875,5.575347478485107,5.949441487884521,0.03232172241210937
1789453533071687000,1.58768701171875,6.009595804595947,5.657199247741699,0.09980828170776367
1789453533081627000,1.597626953125,6.358999609374999,5.588216312408447,0.31393969268798827
1789453533091565800,1.60756591796875,6.742071875,5.533897862243652,0.4460696968078613
1789453533101506000,1.617506103515625,6.713042179870605,5.444564212799072,0.3226186737060547
1789453533111445000,1.627445068359375,6.197540634918212,5.261557423400879,-0.08723872299194335
1789453533121385000,1.637385009765625,5.837512560272216,4.5213001976013185,-0.11671733093261719
1789453533131324000,1.647323974609375,5.776011505126953,3.6028245857238765,-0.1815104133605957
1789453533141264000,1.657263916015625,5.541379742431641,3.0041245330810544,-0.49545010604858397
1789453533151202800,1.667202880859375,5.539883366394043,3.102137163543701,-0.436043977355957
1789453533161142800,1.677142822265625,4.52608860092163,1.9526210914611815,0.6259340965270995
1789453533171083000,1.6870830078125,4.491671952056884,0.9217676391601562,2.474557053375244
1789453533181022000,1.69702197265625,4.378845198822021,0.8773252708435058,1.272368544769287
1789453533190962000,1.7069619140625,3.738695529937744,0.20051438903808594,-0.1475426773071289
1789453533200900900,1.71690087890625,4.682908809661865,-1.5927426544189451,-2.9486089820861814
1789453533210840800,1.7268408203125,4.105457296752929,-2.4889222633361814,-2.124105785369873
1789453533220779800,1.73677978515625,4.83928010559082,-3.261052298736572,-1.6391303115844726
1789453533230719700,1.7467197265625,4.4656350090026855,-3.344101168823242,-1.603067649078369
1789453533240660000,1.756659912109375,3.582773146820068,-3.4665047286987303,-1.9645920997619628
1789453533250599000,1.766598876953125,5.549909085845947,-2.8651111991882323,-2.000804399871826
1789453533260539000,1.776538818359375,7.248894438934326,-2.825756509399414,-0.3660135787963867
1789453533270478000,1.78647802734375,7.36112264175415,-3.2481834648132324,2.1492449028015135
1789453533280417800,1.796417724609375,7.140556813812255,-4.356998108673095,4.0547301490783685
1789453533290357000,1.80635693359375,7.4962453979492185,-6.191555130767822,4.751891744995117
1789453533300297000,1.816296875,8.238597550201415,-6.322338396453857,5.4050598854064935
1789453533310237000,1.82623681640625,8.264933768463134,-2.599205177307129,7.788038725280761
1789453533320175900,1.83617578125,8.30563519668579,0.5114613296508789,10.217105947113037
1789453533330115800,1.84611572265625,7.19532417678833,1.467795255279541,11.486631377410887
1789453533340055000,1.856054931640625,4.198980799102783,-1.4839561164855957,9.664344638824462
1789453533349995000,1.8659951171875,0.8201637062072753,-1.578227806854248,9.376441889190673
1789453533359934000,1.875933837890625,0.25348610076904293,-0.04129997863769531,8.827870433807373
1789453533369874000,1.8858740234375,0.8913912055969238,-0.8776245460510254,8.213159157562256
1789453533379814000,1.89581396484375,2.696319982147217,-2.6575638427734374,9.464728075408935
1789453533389752800,1.9057529296875,3.4591724861145017,-2.87917713394165,12.644527155303955
1789453533399693000,1.915693115234375,4.498256006622314,-1.6793828269958495,15.98054789352417
1789453533409632000,1.925632080078125,6.115838503265381,0.11207856521606445,19.068170209503172
1789453533419572000,1.935572021484375,7.1416042770385735,1.7675193756103516,20.89704100265503
1789453533429511000,1.945510986328125,6.107309159851074,1.4290391159057616,20.490026720428464
1789453533439451000,1.955450927734375,6.373364819335937,1.9270330612182616,21.255123788452146
1789453533449390800,1.965390869140625,4.3531075309753415,4.78181926574707,22.35002213516235
1789453533459329800,1.975329833984375,2.005742440795898,2.5330653564453125,20.249259815979002
1789453533469270000,1.98527001953125,0.6827963859558105,4.311957189941406,18.040309509277343
1789453533479209000,1.995208984375,-2.1260510742187497,4.9416322265625,16.584634899902344
1789453533489149000,2.00514892578125,-2.593369310760498,4.723759875488281,16.1511347618103
1789453533499088000,2.015087890625,-2.306663661956787,3.1639374938964844,16.383222685241698
1789453533509027800,2.02502783203125,-2.4123078102111815,0.8111854499816894,16.076016684722898
1789453533518967800,2.0349677734375,-2.912695957183838,0.13991115951538086,16.087389142608643
1789453533528906800,2.04490673828125,-0.5330091445922851,-0.7076362281799315,15.460108307647705
1789453533538847000,2.054846923828125,-2.1251532485961913,-1.0555436569213867,15.51382820739746
1789453533548786000,2.064785888671875,-3.5131916610717773,-2.954594486236572,16.506075157928464
1789453533558726000,2.074725830078125,-2.0418051033020017,-5.555595314788818,17.27566135406494
1789453533568664800,2.084664794921875,1.4688427185058592,-6.636727001953124,16.908749949645994
1789453533578605000,2.09460498046875,3.2959178604125974,-7.564779420471191,14.752023166656492
1789453533588544800,2.104544677734375,8.570493755340575,-7.890241208648681,10.465654006958006
1789453533598483700,2.114483642578125,18.763807323455808,-7.716960863494872,6.925976490020751
1789453533608424000,2.124423828125,15.178639974975585,-9.743951844024657,6.1738978935241695
1789453533618363000,2.13436279296875,16.448614318084715,-8.122927682495117,6.944381915283203
1789453533628302800,2.144302734375,9.062352558898926,-8.671948050689696,9.440037870788574
1789453533638242000,2.154241943359375,7.670273931121826,-5.379920767974853,11.651980929565429
1789453533648182000,2.16418212890625,-1.6401777748107909,-9.73527286300659,14.17277600250244
1789453533658121700,2.174121826171875,3.7413890068054196,-11.860575749206543,9.188347421264648
1789453533668061000,2.18406103515625,23.35259408035278,-5.217713605499267,3.5619735198974607
1789453533678001000,2.1940009765625,6.077531276702881,-4.478054930114745,7.8338278320312495
1789453533687939800,2.20393994140625,9.096918845367432,-1.2428899368286133,13.414711901855467
1789453533697879800,2.2138798828125,-6.725911013793945,3.4970307998657226,18.146103295135497
1789453533707819000,2.223819091796875,-16.87867279129028,4.990713360595703,22.0396737449646
1789453533717759000,2.233759033203125,-11.775282315063476,3.827879541778564,19.500622884368894
1789453533727698700,2.24369873046875,2.5842414169311523,0.5137058937072754,13.892654408264159
1789453533737638000,2.253637939453125,10.122235706329345,-0.9310451705932616,13.582904568481444
1789453533747577900,2.263577880859375,-3.8878842208862303,-2.011877582550049,12.540529020690917
1789453533757516800,2.273516845703125,-7.451503754425048,0.05776011505126953,11.497255647277832
1789453533767457000,2.28345703125,4.906766664886474,2.5794530136108396,12.332682389068603
1789453533777396000,2.29339599609375,4.297591979980469,1.9773112960815429,9.948356810760497
1789453533787336000,2.3033359375,-1.1222820281982422,0.30181904678344723,8.179939609527587
1789453533797276000,2.31327587890625,-6.867019274139404,1.2246341491699217,7.29722738494873
1789453533807214800,2.32321484375,-3.719093003845215,2.576609899139404,9.527126956176756
1789453533817154800,2.33315478515625,1.1873743858337402,3.186233496856689,10.692205339050293
1789453533827093800,2.34309375,3.404704398345947,3.6954502624511716,10.839299103546143
1789453533837034000,2.353033935546875,2.7109844673156736,2.7717373344421383,10.186729513549803
1789453533846973000,2.362972900390625,2.4425346061706543,0.7633014167785644,8.448090195465088
1789453533856913000,2.372912841796875,1.37262573928833,-2.0286369941711424,4.940734400939941
1789453533866853000,2.38285302734375,1.2906243324279785,-4.987271695709228,1.232714579772949
1789453533876792000,2.3927919921875,1.075744733428955,-14.487463883209228,-7.3675570587158195
1789453533886731800,2.402731689453125,-1.3772645050048826,-10.347290662384033,-0.45280338897705075
1789453533896670700,2.412670654296875,-0.7948749511718749,0.8587702079772949,9.820865572357176
1789453533906611000,2.42261083984375,0.9683049339294433,1.3555670524597168,10.332925452423096
1789453533916550000,2.4325498046875,2.3069629371643066,0.8034042945861816,12.630760495758055
1789453533926489300,2.4424892578125,0.9120411949157714,0.16699556579589842,11.954997077178954
1789453533936429600,2.4524296875,-0.5422866760253906,-1.024119760131836,10.98729069366455
1789453533946368500,2.462368408203125,1.6578350120544432,-2.437297290039062,11.310059004974365
1789453533956308500,2.47230859375,0.19632453613281248,-5.510704033660889,9.328707493591308
1789453533966247400,2.482247314453125,-1.2814964385986327,-7.555950801849365,6.392967345428467
1789453533976187400,2.4921875,-2.329109302520752,-10.25960302658081,7.499836700439452
1789453533986127400,2.50212744140625,-0.09038111267089843,-4.263175331115723,5.7529673141479485
1789453533996066300,2.51206640625,6.523600973510741,-2.9097032051086424,11.023652631378173
1789453534006006500,2.522006591796875,-8.158242156982421,-4.1934442077636715,18.26596301574707
1789453534015945500,2.531945556640625,-1.124825867462158,-0.6772597946166992,9.40397520828247
1789453534025885400,2.541885498046875,-2.9670144073486324,-6.245574305725097,10.57907931060791
1789453534035824400,2.551824462890625,-2.7347768463134763,-5.102941563415527,9.14255831451416
1789453534045764400,2.561764404296875,-3.436876483154297,-6.047304480743408,8.148216437530516
1789453534055703300,2.571703369140625,-3.0623335609436033,-7.231087564086914,7.056909393310547
1789453534065643300,2.581643310546875,-2.0048446151733397,-6.903530849456787,8.161683821868897
1789453534075583500,2.59158349609375,-1.7711106781005859,-5.046977099609375,10.372729055023193
1789453534085522400,2.6015224609375,-2.6382605918884274,-3.1004911499023438,11.117176133728027
1789453534095462400,2.61146240234375,-3.008912936401367,-2.727893516540527,10.312574738311767
1789453534105401600,2.621401611328125,-2.755277198028564,-3.398269981384277,8.972121083831787
1789453534115341300,2.63134130859375,-1.84518129196167,-4.64145919342041,8.044816853332518
1789453534125281300,2.64128125,-1.396867031097412,-3.853317934417724,10.03559553375244
1789453534135220200,2.65122021484375,-1.3141174362182617,-0.1258452247619629,14.506168583679198
1789453534145160400,2.661160400390625,-1.7679682884216308,0.3456628646850586,16.601095036315918
1789453534155099400,2.671099365234375,-4.482992971038818,0.20829554443359374,16.17851844329834
1789453534165039400,2.681039306640625,-4.906766664886474,2.5182512336730953,16.045939526367185
1789453534174978600,2.690978515625,-3.328688495635986,5.099499898529053,17.080833193969724
1789453534184918500,2.70091845703125,-0.5158008201599121,-8.58066911239624,5.370942511749267
1789453534194858200,2.710858154296875,-1.882141780090332,-11.675922946166992,-2.3548469703674315
1789453534204797400,2.72079736328125,-4.698171845245361,-7.23946726989746,1.530343773651123
1789453534214737400,2.7307373046875,-5.774964041900635,-3.5372833152770995,6.83769030380249
1789453534224676400,2.74067626953125,-4.896142395019531,-2.0597616157531737,8.304587733459472
1789453534234616600,2.750616455078125,-3.751414726257324,-2.516156307220459,8.131606663513184
1789453534244555500,2.760555419921875,-2.871695253753662,-1.4698901817321777,9.083002548217772
1789453534254495500,2.77049560546875,-2.8185739044189453,-0.16385317611694336,9.518447975158692
1789453534264435200,2.780435302734375,-3.744531396484375,0.5225345123291015,8.741230261230468
1789453534274374400,2.79037451171875,-3.7707179771423336,0.5798457145690917,7.943362557983398
1789453534284314400,2.800314453125,-3.7310640121459957,-0.03621230010986328,6.838288854217529
1789453534294253300,2.81025341796875,-3.3680431854248045,-0.6911760917663574,5.768828900146484
1789453534304193500,2.820193603515625,-2.7665000183105466,-1.223885961151123,5.476437022399902
1789453534314132500,2.830132568359375,-2.373102758026123,-1.3498808235168456,5.740098480224609
1789453534324072400,2.840072509765625,-2.4806921951293943,-1.0621277114868164,5.711517697906494
1789453534334012400,2.850012451171875,-2.9972412033081053,-0.5102642288208008,6.42229631576538
1789453534343951400,2.859951416015625,-2.703203311920166,-1.5589245559692382,7.792827128601074
1789453534353891300,2.869891357421875,-2.0102315689086914,-2.522889999389648,8.389282617187499
1789453534363830300,2.879830322265625,-2.126649624633789,-2.9994857673645017,9.043947133636474
1789453534373770500,2.8897705078125,-2.2493524597167966,-3.0719103675842283,9.595062428283692
1789453534383710500,2.89971044921875,-3.349937035369873,-2.349011103820801,8.91870045928955
1789453534393649400,2.9096494140625,-3.8441900405883787,-1.4763245986938476,8.889970039367675
1789453534403589400,2.91958935546875,-2.3732523956298825,-0.4008791404724121,11.346121667480467
1789453534413528300,2.9295283203125,0.28745383682250975,0.6576572685241698,13.741670066070556
1789453534423468300,2.93946826171875,-1.375169578552246,-0.9439140045166015,12.523171058654784
1789453534433407200,2.9494072265625,-6.144269647979736,-1.619078872680664,11.763610581970214
1789453534443347500,2.959347412109375,-3.0846295639038086,-1.2496236289978027,10.501267756652831
1789453534453287400,2.969287353515625,0.5168482833862305,-0.917428148651123,8.831910649108886
1789453534463226400,2.979226318359375,-1.4360720832824707,-1.9818004241943359,9.97783541870117
1789453534473166600,2.98916650390625,-2.943670941162109,-2.3554455207824705,10.613346321868896
1789453534483105500,2.99910546875,-2.3766940605163573,-1.5064017570495605,9.721805478668212
1789453534493045200,3.009045166015625,-1.81315884475708,-1.3428478561401367,9.234136528015137
1789453534502984200,3.018984130859375,-1.8320131828308104,-1.5530886894226072,9.114276807403565
1789453534512924400,3.02892431640625,-1.9532196418762207,-1.153705924987793,8.881739971160888
1789453534522864400,3.038864501953125,-1.741632070159912,-0.630123949432373,8.983792816925048
1789453534532803300,3.04880322265625,-2.673126153564453,-1.0859200904846191,9.60867945022583
1789453534542743600,3.05874365234375,-3.058742258453369,-1.3825018211364746,10.028861841583252
1789453534552682500,3.0686826171875,-2.4040777420043944,-2.1425112106323243,9.406369409942627
1789453534562622200,3.078622314453125,-2.383876665496826,-2.01756381149292,8.27391202468872
1789453534572562400,3.0885625,-2.909403929901123,-1.193210252380371,8.111255949401855
1789453534582501400,3.09850146484375,-3.3883938995361325,-0.9044096771240234,8.569595929718018
1789453534592441300,3.10844140625,-4.444985019683838,-1.0420762725830077,9.523535653686523
1789453534602380500,3.118380615234375,-4.287117347717285,-2.8983307472229,10.17625488128662
1789453534612320500,3.128320556640625,0.24974516067504882,-6.194996795654297,9.778218855285644
1789453534622259500,3.138259521484375,0.2620154441833496,-3.1426889541625975,9.875333660125731
1789453534632199200,3.14819921875,-4.139425032806396,1.6735469604492186,7.802104660034179
1789453534642139400,3.158139404296875,-4.170100741577148,0.6913257293701172,6.790404821014404
1789453534652078300,3.168078369140625,-1.6114473548889159,-2.7392659744262695,9.540594340515137
1789453534662018300,3.178018310546875,-2.656666017150879,-3.63888724822998,10.389638104248046
1789453534671957500,3.18795751953125,-3.685723818206787,-2.092232975769043,9.589974749755859
1789453534681897500,3.1978974609375,-4.039317475891113,-0.5475239921569824,9.305364027404785
1789453534691836400,3.20783642578125,-3.9420530334472654,-0.4745008415222168,8.831611373901367
1789453534701776400,3.2177763671875,-3.469048567962646,-1.0627262619018554,8.536825294494628
1789453534711716400,3.22771630859375,-3.565115909576416,-1.6766893501281737,8.261941016387938
1789453534721655300,3.2376552734375,-3.0544027679443357,-2.7060464263916013,8.257302250671387
1789453534731595500,3.247595458984375,-2.2315455848693846,-3.1483751831054687,8.64501328201294
1789453534741534500,3.257534423828125,-2.307411849975586,-2.602497204589844,9.105448188781738
1789453534751474400,3.267474365234375,-3.5326445495605467,-2.3083096755981445,8.821436016845702
1789453534761414400,3.277414306640625,-3.044077773284912,-1.5729904907226562,8.494926765441894
1789453534771353600,3.287353515625,-2.835183678436279,-0.9744400756835937,8.355614156341552
1789453534781293300,3.297293212890625,-2.7823616043090817,-0.618003303527832,8.518419869232178
1789453534791232300,3.307232177734375,-3.042880672454834,-0.5529109458923339,8.649801685333252
1789453534801172500,3.31717236328125,-3.988440690612793,0.28161797027587887,9.064148210144042
1789453534811111400,3.327111328125,-3.0069676475524902,-1.5219640678405761,8.4406083152771
1789453534821051400,3.337051513671875,-0.37918168792724605,-3.775207105255127,8.974964198303223
1789453534830991600,3.34699169921875,-0.9739911628723144,-2.4754548789978026,8.384793489074706
1789453534840930600,3.3569306640625,-5.836165821838379,-3.3816602073669433,5.804143374633789
1789453534850870300,3.366870361328125,-5.286397265624999,-5.823895538330078,7.10554161453247
1789453534860809200,3.376809326171875,-2.2430676803588865,-5.353883824920654,7.902511492156982
1789453534870749400,3.38674951171875,-1.857152300262451,-4.548085328674316,7.630470328521728
1789453534880688400,3.3966884765625,-2.941276739501953,-2.705148600769043,8.996362375640869
1789453534890628400,3.40662841796875,-3.5839702476501465,-2.3796868125915527,9.066841687011719
1789453534900568600,3.416568603515625,-3.612850305175781,-2.7343279335021973,8.022221575164794
1789453534910507500,3.426507568359375,-3.205536747741699,-3.1199440383911132,7.339275551605224
1789453534920447200,3.436447265625,-2.8871079269409177,-3.958962082672119,6.743418613433837
1789453534930386400,3.446386474609375,-3.3934815780639647,-4.577264661407471,6.375908658599853
1789453534940326700,3.45632666015625,-3.921702319335937,-5.248538951873779,6.076483813476562
1789453534950266600,3.4662666015625,-2.8285996238708493,-5.352537086486816,6.21834026184082
1789453534960205600,3.47620556640625,-3.0636802993774412,-4.615272612762451,7.511508433532715
1789453534970145800,3.486145751953125,-3.0904654304504393,-4.069843547058105,8.306832297515868
1789453534980084700,3.496084716796875,-6.130951901245117,3.1287726570129393,6.006453414916992
1789453534990024400,3.5060244140625,-2.29828395614624,1.6443676277160644,3.040935383605957
1789453534999963600,3.515963623046875,-2.3982418754577637,0.16205752487182618,4.41790061340332
1789453535009903600,3.525903564453125,-5.544522132110595,1.9563620315551757,5.13930350112915
1789453535019843600,3.535843505859375,-5.300014287567138,-1.5080477706909179,5.96320814743042
1789453535029782800,3.54578271484375,-6.3049804344177245,-5.86744008102417,7.29722738494873
1789453535039722800,3.55572265625,-6.469132885742187,-8.989927958679198,8.71429549255371
1789453535049661700,3.56566162109375,-1.5270517463684081,-12.228983529663084,9.632022916412353
1789453535059601700,3.5756015625,-1.2952630981445312,-14.323311431884765,8.231414945220946
1789453535069541600,3.585541748046875,-2.1525369300842283,-11.83708264541626,8.84178673095703
1789453535079480600,3.59548046875,-4.150797490692138,-7.548917834472656,8.768165029907227
1789453535089420500,3.605420654296875,-3.969287077331543,-1.5212158798217772,5.167734645843505
1789453535099359700,3.61535986328125,-5.396530541992187,0.9822212310791015,4.657620054626465
1789453535109299700,3.6252998046875,-7.837419134521484,0.26261399459838863,4.953303959655761
1789453535119238700,3.63523876953125,-0.046537294769287106,6.791302646636963,5.754762965393066
1789453535129179000,3.645178955078125,-4.102314907073974,7.656656909179687,3.0353987922668457
1789453535139118600,3.65511865234375,-4.169352553558349,-1.9919757812499999,3.151816847991943
1789453535149057500,3.6650576171875,-4.187159428405762,-17.9538189743042,8.447940557861328
1789453535158997500,3.67499755859375,-1.4534300453186035,-18.441787200164793,9.021651130676268
1789453535168936700,3.684936767578125,-2.5258827514648434,-15.931616397094725,6.029497605895996
1789453535178876700,3.694876708984375,-6.4375593513488765,-9.638307695770264,0.12120645904541015
1789453535188816600,3.704816650390625,-4.473416164398193,-6.581510726165771,3.6165912452697753
1789453535198755800,3.714755859375,-5.54781415939331,-2.565835991668701,7.669226467895507
1789453535208695600,3.724695556640625,1.6922516609191893,-4.438700240325928,6.5786676116943354
1789453535218634500,3.734634521484375,0.280271231842041,-12.567912702178955,12.451943559265136
1789453535228574700,3.74457470703125,-2.551770056915283,-8.579920924377442,6.318747093963623
1789453535238514700,3.7545146484375,-2.8274025230407713,-13.122170386505125,-0.8466495620727539
1789453535248453600,3.76445361328125,-5.194669414520264,-9.337236837005614,3.5568858413696285
1789453535258393900,3.774393798828125,0.7586626510620117,8.077587488555908,-0.5117606048583984
1789453535268332800,3.784332763671875,-7.793575316619872,-14.00727681274414,-0.08559270935058594
1789453535278272500,3.7942724609375,3.8893805969238278,-11.859229010772705,3.88159944152832
1789453535288211700,3.804211669921875,-0.4917091659545898,13.587393696594237,0.48452656097412106
1789453535298151700,3.814151611328125,-8.208670029449463,-7.458087808990478,-0.04399345550537109
1789453535308091600,3.824091552734375,-1.0592845970153808,-23.131130426788328,1.7185878791809082
1789453535318030600,3.834030517578125,3.0119056884765625,-20.72211464385986,11.265167723846435
1789453535327970800,3.843970703125,0.9674071083068847,-11.56115090408325,17.42365294418335
1789453535337909800,3.85390966796875,-2.9474118812561034,-13.003507766723631,4.4819455078125
1789453535347849700,3.863849609375,-4.732139581298828,-14.178462231445312,-2.150292366027832
1789453535357789700,3.873789794921875,-2.704998963165283,-15.696086808776855,-0.012419921112060545
1789453535367728600,3.883728759765625,-1.3771148674011229,-15.976358040618896,4.516062881469726
1789453535377668600,3.893668701171875,-1.712303099822998,-13.607594773101805,4.985176769256592
1789453535387607600,3.903607666015625,-1.8775030143737792,-13.562703491973876,4.555567208862304
1789453535397547800,3.9135478515625,-3.286789966583252,-12.38535482559204,4.766855505371093
1789453535407487700,3.92348779296875,-3.961655559539795,-12.30245559310913,4.61602080078125
1789453535417426700,3.9334267578125,-1.3193547523498534,-13.97555364074707,4.439897341156006
1789453535427366700,3.94336669921875,-1.614589744567871,-9.382726668548584,4.862773209381103
1789453535437305600,3.9533056640625,-2.187851404571533,-11.790994263458252,3.599981471252441
1789453535447245600,3.96324560546875,-2.7027543991088865,-13.26043553237915,2.9204771125793454
1789453535457185800,3.973185791015625,-3.057395520019531,-12.582577187347411,2.1842601020812986
1789453535467124700,3.983124755859375,-3.8347628715515136,-12.894571591186523,2.098966667938232
1789453535477064700,3.993064697265625,-3.615394144439697,-12.28928748397827,2.7454011161804197
1789453535487003600,4.003003662109375,-3.056647332000732,-11.313650307464599,2.6695348510742187
1789453535496943600,4.012943603515625,-2.461089669036865,-9.790339501190186,2.797774277496338
1789453535506882600,4.022882568359375,-1.60246909866333,-8.469039459991455,3.3041479286193844
1789453535516822500,4.032822509765625,-1.677736813354492,-8.003666512298583,2.993649900817871
1789453535526762800,4.0427626953125,-2.0287866317749024,-7.742099980926513,2.9056629898071287
1789453535536701700,4.05270166015625,-2.755277198028564,-8.046911779785155,3.0359973426818847
1789453535546641700,4.0626416015625,-3.412934466552734,-8.528595226287841,3.1878795104980466
1789453535556580600,4.07258056640625,-3.7755063804626463,-8.889670764160156,3.408146063232422
1789453535566520600,4.0825205078125,-3.460968137359619,-9.413103102111815,3.283497939300537
1789453535576460500,4.09246044921875,-3.8136639694213863,-9.447070838165283,3.4802713882446286
1789453535586399500,4.1023994140625,-5.044283622741699,-7.096712995910644,4.112190988922119
1789453535596339700,4.112339599609375,-4.053682685852051,-5.330390721130371,4.3825861389160155
1789453535606278700,4.122278564453125,-2.728641704559326,-4.862773209381103,4.654776940155029
1789453535616218600,4.132218505859375,-2.0127754081726072,-3.73495458984375,4.637718253326415
1789453535626158600,4.14215869140625,-2.629880886077881,-5.8822542037963865,3.2818519256591796
1789453535636097800,4.152097900390625,-4.410269095611572,-8.852411000823974,2.8069021713256834
1789453535646037500,4.16203759765625,-5.231031352233886,-9.750386260986328,4.434660025024414
1789453535655976700,4.171976806640625,-4.782866728973389,-7.892785047912597,6.486790122985839
1789453535665916700,4.181916748046875,-5.220855995178223,-7.775020253753661,6.543053861999511
1789453535675856600,4.191856689453125,-5.004480020141601,-7.32266577758789,5.946299098205566
1789453535685795600,4.201795654296875,-4.892850367736816,-6.64585489578247,5.208735349273681
1789453535695735800,4.21173583984375,-4.957942725372314,-6.214748959350586,4.919485861206055
1789453535705674800,4.2216748046875,-5.100248086547851,-6.2116065696716305,5.1027919258117675
1789453535715614500,4.231614501953125,-5.098003522491455,-6.242880828857421,5.480327600097656
1789453535725554700,4.2415546875,-4.937292736053466,-5.866093342590331,6.144419285583496
1789453535735493600,4.25149365234375,-4.733486319732665,-5.5647232086181635,6.732195793151855
1789453535745433600,4.26143359375,-4.393509683990478,-5.412841040802002,6.648398735046387
1789453535755372800,4.271372802734375,-4.376750272369384,-5.510554396057128,6.072443598175049
1789453535765312800,4.281312744140625,-5.019593418121338,-5.90529839477539,5.565022483825683
1789453535775252500,4.29125244140625,-5.662137288665771,-6.297498554229736,5.4321442916870115
1789453535785191400,4.30119140625,-6.170306591033935,-6.545896976470947,5.654954683685302
1789453535795131600,4.311131591796875,-6.27595073928833,-6.530484303283691,5.916670852661133
1789453535805070600,4.321070556640625,-5.869834282684326,-6.3244333229064935,6.055684186553955
1789453535815010600,4.331010498046875,-5.465812752532958,-6.44833325881958,5.738452466583252
1789453535824950800,4.34095068359375,-5.059397020721435,-6.259191327667236,5.035604641723633
1789453535834889700,4.3508896484375,-5.0571524566650385,-5.926546934509277,4.304624947357177
1789453535844829400,4.360829345703125,-5.344606293487549,-5.424063861083984,4.208407968139648
1789453535854768600,4.3707685546875,-5.285200164794921,-5.119551337432861,4.4193969894409175
1789453535864708600,4.38070849609375,-5.088426715850829,-5.155165087127685,4.56514401550293
1789453535874648600,4.390648681640625,-5.428253713989258,-5.31827007522583,4.882675010681152
1789453535884587800,4.400587890625,-5.908440784454346,-5.718251390075683,5.345354481506347
1789453535894527700,4.41052783203125,-6.220884101104736,-6.082918230438232,5.909338610076904
1789453535904466700,4.420466796875,-6.283582257080078,-6.335506505584717,6.592883184051513
1789453535914406700,4.43040673828125,-6.191255855560303,-6.4184057380676265,7.051821714782714
1789453535924346600,4.4403466796875,-5.597643481445312,-6.120776544189453,7.109731467437744
1789453535934285600,4.45028564453125,-6.223278302764892,-6.333860491943359,6.357353595733642
1789453535944225500,4.4602255859375,-6.230311270141601,-6.110601187133788,5.82883357925415
1789453535954164700,4.470164794921875,-6.48589229736328,-5.754762965393066,5.392639964294434
1789453535964104700,4.480104736328125,-6.970867771148681,-5.982661035919189,4.89689058303833
1789453535974044700,4.490044677734375,-6.906972514343261,-6.3797992362976075,4.893748193359374
1789453535983983900,4.49998388671875,-6.358999609374999,-6.331615927886962,5.199757093048095
1789453535993923600,4.509923583984375,-6.693290016174316,-5.647323165893554,5.045331085968018
1789453536003862500,4.519862548828125,-5.825840827178955,-4.406228880310058,4.848108724212646
1789453536013802800,4.529802734375,-5.780201358032226,-4.1840170387268065,4.343829999542236
1789453536023742700,4.53974267578125,-6.476614765930176,-5.067178176116943,3.864989667510986
1789453536033681700,4.549681640625,-6.124517484283447,-5.573102914428711,4.193593845367431
1789453536043621600,4.55962158203125,-6.265176831817627,-5.779004257202148,4.741716387939453
1789453536053560800,4.569560791015625,-7.089380753326416,-5.844994440460205,4.862473934173583
1789453536063500500,4.57950048828125,-6.4272343566894525,-5.612158329010009,4.743362401580811
1789453536073440500,4.5894404296875,-6.194847158050536,-5.6489691795349115,4.661809907531738
1789453536083379700,4.599379638671875,-7.698106525421142,-5.814468369293213,4.263773881530762
1789453536093319700,4.609319580078125,-7.454795781707763,-5.590760151672363,4.19449167098999
1789453536103259600,4.619259765625,-7.048529687499999,-5.679495250701904,4.477157104492187
1789453536113198800,4.62919873046875,-6.67159256362915,-5.263502712249756,4.151545678710937
1789453536123138600,4.639138671875,-6.71019906539917,-4.798578677368163,3.3988685317993164
1789453536133077500,4.649077392578125,-6.1830257873535155,-4.215291297912597,3.240103034210205
1789453536143017700,4.659017822265625,-5.493196434020995,-3.726425246429443,3.8959646514892574
1789453536152957700,4.668957763671875,-6.3423898353576655,-3.9758711318969726,4.678270043945313
1789453536162896600,4.678896728515625,-7.8170684204101555,-4.123264171600342,4.930708681488037
1789453536172836600,4.688836669921875,-7.091176404571533,-4.3628339752197265,5.819556047821044
1789453536182775800,4.69877587890625,-6.6893994384765625,-5.268740028381347,6.355707582092284
1789453536192715500,4.708715576171875,-6.490231787872314,-5.195866515350342,5.609913764953613
1789453536202655500,4.718655517578125,-5.340865353393554,-4.700566046905517,3.989637791442871
1789453536212594700,4.7285947265625,-5.711218422698974,-3.801842598724365,2.7928362365722657
1789453536222534700,4.73853466796875,-4.777330137634277,-2.7814637786865233,2.593967861175537
1789453536232473600,4.7484736328125,-5.66917025604248,-2.94950680770874,2.773832260894775
1789453536242413800,4.758413818359375,-7.448810277557373,-3.6399347114562985,3.0871734031677245
1789453536252353800,4.768353759765625,-7.642740612030029,-4.162020310974121,3.7077205459594724
1789453536262292700,4.778292724609375,-6.873154415893555,-4.689043951416015,3.9993642356872554
1789453536272232700,4.788232666015625,-6.837989579010009,-4.847659811401367,4.2414778785705565
1789453536282171600,4.798171630859375,-6.0139352951049805,-4.682310259246826,4.658368242645263
1789453536292111600,4.808111572265625,-6.499808594512939,-4.482244783020019,5.066429988098144
1789453536302051600,4.818051513671875,-7.720252890777587,-4.521599472808838,4.9354970848083495
1789453536311990800,4.82799072265625,-7.628375402069091,-4.495263254547119,5.289539655303955
1789453536321930800,4.8379306640625,-7.264456749725341,-4.461295518493652,5.705083280944824
1789453536331870500,4.847870361328125,-7.7799582946777335,-4.340089059448242,6.007800153350829
1789453536341809700,4.8578095703125,-7.767388735961914,-4.380491212463379,6.152649353790283
1789453536351749600,4.86774951171875,-6.832303350067138,-4.521749110412597,6.107159522247314
1789453536361688600,4.8776884765625,-6.284330445098877,-4.536712870788574,5.028721311950683
1789453536371628800,4.88762890625,-6.340145271301269,-4.348319127655029,3.7536592903137205
1789453536381568800,4.89756884765625,-6.243629016876221,-4.0738837623596185,2.7555764732360837
1789453536391507700,4.9075078125,-5.931933888244629,-3.8787563270568843,2.3505074798583983
1789453536401447700,4.91744775390625,-5.684582929229736,-3.872471547698974,2.704400412750244
1789453536411386600,4.92738671875,-5.859210012817383,-4.174140956878662,3.0119056884765625
1789453536421326600,4.93732666015625,-5.562179369354248,-4.3445781875610345,3.0948049209594726
1789453536431266600,4.9472666015625,-5.6289177406311035,-4.478503842926025,3.234117530059814
1789453536441205800,4.957205810546875,-6.111199737548827,-4.657021504211426,3.4023101966857907
1789453536451145700,4.967145751953125,-5.806088663482666,-4.831648587799072,3.6646249160766597
1789453536461085400,4.97708544921875,-5.692962635040283,-5.1201498878479,3.8181530975341795
1789453536471024600,4.987024658203125,-6.397606111145019,-5.505466717529297,3.775805655670166
1789453536480964600,4.996964599609375,-6.782324390411376,-5.576694216918945,4.051438121795654
1789453536490903600,5.006903564453125,-6.681767920684814,-5.5921068901062005,4.163367049407959
1789453536500843800,5.01684375,-6.944830828094482,-5.4135892288208005,4.433612561798095
1789453536510783700,5.02678369140625,-6.868814925384521,-5.130923795318603,5.084536138153076
1789453536520722700,5.03672265625,-6.941987713623046,-4.976048875427246,5.89302811126709
1789453536530662700,5.04666259765625,-7.18245534286499,-4.990114810180664,6.4746694770812985
1789453536540602600,5.0566025390625,-6.822127993011474,-5.1128176452636716,6.513275978851318
1789453536550541600,5.06654150390625,-6.515221267700195,-5.233874466705322,6.1727007926940916
1789453536560481500,5.0764814453125,-6.295702902984619,-5.258115758514404,5.793668742370605
1789453536570420700,5.086420654296875,-5.7966614944458,-5.293280595397949,5.882703116607666
1789453536580360700,5.096360595703125,-5.517138450622558,-5.355978751373291,5.991788929748535
1789453536590300700,5.10630078125,-5.5255181564331055,-5.493046796417236,5.7411459434509275
1789453536600239900,5.116239990234375,-5.2928316825866695,-5.522974317169189,5.397129092407226
1789453536610179600,5.1261796875,-5.009268423461914,-5.371391424560547,5.084985050964355
1789453536620118500,5.136118408203125,-5.174019425201416,-5.424363136291504,4.588936394500732
1789453536630058800,5.146058837890625,-5.742642319488525,-5.728127471923828,4.274248513793945
1789453536639998700,5.155998779296875,-5.887491519927978,-5.9762266189575195,4.539705622863769
1789453536649937700,5.165937744140625,-5.450848992156982,-6.3138090530395505,4.885368487548828
1789453536659877600,5.175877685546875,-5.685929667663574,-6.826916396331787,4.893897830963135
1789453536669817600,5.185817626953125,-5.808482865142822,-7.311891870117187,4.627842171478271
1789453536679756500,5.195756591796875,-5.341613541412353,-7.626579750823974,4.255394175720214
1789453536689696500,5.205696533203125,-5.232378090667725,-7.942614369964599,3.5959412559509274
1789453536699635700,5.2156357421875,-5.451746817779541,-8.009352741241454,3.349188847351074
1789453536709575700,5.22557568359375,-5.5545478515625,-7.862558251953125,3.3291374084472656
1789453536719515600,5.235515625,-5.898115789794922,-7.770381488037109,3.659986150360107
1789453536729454800,5.245454833984375,-6.2858268211364745,-7.653364881896972,4.249857584381103
1789453536739394600,5.25539453125,-5.767332524108887,-7.6671315414428705,4.7022120605468745
1789453536749333500,5.26533349609375,-4.631134198760986,-7.719953615570068,4.741866025543213
1789453536759273700,5.275273681640625,-4.361936149597168,-7.990199127960205,3.9345711532592773
1789453536769213700,5.285213623046875,-4.8415246696472165,-8.27451057510376,3.22409181060791
1789453536779152600,5.295152587890625,-5.0580502822875975,-8.589348093414307,2.9091046546936035
1789453536789092600,5.305092529296875,-5.655852509307861,-8.685864347839354,3.31342546005249
1789453536799032600,5.315032470703125,-5.091120192718505,-8.55538035736084,4.269759385681152
1789453536808971500,5.324971435546875,-4.587440018463134,-8.699631007385253,4.591629871368408
1789453536818911500,5.334911376953125,-4.584147991180419,-8.905233074951171,4.377797735595703
1789453536828850700,5.3448505859375,-5.008520235443115,-9.083152185821532,3.784185361480713
1789453536838790700,5.354790771484375,-4.983081842803955,-9.294290844726563,3.572448152160644
1789453536848730600,5.364730712890625,-4.001908074951172,-9.350404946136473,3.4325369926452636
1789453536858669800,5.374669921875,-3.700537940979004,-9.228899211883544,3.3246482803344724
1789453536868609800,5.38460986328125,-3.988141415405273,-9.270947378540038,2.3268647384643555
1789453536878549500,5.394549560546875,-4.580706326293945,-9.340977777099608,2.342427049255371
1789453536888488700,5.40448876953125,-4.2025721015930175,-9.489418280029296,2.826504697418213
1789453536898428700,5.4144287109375,-4.661061719512939,-9.568576572418213,3.688866207885742
1789453536908367600,5.42436767578125,-4.740818562316894,-9.65357073135376,3.3961750549316405
1789453536918307600,5.4343076171875,-4.624400506591797,-9.45515126876831,3.103184626770019
1789453536928247800,5.444247802734375,-4.311957189941406,-9.081506172180175,3.349039209747314
1789453536938186800,5.454186767578125,-4.24536845626831,-8.908076189422607,3.6475662292480466
1789453536948126700,5.464126708984375,-3.8928222618103026,-8.579322373962402,3.4415152488708496
1789453536958066700,5.474066650390625,-3.896413564300537,-8.598326349639892,3.122637515258789
1789453536968005600,5.484005615234375,-4.131045326995849,-8.840589630126953,3.1575030769348142
1789453536977945900,5.49394580078125,-4.329764064788818,-9.099911597442626,3.503016304016113
1789453536987884800,5.503884765625,-4.3549031822204585,-8.864232371520995,3.825335702514648
1789453536997824800,5.51382470703125,-4.415805686950684,-8.520963708496094,4.074781587982177
1789453537007764700,5.5237646484375,-4.273799600982666,-8.685565072631835,4.2606314918518065
1789453537017703700,5.53370361328125,-4.095281939697266,-8.669254573822021,3.909581673431396
1789453537027643600,5.5436435546875,-4.089894985961914,-8.57348650741577,3.276614609527588
1789453537037584000,5.553583984375,-4.172794218444824,-8.678382467651367,2.8794764091491696
1789453537047522800,5.563522705078125,-4.177881896972656,-8.870966063690185,2.943820578765869
1789453537057462800,5.573462890625,-3.884292918395996,-8.859593605804443,2.9979893913269042
1789453537067401700,5.583401611328125,-3.5850177108764645,-8.826972608184814,2.863465185546875
1789453537077341700,5.593341796875,-3.518877890014648,-8.750208517456054,3.054851680755615
1789453537087281700,5.60328173828125,-3.24967984085083,-8.614487210845947,3.203142546081543
1789453537097220600,5.613220703125,-3.2588077346801754,-8.610297357940674,3.192967189025879
1789453537107160800,5.623160888671875,-3.292925108337402,-8.439411214447022,3.2517747673034667
1789453537117100800,5.633100830078125,-3.1202433135986327,-8.527098850250244,3.0247745223999023
1789453537127039700,5.643039794921875,-3.3988685317993164,-8.549843766021729,3.089567604827881
1789453537136979700,5.652979736328125,-3.84314257736206,-8.583512226867676,3.1274259185791013
1789453537146918700,5.662918701171875,-4.3622354248046875,-8.649203134918212,3.183390382385254
1789453537156858600,5.672858642578125,-4.546888227844238,-8.587851717376708,3.5323452743530273
1789453537166798800,5.682798828125,-4.355651370239258,-8.39526812133789,3.800495860290527
1789453537176737800,5.69273779296875,-4.117428305053711,-8.228422193145752,3.7256770584106444
1789453537186677800,5.702677734375,-4.042609503173828,-8.173056279754638,3.6028245857238765
1789453537196617700,5.71261767578125,-4.103512007904053,-8.140884194946288,3.3707366622924804
1789453537206556700,5.722556640625,-4.5693338684082025,-8.020276286315918,3.305195391845703
1789453537216496600,5.73249658203125,-5.205592959594727,-7.831882543182372,3.8660371307373045
1789453537226435600,5.742435546875,-5.016151753234863,-7.68029965057373,4.469824861907958
1789453537236375800,5.752375732421875,-4.745906240844726,-7.7581112045288085,4.771494271087646
1789453537246315800,5.762315673828125,-4.8519993019104,-7.9846625366210935,4.873098204040527
1789453537256254700,5.772254638671875,-5.027075298309326,-8.007407452392577,5.020491243743896
1789453537266195000,5.78219482421875,-5.131821620941162,-7.883058603668212,5.369745410919189
1789453537276134700,5.792134765625,-4.876090956115722,-7.64184278640747,5.650914468383789
1789453537286073600,5.802073486328125,-4.491522314453125,-7.470058817291259,5.672013370513915
1789453537296013800,5.812013916015625,-4.244021717834473,-7.316680273437499,5.60557427444458
1789453537305953800,5.821953857421875,-4.726004439544678,-7.321019763946532,5.537189889526367
1789453537315892700,5.831892822265625,-5.198709629821777,-7.285106739044189,5.578789143371582
1789453537325833000,5.8418330078125,-5.495889910888671,-7.561188117980957,5.486462741851806
1789453537335772000,5.85177197265625,-5.8349687210083,-7.704092029571533,5.2816088623046875
1789453537345711600,5.861711669921875,-5.698050313568115,-7.55265877456665,5.215618679046631
1789453537355651800,5.87165185546875,-5.591358702087402,-7.427112825012206,5.1428948036193844
1789453537365590800,5.8815908203125,-4.983979668426513,-7.181108604431152,5.142146615600586
1789453537375530800,5.89153076171875,-4.480598769378662,-6.637624827575683,5.227888962554931
1789453537385470700,5.901470703125,-4.6718356269836425,-6.479457880401611,5.187337171936035
1789453537395410000,5.911409912109375,-5.175964714050292,-6.404339803314208,5.089474179077148
1789453537405349600,5.921349609375,-5.229834251403808,-6.153247904205322,5.346551582336425
1789453537415288600,5.93128857421875,-5.58028551940918,-6.045658467102051,5.501725777435302
1789453537425228800,5.941228759765625,-5.709722046661376,-6.003759938049316,5.808482865142822
1789453537435168800,5.951168701171875,-5.530306559753417,-6.114791040039062,5.896769051361083
1789453537445107700,5.961107666015625,-5.457433046722412,-6.254851837158203,6.024110652160644
1789453537455048000,5.9710478515625,-5.613953980255126,-6.140678345489501,5.760149919128418
1789453537464987600,5.980987548828125,-5.15202269744873,-5.963956335449218,5.88584550628662
1789453537474926600,5.990926513671875,-5.474641371154785,-5.805041200256348,5.9956795074462885
1789453537484866600,6.000866455078125,-5.557690241241454,-5.6772506866455075,5.997175883483886
1789453537494806800,6.010806884765625,-5.570708712768554,-5.645677152252197,6.041618251800537
1789453537504745700,6.020745849609375,-5.818508584594726,-5.7794531700134275,6.147112762451171
1789453537514685700,6.030685791015625,-6.068253745269775,-5.818957497406005,6.308122824096679
1789453537524625000,6.040625,-6.214300046539306,-5.62427897491455,6.287772109985351
1789453537534564600,6.050564697265625,-6.226869605255127,-5.31841971282959,6.101922206115722
1789453537544504600,6.060504638671875,-5.943007070922851,-5.400421119689941,6.149357326507568
1789453537554443800,6.07044384765625,-6.006902327728271,-5.352537086486816,5.889436808776855
1789453537564383700,6.0803837890625,-5.9974751586914055,-5.451746817779541,5.519083739471435
1789453537574323700,6.09032373046875,-6.199785198974609,-5.598242031860352,5.39473489074707
1789453537584263000,6.100262939453125,-6.387281116485595,-5.730970586395263,5.415684155273437
1789453537594203000,6.110202880859375,-6.626102732086181,-5.717802477264404,5.565471396636963
1789453537604141800,6.120141845703125,-6.654084963989257,-5.749675286865234,5.974430967712402
1789453537614081500,6.13008154296875,-6.085910982513427,-5.657199247741699,6.238092425537109
1789453537624021800,6.140021728515625,-6.993612686920166,-5.668870980834961,5.94375525894165
1789453537633960700,6.149960693359375,-6.809558434295654,-5.280860674285888,5.0103158866882325
1789453537643900700,6.159900634765625,-6.018424423217773,-4.945373166656494,4.068047895812988
1789453537653841000,6.1698408203125,-4.94193150177002,-4.328267688751221,3.7591958816528317
1789453537663779800,6.17977978515625,-4.592078784179687,-4.085106582641601,3.3602620300292965
1789453537673719600,6.189719482421875,-5.276670821380615,-3.893869725036621,4.333355367279053
1789453537683659800,6.19965966796875,-6.475417665100097,-3.912275150299072,4.703858074188232
1789453537693598700,6.2095986328125,-6.3718684432983395,-4.089296435546875,5.3953334411621094
1789453537703538700,6.21953857421875,-6.5777697860717765,-4.2414778785705565,5.9008092666625975
1789453537713478000,6.229477783203125,-6.340594184112549,-4.187458703613281,6.228814894104003
1789453537723417900,6.23941796875,-5.925499471282959,-4.41146619644165,5.6480713539123535
1789453537733357600,6.249357666015625,-5.909637885284424,-3.69649772567749,4.5507788055419915
1789453537743296500,6.259296630859375,-4.580556688690185,-3.1290719322204588,3.7472248733520503
1789453537753236700,6.26923681640625,-4.894646018981933,-2.8975825592041016,3.1956606658935547
1789453537763176700,6.2791767578125,-5.58028551940918,-2.830095999908447,3.6234745750427244
1789453537773115600,6.28911572265625,-6.994360874938964,-3.3066917678833008,4.342932173919677
1789453537783056000,6.299055908203125,-7.161506078338623,-3.3638533325195312,4.426429956817627
1789453537792995600,6.30899560546875,-5.805041200256348,-3.5664626480102535,4.6073418197631835
1789453537802934500,6.3189345703125,-6.35914924697876,-3.753360015106201,4.414608586120605
1789453537812874800,6.328874755859375,-6.300491306304932,-3.7172973526000974,4.573224446105956
1789453537822813700,6.338813720703125,-6.36558366394043,-3.9145197143554684,5.2557215568542475
1789453537832753700,6.348753662109375,-6.731896517944335,-4.253299249267578,5.4878094802856445
1789453537842694000,6.35869384765625,-7.051073526763916,-4.152593141937255,5.13301872177124
1789453537852632800,6.3686328125,-7.164199555206299,-4.171597117614746,5.077353533172607
1789453537862572500,6.378572509765625,-7.044639109802246,-4.053682685852051,5.227888962554931
1789453537872512800,6.3885126953125,-7.229441550445556,-3.872022634887695,4.8774376945495606
1789453537882451700,6.39845166015625,-6.985083343505859,-3.6629789024353023,4.9348985343933105
1789453537892391700,6.4083916015625,-6.459406441497802,-3.831171569061279,4.904372463226318
1789453537902332000,6.418331787109375,-6.52494771194458,-4.050989208984375,4.301482557678223
1789453537912270800,6.428270751953125,-6.353612655639648,-4.0988732421875,3.6749499107360837
1789453537922210800,6.4382109375,-6.2398880767822265,-4.2411786033630365,3.393631215667724
1789453537932149200,6.448149169921875,-6.47975715560913,-4.204068477630615,3.636941959381103
1789453537942089000,6.4580888671875,-6.146364574432373,-4.32243182220459,4.042459865570068
1789453537952029200,6.468029296875,-5.944653084564209,-4.662857370758056,3.9833530120849607
1789453537961968000,6.477968017578125,-6.310367388153076,-4.8903065284729,3.592349953460693
1789453537971908000,6.487908203125,-6.41631081161499,-4.996549227142333,3.4665047286987303
1789453537981848000,6.49784814453125,-6.231957283782958,-5.051017314910888,3.852270471191406
1789453537991787300,6.507787353515625,-6.237194599914551,-5.3776762039184565,4.2128970962524415
1789453538001727200,6.517727294921875,-6.116885966491699,-5.443067836761474,4.5596074241638185
1789453538011667000,6.5276669921875,-6.4460886947631835,-5.54766452178955,4.455310014343262
1789453538021606100,6.537606201171875,-6.552481031036376,-5.496638098907471,4.426878869628906
1789453538031546000,6.547546142578125,-6.18676672744751,-5.269787491607666,4.566640391540527
1789453538041485000,6.557485107421875,-6.147412037658691,-4.994304663085937,4.640262092590332
1789453538051425300,6.56742529296875,-6.35226591720581,-4.674978016662598,4.662258820343017
1789453538061365200,6.577365234375,-5.736207902526855,-4.56469510269165,5.015553202819824
1789453538071304200,6.58730419921875,-5.4972366493225095,-4.6538791145324705,5.347449407958984
1789453538081244200,6.597244140625,-6.2213330139160155,-4.866813424682617,5.675006122589111
1789453538091184000,6.60718408203125,-6.1379848686218255,-5.180753117370605,6.112696113586425
1789453538101123000,6.617123046875,-5.438429071044921,-5.596147105407715,6.03937368774414
1789453538111063000,6.62706298828125,-5.837961473083496,-5.984157411956787,5.382464607238769
1789453538121003300,6.637003173828125,-6.2769982025146485,-6.080075115966797,5.007323134613037
1789453538130942200,6.646942138671875,-5.729474210357665,-5.956175180053711,4.979340902709961
1789453538140882000,6.6568818359375,-5.37558127746582,-6.060771865081787,4.856937342834472
1789453538150821000,6.666821044921875,-5.50337179107666,-6.278793853759765,4.828506198120117
1789453538160761000,6.676760986328125,-5.587019211578369,-6.661866119384765,4.665251572418213
1789453538170701000,6.686701171875,-5.9132291877746574,-7.0747162681579585,4.485237535095215
1789453538180640300,6.69664013671875,-5.414935967254638,-7.2906433303833005,4.406827430725097
1789453538190580200,6.706580322265625,-4.716128357696533,-7.485621128082275,4.10500838394165
1789453538200520000,6.71652001953125,-4.993855750274658,-7.830984717559814,3.577984743499756
1789453538210459000,6.726458984375,-5.627122089385986,-8.007257814788819,3.339612040710449
1789453538220399000,6.736399169921875,-5.581033707427978,-8.101080592346191,3.4132337417602536
1789453538230339000,6.746339111328125,-5.394136340332031,-8.161683821868897,3.6731542594909667
1789453538240278000,6.756278076171875,-5.538237352752685,-8.311022150421142,3.9893385162353514
1789453538250218200,6.76621826171875,-5.371391424560547,-8.609549169921875,4.049642470550537
1789453538260157200,6.7761572265625,-4.889558340454101,-8.798691101074219,3.695300624847412
1789453538270097000,6.786096923828125,-4.940285488128662,-8.942043925476074,3.050512190246582
1789453538280037000,6.796037109375,-5.30540124130249,-9.013720337677002,2.470067925262451
1789453538289976000,6.80597607421875,-5.013757551574707,-8.94473740234375,2.5082255142211913
1789453538299916000,6.815916015625,-4.734982695770263,-8.89371097946167,2.7157728706359863
1789453538309856300,6.825856201171875,-4.527285701751708,-8.939500086212158,3.1712697364807125
1789453538319795200,6.835795166015625,-4.6912885154724115,-9.190891260528565,3.2420483230590817
1789453538329735200,6.845735107421875,-4.726303714752197,-9.509619356536865,3.17306538772583
1789453538339675100,6.855675048828125,-4.455160376739502,-9.638008420562743,3.4472014778137203
1789453538349614000,6.865614013671875,-4.039616751098633,-9.57067149887085,3.5218706420898434
1789453538359554000,6.875553955078125,-3.6899136711120604,-9.304316564178466,3.254617881774902
1789453538369494300,6.885494384765625,-3.852719384002685,-9.09093334121704,2.7889456588745114
1789453538379433200,6.89543310546875,-4.013729445648194,-9.010727585601806,2.405723755645752
1789453538389373200,6.905373291015625,-4.339340871429443,-8.88712692489624,2.9177836357116695
1789453538399312100,6.91531201171875,-4.658218605041504,-8.997409838867187,3.2398037590026854
1789453538409252000,6.925252197265625,-4.638765716552734,-9.031527212524413,3.7759552932739258
1789453538419192000,6.935192138671875,-4.21364528427124,-8.78447552871704,3.9106291366577146
1789453538429131000,6.945131103515625,-4.255094900512695,-8.716988969421386,3.4885014564514156
1789453538439071200,6.9550712890625,-4.431218360137939,-8.853757739257812,3.35188232421875
1789453538449011200,6.96501123046875,-4.407276343536377,-9.13492679672241,3.6885669326782224
1789453538458950100,6.9749501953125,-4.329315151977539,-9.394248764038085,3.864241479492187
1789453538468890000,6.98489013671875,-4.436156401062012,-9.519794713592528,3.8955157386779784
1789453538478830000,6.994830078125,-4.563198726654052,-9.388712172698973,4.09213955001831
1789453538488769000,7.00476904296875,-4.610334571838378,-9.113229344177245,3.8667853187561034
1789453538498709200,7.014709228515625,-4.939686937713622,-9.012074324035645,4.021510601043701
1789453538508648200,7.024648193359375,-4.868160163116455,-8.8489693359375,3.9891888786315914
1789453538518588200,7.034588134765625,-4.723161325073242,-8.761132062530518,3.6590883247375485
1789453538528528100,7.044528076171875,-4.630535648345947,-8.754099095153808,3.5386300537109374
1789453538538467000,7.054467041015625,-4.351760792541504,-8.812308123016356,3.518428977203369
1789453538548407000,7.064406982421875,-3.95192911529541,-8.878896856689453,3.528604334259033
1789453538558347300,7.07434716796875,-3.8795045150756833,-8.930222554779052,3.567061198425293
1789453538568286200,7.0842861328125,-3.8570588745117185,-8.773103070831299,3.481318851470947
1789453538578226200,7.09422607421875,-3.7208886550903317,-8.628852420806885,3.2430957862854
1789453538588166000,7.104165771484375,-3.790919053649902,-8.576179984283447,2.917035447692871
1789453538598105000,7.11410498046875,-3.94549469833374,-8.57408505783081,2.485330960845947
1789453538608045000,7.124045166015625,-3.7092169219970703,-8.479813367462159,2.189347780609131
1789453538617985000,7.133985107421875,-3.4159272186279295,-8.288726147460936,2.2822727325439454
1789453538627924200,7.14392431640625,-3.4675521919250487,-8.093748349761963,2.442085693359375
1789453538637864200,7.1538642578125,-3.6477158668518066,-8.170213165283203,2.6259903083801266
1789453538647803100,7.16380322265625,-3.4669536415100097,-8.27421129989624,2.7020062110900875
1789453538657743000,7.1737431640625,-3.3412580543518065,-8.308777586364746,2.7067946144104003
1789453538667683000,7.18368310546875,-3.4702456687927246,-8.234108422088623,2.80914673538208
1789453538677622000,7.1936220703125,-3.865737855529785,-8.16617294998169,3.3412580543518065
1789453538687562200,7.203562255859375,-4.1487025642395015,-7.867645930480957,4.024054440307617
1789453538697502200,7.213502197265625,-4.463540082550049,-7.427112825012206,4.584896179199219
1789453538707441200,7.223441162109375,-4.848407999420166,-7.261314360046386,5.221753820800781
1789453538717381000,7.233381103515625,-5.2162172294616695,-7.50791713104248,5.5823804458618165
1789453538727321000,7.243321044921875,-5.561580818939209,-7.906551707458496,5.569062699127197
1789453538737260000,7.253260009765625,-5.65675033493042,-8.060379164123535,5.61170941619873
1789453538747200000,7.263199951171875,-5.506663818359375,-7.810634003448486,5.655104321289063
1789453538757139200,7.27313916015625,-5.2636523498535155,-7.3478048950195305,5.75221912612915
1789453538767079200,7.2830791015625,-4.903325,-6.901136647796631,5.9299885993957515
1789453538777019100,7.29301904296875,-4.7572786987304685,-6.741024411773681,5.84155277557373
1789453538786958300,7.302958251953125,-4.966322431182861,-6.791153009033203,5.597793119049072
1789453538796898000,7.31289794921875,-5.422417847442627,-7.066037287139892,5.500827951812743
1789453538806838000,7.322838134765625,-5.851129582214355,-7.240814008331299,6.029946518707275
1789453538816777200,7.332777099609375,-6.19948592376709,-7.481730550384521,6.675183866119385
1789453538826717200,7.34271728515625,-6.086808808135986,-7.5810899192810055,7.040748532104492
1789453538836657200,7.3526572265625,-5.5255181564331055,-7.5917141891479485,6.88841745147705
1789453538846596000,7.36259619140625,-4.825363808441161,-7.461978386688232,6.05209288406372
1789453538856536000,7.3725361328125,-4.604049792480469,-7.147739418792725,5.00537784576416
1789453538866476000,7.38247607421875,-4.828057285308837,-6.68431175994873,4.4841900718688965
1789453538876415000,7.3924150390625,-5.188683910369873,-6.5683426170349115,4.210053981781005
1789453538886355200,7.402355224609375,-5.372738162994384,-6.619369039916992,4.288763361358642
1789453538896295200,7.412295166015625,-5.341763179016113,-6.577919423675537,4.621557392120361
1789453538906234000,7.422234130859375,-5.176563264465332,-6.528987927246093,4.854094228363037
1789453538916174000,7.432174072265625,-5.371391424560547,-6.40329234008789,5.6109612281799315
1789453538926113000,7.442113037109375,-5.548861622619628,-6.406135454559326,5.820154598236083
1789453538936053000,7.452052978515625,-6.054487085723877,-6.642712506103515,5.981015022277831
1789453538945993000,7.461992919921875,-6.017825872802734,-6.613084260559082,5.977573357391357
1789453538955932200,7.47193212890625,-5.762544120788574,-6.55682052154541,5.616797094726562
1789453538965872000,7.4818720703125,-5.796212581634522,-6.022315000915527,5.522675041961669
1789453538975811800,7.491811767578125,-5.666476779174804,-5.444564212799072,5.287295091247558
1789453538985751000,7.5017509765625,-6.0722939605712885,-5.411045389556884,5.242703085327149
1789453538995691000,7.51169091796875,-5.853374146270752,-5.184793332672119,5.344905568695068
1789453539005631000,7.521630859375,-5.955726267242431,-5.245845475006103,5.698349588775635
1789453539015570000,7.53156982421875,-6.134842478942871,-5.480028324890136,6.260837341308593
1789453539025510100,7.54151025390625,-6.302885507965088,-5.501875415039062,5.912331362152099
1789453539035449900,7.551449951171875,-6.611587884521484,-5.374683451843262,5.622932236480713
1789453539045389000,7.56138916015625,-6.640318304443359,-5.038148480987549,5.459378335571289
1789453539055329000,7.5713291015625,-6.232406196594238,-4.908263040924072,5.153519073486327
1789453539065269000,7.58126904296875,-6.092195761871338,-4.659415705871582,4.870853639984131
1789453539075208000,7.5912080078125,-6.025307752990722,-4.978742352294922,4.750993919372558
1789453539085148200,7.601148193359375,-6.368576416015625,-4.902576811981201,4.512471578979492
1789453539095088000,7.611088134765625,-6.64600453338623,-4.801571429443359,4.397849174499512
1789453539105027000,7.621027099609375,-6.673238577270507,-4.926668466186523,4.024652990722656
1789453539114967000,7.630967041015625,-6.5297361152648925,-4.740519287109374,3.4578257476806638
1789453539124906000,7.640906005859375,-5.625625713348389,-4.793490998840332,3.719541916656494
1789453539134846000,7.650845947265625,-5.314080222320556,-4.873397479248046,4.095281939697266
1789453539144786200,7.6607861328125,-6.244377204895019,-4.7387236358642575,4.407276343536377
1789453539154725000,7.67072509765625,-6.3459811378479,-4.676025479888915,4.8326960510253905
1789453539164665000,7.6806650390625,-6.209212368011475,-4.809352584838867,4.9741035865783685
1789453539174605000,7.69060498046875,-6.086509532928466,-5.010465524291992,5.122394451904297
1789453539184544000,7.7005439453125,-6.734889270019531,-4.624400506591797,5.301809938812256
1789453539194484000,7.71048388671875,-6.000168635559081,-4.4297219841003415,5.0662803504943845
1789453539204424200,7.720424072265625,-5.682787277984619,-4.1094975120544435,4.280832568359375
1789453539214363100,7.730363037109375,-4.0800189041137696,-3.5057097808837887,3.6981437393188474
1789453539224303000,7.74030322265625,-5.322011015319824,-3.2255881866455076,3.2857425033569334
1789453539234242800,7.750242919921875,-6.60754766921997,-3.2386066581726074,3.1940146522521973
1789453539244182000,7.76018212890625,-7.562085943603515,-3.4974797126770016,3.011456775665283
1789453539254122000,7.7701220703125,-6.922534825134277,-3.6031238609313965,3.7556045791625974
1789453539264062000,7.78006201171875,-6.237942787933349,-3.65819049911499,4.794089549255371
1789453539274001200,7.790001220703125,-6.832153712463379,-3.712508949279785,4.978742352294922
1789453539283941000,7.799941162109375,-6.8201827041625975,-3.8507740951538083,5.086182151794433
1789453539293880800,7.809880859375,-6.580762538146972,-4.0614638412475585,5.689221694946289
1789453539303820000,7.819820068359375,-6.956502561187744,-4.168155452728271,5.6817398147583
1789453539313760000,7.829760009765625,-7.37354256286621,-4.045153342437744,5.595099642181396
1789453539323700000,7.839699951171875,-7.449857740783691,-3.91362188873291,5.886892969512939
1789453539333639200,7.84963916015625,-6.7657146163940425,-3.7618893585205075,5.802048448181152
1789453539343579100,7.8595791015625,-7.562085943603515,-3.3195606018066406,5.376030190277099
1789453539353518800,7.869518798828125,-6.835445739746094,-3.1063270164489745,5.008071322631836
1789453539363457800,7.879457763671875,-6.1179334297180175,-3.2071827613830566,4.866663787078857
1789453539373398000,7.88939794921875,-6.230311270141601,-3.5794811195373533,4.651634550476074
1789453539383338000,7.899337890625,-6.327126799774169,-3.3060932174682613,4.1754876953124995
1789453539393277000,7.90927685546875,-5.731269861602783,-3.7542578407287595,3.745878134918213
1789453539403217200,7.919217041015625,-5.259312859344482,-3.826832078552246,3.1616929298400875
1789453539413156900,7.929156982421875,-4.929511580657959,-4.272303224945068,3.0047230834960934
1789453539423096000,7.939095947265625,-5.3782747543334954,-4.237288025665283,3.0258219856262207
1789453539433036000,7.9490361328125,-5.392639964294434,-4.217086949157714,2.9831752685546875
1789453539442975000,7.95897509765625,-5.132120896148681,-4.528632440185547,3.2954689476013184
1789453539452915000,7.9689150390625,-5.2630537994384765,-4.650437449645996,3.5045126800537107
1789453539462855200,7.978855224609375,-5.930437512207031,-4.960037651824951,3.7288194480895993
1789453539472795100,7.988795166015625,-5.39458525314331,-5.0203416061401365,4.0161236473083495
1789453539482734000,7.998734130859375,-5.802946273803711,-5.1399020515441896,4.157680820465088
1789453539492674000,8.008674072265626,-6.272359436798095,-5.194519776916503,4.222473902893066
1789453539502613000,8.018613037109375,-6.0613704154968255,-5.338620789337158,4.120869969940185
1789453539512553000,8.028552978515625,-6.178387021636962,-5.311087470245361,4.256441638946533
1789453539522493200,8.0384931640625,-6.571485006713867,-5.308992543792725,4.874145667266846
1789453539532432100,8.04843212890625,-6.0996776420593255,-5.466860215759277,5.4701522430419915
1789453539542372000,8.0583720703125,-6.593781009674072,-5.743390507507324,5.616497819519043
1789453539552312000,8.06831201171875,-6.697779144287109,-5.969941839599609,5.812523080444335
1789453539562251000,8.0782509765625,-6.239738439178466,-5.942408520507812,6.112845751190185
1789453539572191000,8.08819091796875,-6.345232949829101,-6.179135209655762,5.877914713287353
1789453539582131200,8.098131103515625,-6.217592073822021,-6.293907251739501,5.646275702667236
1789453539592070100,8.108070068359375,-5.722291605377197,-6.685808135986328,5.730072760772705
1789453539602010000,8.118010009765625,-5.96934328918457,-7.241861471557617,5.87387449798584
1789453539611949800,8.12794970703125,-6.214748959350586,-7.428758838653564,5.673210471343994
1789453539621889000,8.137888916015624,-6.077381639099121,-7.772775689697265,5.457133771514893
1789453539631829000,8.1478291015625,-5.634903244781494,-8.066065393066406,5.370044686126708
1789453539641769000,8.15776904296875,-5.820304235839844,-7.96745421218872,5.078999546813964
1789453539651708200,8.167708251953124,-6.10970336151123,-7.883956429290771,4.778826513671874
1789453539661648100,8.177648193359374,-5.651662656402587,-7.785045973205566,4.671087438964843
1789453539671587800,8.187587890625,-5.245246924591064,-7.580641006469726,4.478503842926025
1789453539681527000,8.197527099609376,-5.2645501754760735,-7.458835997009277,4.412364022064208
1789453539691467000,8.207467041015626,-5.300313562774658,-7.532158422851562,4.269759385681152
1789453539701407000,8.217406982421876,-5.550208361053467,-7.81437494354248,3.868281694793701
1789453539711346000,8.227345947265626,-4.440795166778564,-8.224980528259277,3.5440170074462887
1789453539721286100,8.2372861328125,-3.9248447090148924,-8.680627031707763,3.359513842010498
1789453539731225900,8.247225830078126,-4.8977884086608885,-9.181763366699219,3.047968350982666
1789453539741164800,8.257164794921875,-5.615450356292724,-9.465326625823973,2.981978167724609
1789453539751105000,8.26710498046875,-5.0571524566650385,-9.06609349899292,3.3553239891052242
1789453539761045000,8.277044921875,-4.3610383239746096,-8.48475140838623,3.658789049530029
1789453539770984000,8.28698388671875,-4.549581704711914,-8.3502272026062,3.4958336990356442
1789453539780924200,8.296924072265625,-4.859630819702148,-8.526949212646484,3.229927677154541
1789453539790864000,8.30686376953125,-4.779873976898193,-8.703521585083008,3.4029087471008297
1789453539800803000,8.316802978515625,-4.383932877349853,-8.766668653869628,3.3571196403503416
1789453539810743000,8.326742919921875,-4.138826482391357,-8.671798413085938,3.3291374084472656
1789453539820683000,8.33668310546875,-4.1241619972229,-8.82263311767578,3.151966485595703
1789453539830622000,8.3466220703125,-4.211101445007324,-8.886229099273681,3.2308255027770993
1789453539840562200,8.356562255859375,-4.506186799621582,-9.118915573120116,2.9960441024780273
1789453539850502000,8.366501953125,-4.422838654327393,-9.192237998962401,3.0928596321105957
1789453539860441000,8.376441162109375,-3.9266403602600097,-8.923788137817382,3.3295863212585446
1789453539870381000,8.386381103515625,-4.244171355438232,-8.93156929321289,3.8193501983642575
1789453539880321000,8.396321044921875,-4.422838654327393,-8.986037380981445,3.9170635536193847
1789453539890260000,8.406260009765624,-4.556614672088623,-9.197774590301513,3.6707600578308104
1789453539900200200,8.4162001953125,-4.734384145355224,-9.27079774093628,3.9872435897827145
1789453539910140200,8.42614013671875,-4.781370352935791,-9.259574920654297,4.389319831085205
1789453539920079000,8.4360791015625,-4.735581246185302,-8.961945726776122,4.4662335594177245
1789453539930019000,8.44601904296875,-4.563797277069091,-8.53517928085327,4.345775288391113
1789453539939959000,8.455958984375,-4.362534700012207,-8.160187445831298,4.382735776519775
1789453539949898000,8.46589794921875,-4.021959513854981,-7.941417269134521,4.084358394622803
1789453539959838200,8.475838134765626,-3.9311294883728025,-8.198345034790039,3.3646015205383297
1789453539969778200,8.485778076171876,-4.059518552398681,-8.61224264678955,2.865260836791992
1789453539979717000,8.495717041015626,-4.152593141937255,-8.96419029083252,2.7322330070495604
1789453539989657000,8.505656982421876,-4.088248972320557,-9.079710520935057,2.933495584106445
1789453539999597000,8.51559716796875,-3.7925650672912594,-8.977358399963379,3.1411925781249996
1789453540009536000,8.525535888671875,-3.584119885253906,-8.793753060150147,3.0334535034179684
1789453540019476200,8.535476318359375,-3.841047650909424,-8.718934258270263,2.7091888160705566
1789453540029416200,8.545416259765625,-3.958812445068359,-8.825925144958495,2.236633263397217
1789453540039355100,8.555355224609375,-3.9707834533691404,-8.862586357879637,2.03043264541626
1789453540049295000,8.565295166015625,-4.189553630065918,-8.780136038208008,2.35574479598999
1789453540059235000,8.575235107421875,-4.07971962890625,-8.541164785003662,2.7323826446533204
1789453540069174000,8.585174072265625,-3.8612487274169918,-8.660425955200195,2.8048072448730466
1789453540079114200,8.5951142578125,-3.988291053009033,-8.788964656829833,2.889502128601074
1789453540089054200,8.60505419921875,-4.445733207702636,-8.803030591583251,3.0111575004577635
1789453540098993200,8.6149931640625,-4.863671035003661,-8.60625714263916,3.5754409042358395
1789453540108933000,8.62493310546875,-4.78226817855835,-8.333318153381347,4.129100038146972
1789453540118873000,8.634873046875,-4.695777643585205,-8.092102336120606,4.524592224884033
1789453540128812000,8.64481201171875,-4.721515311431885,-7.80794052658081,4.871601828002929
1789453540138752300,8.654752197265625,-4.846612348175048,-7.631068878936767,5.078849909210205
1789453540148692200,8.664692138671874,-5.235520480346679,-7.442226222991943,5.269188941192627
1789453540158631200,8.674631103515624,-5.788431426239013,-7.494749021911621,5.463568188476562
1789453540168571000,8.68457080078125,-5.763441946411133,-7.308150930023193,5.558438429260254
1789453540178511000,8.694510986328124,-5.496638098907471,-7.1692872337341305,5.572953276824951
1789453540188450000,8.704449951171876,-5.108178879547119,-7.047182949066162,5.522226129150391
1789453540198390000,8.71439013671875,-4.533271205902099,-7.005733332824707,5.2162172294616695
1789453540208330200,8.724330322265626,-4.146158724975586,-7.119457911682129,4.632032024383545
1789453540218269200,8.734269287109376,-4.2965445167541505,-7.126790154266357,4.365677089691162
1789453540228209000,8.744208984375,-4.7301942924499505,-7.111676756286621,4.490325213623047
1789453540238149000,8.754149169921876,-5.1973628913879395,-7.255029580688476,4.956446349334716
1789453540248088000,8.764088134765625,-5.666027866363525,-7.55924282913208,5.5930047157287595
1789453540258028000,8.774028076171875,-5.73920065460205,-7.549516384887695,6.280290229797363
1789453540267968300,8.78396826171875,-5.548711985015869,-7.475296133422851,6.393116983032226
1789453540277907200,8.7939072265625,-5.734561888885498,-7.339125914001464,6.237044962310791
1789453540287847200,8.80384716796875,-5.920411792755127,-7.075015543365478,6.101174018096923
1789453540297787100,8.813787109375,-5.782146646881103,-6.7465610031127925,5.9305871498107905
1789453540307726000,8.82372607421875,-5.642385124969482,-6.9156514953613275,5.6669256919860835
1789453540317666000,8.833666015625,-5.377975479125976,-6.994809787750244,5.52866054611206
1789453540327606300,8.843606201171875,-5.092167655944824,-6.732644705963135,5.247641126251221
1789453540337545200,8.853545166015625,-5.295076246643066,-6.613682810974121,5.159953490447998
1789453540347485200,8.863485107421875,-5.540332279205322,-6.493673452758789,5.225494760894775
1789453540357425200,8.873425048828125,-5.916521215057372,-6.418555375671386,5.9017070922851556
1789453540367364000,8.883364013671875,-6.162375798034668,-6.378901410675049,6.465691220855713
1789453540377304000,8.893303955078125,-5.794865843200683,-6.253804373931884,6.423493416595458
1789453540387244300,8.903244384765625,-5.780799908447265,-6.017825872802734,5.742791957092285
1789453540397183200,8.913183349609374,-5.722291605377197,-5.668571705627441,5.243600910949707
1789453540407123200,8.923123291015624,-5.749675286865234,-5.491400782775878,4.684105910491943
1789453540417063000,8.93306298828125,-6.2578445892333985,-5.4242134986877435,4.60345124206543
1789453540427002000,8.943002197265624,-6.1373863182067865,-5.329193620300293,5.308992543792725
1789453540436942000,8.952942138671874,-5.886444056701659,-5.350442160034179,5.511302584075928
1789453540446882000,8.962882080078124,-5.936423016357422,-5.278616110229492,5.638494547271728
1789453540456821200,8.9728212890625,-5.659144536590576,-5.112368732452392,5.459079060363769
1789453540466761200,8.98276123046875,-5.521926853942871,-5.058798470306396,5.123292277526855
1789453540476701000,8.992700927734376,-5.833023432159424,-5.130025969696044,5.0185459548950195
1789453540486640000,9.00264013671875,-5.9491422126770015,-5.523872142791748,4.700865322113037
1789453540496580000,9.012580078125,-6.399102487182617,-5.584026459503174,4.753537758636474
1789453540506520000,9.02252001953125,-6.801328366088867,-5.425859512329101,4.680963520812988
1789453540516459300,9.032459228515625,-7.0001967414855955,-5.564573571014404,4.829703298950195
1789453540526399200,9.042399169921875,-7.203554244995117,-5.516839175415039,4.235342736816406
1789453540536339000,9.0523388671875,-6.3420905601501465,-5.38815083618164,3.7708676147460936
1789453540546278000,9.06227783203125,-6.839785230255127,-5.267243652343749,3.9923312683105467
1789453540556218000,9.072218017578125,-6.5865984046936035,-4.98637387008667,4.479252030944824
1789453540566158000,9.082157958984375,-5.998821897125244,-4.66016389389038,4.718522559356689
1789453540576097000,9.092096923828125,-5.562777919769287,-4.327070587921142,4.950460845184326
1789453540586037200,9.102037353515625,-6.40389089050293,-4.004601551818848,4.721216036224365
1789453540595977000,9.11197705078125,-6.131101538848877,-3.812915781402588,4.381239400482177
1789453540605916000,9.121916015625,-6.4266358062744136,-3.864989667510986,5.030516963195801
1789453540615856000,9.131856201171875,-6.387131478881836,-3.916165727996826,5.813570543670654
1789453540625796000,9.141796142578125,-6.530484303283691,-3.5166333259582516,5.1140147460937495
1789453540635735000,9.151735107421874,-5.095609320831299,-3.309534882354736,3.3873464363098145
1789453540645675300,9.16167529296875,-3.9152679023742674,-2.9076082786560056,2.7473464050292966
1789453540655615000,9.171614990234374,-5.06867455215454,-2.7608137893676754,3.0056209091186523
1789453540665554000,9.181553955078124,-6.795193224334716,-3.1754595893859863,3.5550901901245116
1789453540675494100,9.191494140625,-6.754192520904541,-3.3253964683532713,3.9363668045043942
1789453540685434000,9.20143408203125,-6.729801591491698,-3.427748589324951,3.7997476722717285
1789453540695373000,9.211373046875,-6.936301484680175,-3.6739024475097652,4.186560877990723
1789453540705313300,9.221313232421876,-6.74820701675415,-3.9457939735412597,4.858732994079589
1789453540715253000,9.2312529296875,-6.534674156188965,-4.269011197662353,5.135263285827636
1789453540725192200,9.241192138671876,-6.709600514984131,-4.478204567718506,4.6273932586669915
1789453540735132200,9.251132080078126,-7.448361364746093,-4.455160376739502,4.529230990600586
1789453540745072000,9.261072021484376,-7.014113038635253,-4.387823455047607,4.865466686248779
1789453540755011000,9.271010986328125,-6.56325493850708,-4.2965445167541505,4.831947863006591
1789453540764951300,9.280951416015625,-7.159411151885986,-4.043357691192627,5.057601369476318
1789453540774891300,9.290891357421875,-6.917746421813964,-3.9845501129150387,5.173420874786377
1789453540784831000,9.3008310546875,-6.194398245239258,-3.948637088012695,5.124190103149414
1789453540794770000,9.31077001953125,-6.2964510910034175,-3.7056256195068356,4.639813179779052
1789453540804710100,9.320710205078125,-5.866093342590331,-3.411737365722656,4.049193557739257
1789453540814650000,9.330650146484375,-5.438129795837402,-3.4777275489807127,3.7294179985046383
1789453540824589000,9.340589111328125,-5.211578463745117,-3.554790914916992,3.44750075302124
1789453540834529300,9.350529296875,-5.428852264404297,-3.648015142059326,3.3720834007263183
1789453540844469000,9.360468994140625,-5.243600910949707,-3.915567177581787,3.4816181266784665
1789453540854408000,9.370407958984375,-5.042039058685303,-3.8584056129455564,3.4587235733032227
1789453540864348200,9.38034814453125,-5.67530539779663,-4.4279263328552245,3.496731524658203
1789453540874288000,9.3902880859375,-5.5738511024475095,-4.983830030822753,3.9619548347473144
1789453540884227000,9.40022705078125,-5.757456442260742,-5.070170928192138,4.289661186981201
1789453540894167300,9.410167236328125,-5.974131692504883,-5.417330168914795,4.115931929016113
1789453540904107000,9.42010693359375,-6.343138023376464,-5.366154108428955,4.441692992401123
1789453540914046000,9.4300458984375,-6.299593480682373,-5.316025511169434,4.7110406791687005
1789453540923986200,9.439986083984374,-6.275052913665771,-5.355529838562012,4.8421232200622555
1789453540933927000,9.449927001953125,-6.208164904785156,-5.508309832000732,4.797531214141846
1789453540943865900,9.459865966796874,-6.681019732666015,-5.861753852081298,4.685003736114502
1789453540953805800,9.469805908203124,-7.076811194610595,-6.194398245239258,5.048623113250732
1789453540963745800,9.479745849609374,-6.606350568389892,-6.626102732086181,5.653907220458984
1789453540973684700,9.489684814453126,-5.988646540069579,-7.048529687499999,6.13544102935791
1789453540983625000,9.499625,-6.071845047760009,-7.089081478118896,5.952583877563476
1789453540993565000,9.50956494140625,-6.193799694824218,-6.802375829315185,5.391442863464355
1789453541003503900,9.51950390625,-5.492148970794678,-6.611438246917724,4.64774397277832
1789453541013443800,9.52944384765625,-5.053261878967285,-6.597372312164306,4.031985233306885
1789453541023383800,9.5393837890625,-5.308244355773925,-6.634183162689209,3.84329221496582
1789453541033322800,9.54932275390625,-5.550806911468506,-6.76691171722412,3.889829509735107
1789453541043263000,9.559262939453125,-5.622632961273193,-7.146243042755127,4.438999515533447
1789453541053203000,9.569202880859375,-5.383811345672607,-7.612962728881835,5.229385338592529
1789453541063142000,9.579141845703125,-5.13960277633667,-7.907748808288574,5.429750090026855
1789453541073081900,9.589081787109375,-5.234622654724121,-8.059032425689697,5.007323134613037
1789453541083021800,9.599021728515625,-5.673509746551513,-8.436418462371826,4.562749813842773
1789453541092960800,9.608960693359375,-5.765836148071289,-8.418761225128174,4.540902723693847
1789453541102900700,9.618900634765625,-5.743240869903564,-8.282441368103028,4.546588952636719
1789453541112841000,9.628841064453125,-5.2247465728759765,-8.081777341461182,4.66704722366333
1789453541122780000,9.63877978515625,-4.355950645446777,-7.9286980728149405,4.772541734313965
1789453541132719900,9.648719970703125,-4.99909306640625,-7.9086466339111325,4.345027100372314
1789453541142659800,9.658659912109375,-5.258564671325684,-8.116193990325927,3.818452372741699
1789453541152598800,9.668598876953125,-5.132120896148681,-8.404844927978516,3.7249288703918455
1789453541162538800,9.678538818359375,-5.106083953094482,-8.834155213165282,3.9260418098449703
1789453541172479000,9.68847900390625,-4.817881928253174,-9.377339714813232,4.012083432006835
1789453541182418000,9.69841796875,-4.636072239685058,-9.810390940093994,3.8365585227966306
1789453541192358000,9.70835791015625,-4.270357936096191,-9.654767832183838,3.3604116676330564
1789453541202297900,9.7182978515625,-4.204218115234375,-9.363872330474853,2.8865093765258787
1789453541212236800,9.72823681640625,-4.300734369659423,-8.998008389282226,2.513612467956543
1789453541222176800,9.7381767578125,-4.35415499420166,-8.626458219146729,2.544138539123535
1789453541232117000,9.748116943359374,-4.339789784240723,-8.576479259490966,3.289782718658447
1789453541242056000,9.758055908203126,-4.4689270362854,-8.712948754119873,3.8289270050048825
1789453541251996000,9.767995849609376,-4.73737689743042,-8.798840738677978,3.941155207824707
1789453541261935900,9.777935791015626,-4.808754034423828,-8.735693669891356,3.8392519996643064
1789453541271874800,9.787874755859375,-4.711190316772461,-8.536376381683349,3.699939390563965
1789453541281814800,9.797814697265625,-4.514416867828369,-8.461407942199706,3.439869235229492
1789453541291755000,9.807755126953126,-4.467281022644043,-8.647108208465575,3.218854494476318
1789453541301695000,9.817695068359376,-4.526238238525391,-8.974515285491943,3.459621398925781
1789453541311634000,9.827634033203125,-4.510376652526856,-9.230844500732422,3.883544730377197
1789453541321574000,9.837573974609375,-4.634575863647461,-9.337236837005614,4.2149920227050774
1789453541331513900,9.847513916015625,-4.600308852386474,-9.049483724975586,4.408922357177734
1789453541341452800,9.857452880859375,-4.4960114425659174,-8.683021233367919,4.246715194702148
1789453541351392800,9.867392822265625,-4.452017987060547,-8.64411545639038,4.092887738037109
1789453541361333000,9.8773330078125,-4.0638580429077145,-8.770409593963622,3.4247558372497555
1789453541371272000,9.88727197265625,-3.7825393478393554,-8.974066372680664,2.740911988067627
1789453541381211600,9.897211669921875,-3.7098154724121093,-9.087940589141844,2.558803024291992
1789453541391151900,9.90715185546875,-3.6713586082458494,-9.153631497192382,2.6550200035095215
1789453541401090800,9.9170908203125,-3.7165491645812985,-9.14151085128784,2.7448025657653807
1789453541411030800,9.92703076171875,-3.6529531829833983,-8.989479045867919,2.7480945930480956
1789453541420971000,9.936970947265625,-3.6267666023254392,-8.971223258209228,2.76440509185791
1789453541430910000,9.946909912109374,-3.591751403045654,-8.933364944458008,2.7973253646850584
1789453541440849700,9.956849609375,-3.729118723297119,-8.793753060150147,2.8425159210205075
1789453541450790000,9.966789794921874,-3.8851907440185545,-8.751106343078613,2.8751369186401368
1789453541460728800,9.976728759765624,-3.9374142677307127,-8.557026371002197,2.937535799407959
1789453541470668800,9.986668701171874,-4.076876514434814,-8.56824919128418,2.7678467567443845
1789453541480609000,9.996609130859374,-4.436754951477051,-8.566004627227782,2.7359739471435547
1789453541490548000,10.0065478515625,-4.725705164337158,-8.482806119537353,2.9691093338012693
1789453541500487700,10.01648779296875,-5.008669873046875,-8.493430389404296,3.349039209747314
1789453541510428000,10.026427978515626,-4.985027131652831,-8.3379569190979,3.7740100044250484
1789453541520366800,10.036366943359376,-5.004629657745361,-8.023867588806151,4.249408671569824
1789453541530306800,10.046306884765626,-5.156212550354003,-7.7979148071289055,4.443937556457519
1789453541540247000,10.0562470703125,-5.228487512969971,-7.537545376586913,4.465784646606445
1789453541550186000,10.06618603515625,-5.2165165046691895,-7.340023739624023,4.605246893310547
1789453541560126000,10.0761259765625,-5.153369435882568,-7.261912910461425,4.789750058746337
1789453541570066000,10.08606591796875,-5.131073432922363,-7.403320446014404,4.936843823242187
1789453541580004900,10.0960048828125,-4.886116675567627,-7.664288426971435,5.013458276367187
1789453541589944800,10.10594482421875,-4.56439582748413,-7.847893766784668,4.908711953735351
1789453541599884800,10.115884765625,-4.34757093963623,-7.903259680175781,4.8606782829284665
1789453541609824000,10.125823974609375,-4.292055388641357,-7.880215489196777,4.814290625762939
1789453541619764000,10.135763916015625,-4.2800843803405755,-7.7322238990783685,4.758326161956787
1789453541629703700,10.14570361328125,-4.32198290939331,-7.576600791168213,4.723909513092041
1789453541639643000,10.155642822265625,-4.625447969818115,-7.605480848693847,4.699518583679199
1789453541649582800,10.165582763671875,-4.930409406280518,-7.531559872436523,4.727949728393554
1789453541659522800,10.175522705078125,-5.0483238380432125,-7.605929761505126,4.7095443031311035
1789453541669462000,10.1854619140625,-5.3205146392822265,-7.657854010009765,4.702810610961913
1789453541679402000,10.195402099609375,-5.644031138610839,-7.553257324981689,4.872649291229248
1789453541689341700,10.205341796875,-5.630264479064941,-7.414094353485107,5.4266077003479
1789453541699281000,10.215281005859374,-5.396380904388427,-7.378330966186523,5.757755717468261
1789453541709220900,10.225220947265624,-5.259612134552001,-6.9995981910705565,5.550357998657226
1789453541719160800,10.235160888671874,-5.347449407958984,-6.67802698059082,5.052962603759766
1789453541729101000,10.24510107421875,-5.680393076324463,-6.402693789672851,4.682609534454345
1789453541739040000,10.2550400390625,-6.026055941009521,-5.9485436622619625,4.683956272888183
1789453541748979700,10.264979736328126,-6.002862112426757,-5.705981106567383,5.17102667312622
1789453541758920000,10.274919921875,-5.653159032440185,-6.00794979095459,5.49065259475708
1789453541768859000,10.28485888671875,-5.761795932769775,-6.38473727722168,5.755211878204346
1789453541778798800,10.294798828125,-5.473893183135986,-6.355857219696045,5.781099183654785
1789453541788739000,10.304739013671876,-5.58597174835205,-6.212654032897949,5.429301177215576
1789453541798678000,10.314677978515626,-6.174346806335449,-6.315305429077148,5.360767154693603
1789453541808617700,10.32461767578125,-5.864447328948974,-6.172102242279053,5.228936425781249
1789453541818558000,10.334557861328125,-5.787533600616455,-6.037129123687744,4.785410568237304
1789453541828497000,10.344496826171875,-6.34568186264038,-6.110900462341308,5.125536841583251
1789453541838436900,10.354436767578125,-6.6066498435974115,-6.1355906669616695,5.578639505767822
1789453541848376800,10.364376953125,-6.615927375030517,-6.358251421356201,5.946299098205566
1789453541858316000,10.37431591796875,-6.568492254638672,-6.715137106323242,5.709273133850098
1789453541868255700,10.384255859375,-6.702417910003661,-6.581361088562011,5.446808776855469
1789453541878195700,10.39419580078125,-6.650643299102783,-6.112097563171386,5.064185424041748
1789453541888135000,10.404135009765625,-6.4935238151550285,-5.448005877685547,4.93504817199707
1789453541898075000,10.414074951171875,-6.05852730102539,-5.0291702247619625,4.622455217742919
1789453541908014800,10.424014892578125,-5.490802232360839,-5.014954652404785,4.582950890350341
1789453541917954000,10.4339541015625,-6.283133344268799,-5.195417602539062,4.6998178588867185
1789453541927893800,10.443893798828125,-6.578817249298095,-5.220407082366943,5.247341851043701
1789453541937833500,10.45383349609375,-5.783792660522461,-5.090521642303466,5.3305403587341305
1789453541947772400,10.4637724609375,-6.450577822875976,-5.186738621520996,5.090372004699707
1789453541957712600,10.473712646484374,-5.706729294586181,-5.144091904449462,4.7472529792785645
1789453541967652600,10.483652587890624,-5.330241083526611,-4.932354695129394,4.600009577178954
1789453541977591600,10.493591552734374,-5.493944622039795,-4.4373535018920895,4.560355612182617
1789453541987531800,10.50353173828125,-6.433369498443603,-3.995174382781982,4.374206433105469
1789453541997471500,10.513471435546874,-6.55667088394165,-3.7120600364685057,3.8859389320373534
1789453542007410400,10.523410400390626,-5.963806697845459,-3.7695208763122556,4.871601828002929
1789453542017350700,10.5333505859375,-5.966200899505615,-3.8328175827026363,4.576067560577393
1789453542027290600,10.54329052734375,-4.59043277053833,-3.8174049095153806,4.435707488250732
1789453542037229600,10.5532294921875,-4.9072155776977535,-3.895665376281738,4.1937434829711915
1789453542047169800,10.563169677734376,-5.578938780975341,-3.8365585227966306,3.5878608253479003
1789453542057109500,10.573109619140626,-5.676502498626709,-3.8166567214965816,3.6661212921142576
1789453542067048400,10.58304833984375,-5.468356591796875,-3.8367081604003905,3.5927988662719725
1789453542076988700,10.59298876953125,-6.51881257019043,-3.5110967346191404,3.2007483444213864
1789453542086928600,10.6029287109375,-6.503549534606933,-3.412186278533935,3.943699047088623
1789453542096867600,10.61286767578125,-6.155492468261718,-3.970484178161621,5.242403810119629
1789453542106807800,10.622807861328125,-6.391770244598388,-3.9567175186157226,5.247341851043701
1789453542116747500,10.63274755859375,-6.782922940826416,-3.832069394683838,5.293729508209228
1789453542126686500,10.6426865234375,-6.866420723724365,-3.9291841995239256,5.467758041381836
1789453542136626700,10.652626708984375,-6.616825200653076,-3.8289270050048825,5.379771130371093
1789453542146566700,10.662566650390625,-6.681169370269775,-3.6379894226074216,5.226841499328613
1789453542156505600,10.672505615234375,-6.560561461639404,-3.562871345520019,4.847360536193848
1789453542166445600,10.682445556640625,-6.352864467620849,-3.407996425628662,4.3369466697692864
1789453542176385500,10.692385498046875,-6.339397083282471,-3.363254782104492,4.335899206542969
1789453542186324500,10.702324462890624,-6.1270613235473625,-3.556736203765869,4.37989266204834
1789453542196264400,10.712264404296874,-5.805789388275146,-3.761440445709228,4.25838692779541
1789453542206204700,10.72220458984375,-5.658845261383056,-3.9694367149353025,4.206313041687012
1789453542216143600,10.7321435546875,-5.804741925048828,-4.249259033966064,4.185663052368164
1789453542226083600,10.74208349609375,-5.63759672164917,-4.294599227905273,4.278139091491699
1789453542236023600,10.7520234375,-5.290736756134033,-4.403834678649902,4.048445369720459
1789453542245962500,10.76196240234375,-5.24823967666626,-4.773140284729004,3.8735190109252926
1789453542255902500,10.77190234375,-5.639242735290527,-5.008370597839355,3.97123236618042
1789453542265842700,10.7818427734375,-5.9771244445800775,-5.259761772155762,4.37959338684082
1789453542275781600,10.79178173828125,-5.819107135009765,-5.5090580200195305,4.841375032043457
1789453542285721600,10.8017216796875,-5.846191541290283,-5.418676907348632,4.911405430603027
1789453542295661600,10.81166162109375,-5.95677373046875,-5.313631309509277,4.5617023506164545
1789453542305600800,10.821600830078125,-5.779004257202148,-5.313332034301758,4.319887982940673
1789453542315540500,10.83154052734375,-5.52895982131958,-5.461622899627685,4.272303224945068
1789453542325480700,10.841480712890625,-5.772270565032959,-5.691166983795165,4.487931011962891
1789453542335419600,10.851419677734375,-6.016329496765136,-6.024409927368164,4.712836330413818
1789453542345359600,10.861359619140625,-6.2858268211364745,-6.315155791473388,4.888810152435302
1789453542355299600,10.871299560546875,-6.646752721405029,-6.172251879882812,5.239859970855712
1789453542365238800,10.88123876953125,-6.215347509765625,-6.102520756530762,5.326649781036377
1789453542375178500,10.891178466796875,-6.158634857940673,-6.342539472961425,5.147533569335937
1789453542385118700,10.90111865234375,-6.4071829177856445,-6.7663131668090815,4.894197106170654
1789453542395057700,10.9110576171875,-5.974430967712402,-7.069179676818847,5.040243407440185
1789453542404997600,10.92099755859375,-5.628618465423584,-7.20774409790039,5.210082087707519
1789453542414937600,10.9309375,-5.795015480804443,-7.16300245437622,5.060294846343994
1789453542424876800,10.940876708984375,-5.428104076385497,-7.063343810272216,4.746355153656006
1789453542434816500,10.95081640625,-5.080795198059081,-7.1692872337341305,4.487033186340332
1789453542444756500,10.960756591796875,-5.482572164154052,-7.351994747924804,4.462043706512451
1789453542454695700,10.97069580078125,-5.889736083984375,-7.69316848449707,4.828206922912598
1789453542464635600,10.9806357421875,-5.463119275665283,-8.300397880554199,5.437680883026123
1789453542474575600,10.99057568359375,-4.708197564697265,-8.623764742279052,5.742492681884765
1789453542484514800,11.000514892578124,-4.6432548446655275,-8.782380602264404,5.330091445922851
1789453542494454500,11.01045458984375,-4.800523966217041,-8.737788596343993,4.482843333435058
1789453542504394500,11.02039453125,-4.923226801300048,-8.514379653930664,3.633350656890869
1789453542514333700,11.030333740234376,-5.438279433441162,-8.314164540100098,3.2002994316101074
1789453542524273700,11.040273681640626,-5.112518370056152,-8.235006247711182,3.1932664642333983
1789453542534213600,11.050213623046876,-4.6073418197631835,-8.595333597564697,3.5767876426696774
1789453542544152600,11.060152587890625,-4.696675469207763,-9.044695321655272,4.042459865570068
1789453542554092500,11.070092529296875,-4.638316803741454,-9.375095150756835,4.20721086730957
1789453542564032500,11.080032470703125,-4.036025448608398,-9.343820891571044,3.8602012641906738
1789453542573971500,11.089971435546875,-4.239981502532959,-8.86064106903076,3.40260947189331
1789453542583911700,11.09991162109375,-4.778377600860596,-8.098536753082275,3.028515462493896
1789453542593851600,11.1098515625,-4.671985264587402,-7.607725412750244,2.8386253433227537
1789453542603790600,11.11979052734375,-4.091690637207031,-7.732972087097168,2.9158383468627926
1789453542613730600,11.12973046875,-3.661332888793945,-8.328829025268554,3.0985458610534664
1789453542623670500,11.13967041015625,-4.078971440887451,-9.110685504913329,2.914940521240234
1789453542633609500,11.149609375,-5.0303673255920405,-9.803208335113524,2.9132945075988768
1789453542643549700,11.1595498046875,-5.216666142272949,-9.926659358215332,3.3711855751037594
1789453542653489700,11.16948974609375,-4.949413381958007,-9.42402664718628,4.017320748138427
1789453542663428600,11.1794287109375,-4.655375490570068,-8.842385281372069,4.274847064208984
1789453542673368600,11.18936865234375,-4.512321941375732,-8.802880953979491,4.123563446807861
1789453542683308500,11.19930859375,-4.512471578979492,-9.085696025085449,3.8474820678710935
1789453542693247500,11.20924755859375,-4.663455921173095,-9.389909273529053,3.97123236618042
1789453542703187700,11.219187744140624,-4.503792597961426,-9.459191484069823,4.493766878509521
1789453542713126700,11.229126708984374,-4.118775043487549,-9.292195918273926,4.573224446105956
1789453542723066600,11.239066650390624,-3.975272581481933,-8.970774345397949,4.037521824645996
1789453542733006600,11.249006591796874,-4.000860611724853,-8.735244757080078,3.4675521919250487
1789453542742945800,11.25894580078125,-3.9510312896728514,-8.65623610229492,2.9507039085388183
1789453542752885500,11.268885498046876,-3.8908769729614257,-8.552836518096923,2.543390351104736
1789453542762825700,11.27882568359375,-3.723282856750488,-8.560916948699951,2.4275708457946776
1789453542772764700,11.2887646484375,-3.3859996978759765,-8.536526019287109,2.3992893386840817
1789453542782704600,11.29870458984375,-3.258508459472656,-8.645611832427978,2.2423194923400875
1789453542792644600,11.30864453125,-3.5609260566711423,-8.72117882232666,2.523189274597168
1789453542802583800,11.318583740234375,-3.924545433807373,-8.83505303878784,2.75168589553833
1789453542812523500,11.3285234375,-4.247313745117188,-8.888174388122557,2.5870845314025877
1789453542822463500,11.33846337890625,-4.538358884429932,-9.074772480010985,2.367266891479492
1789453542832402700,11.348402587890625,-4.5802574134826655,-9.208997410583496,2.4539070640563962
1789453542842342700,11.3583427734375,-4.477157104492187,-8.998457302093506,3.003077069854736
1789453542852282600,11.36828271484375,-4.267514821624756,-8.73344910583496,3.6254198638916013
1789453542862221800,11.378221923828125,-4.2217257148742675,-8.726565776062012,3.7783494949340817
1789453542872161500,11.38816162109375,-4.4199955398559565,-8.754248732757567,3.760991532897949
1789453542882101500,11.3981015625,-4.52638787612915,-8.445247080993651,3.7626375465393065
1789453542892040700,11.408040771484375,-4.604797980499267,-8.09554400100708,3.761440445709228
1789453542901980700,11.417980712890625,-4.627542896270752,-7.61041888961792,4.045153342437744
1789453542911920600,11.427920654296875,-4.582651615142822,-7.439832021331787,4.001608799743652
1789453542921859600,11.437859619140625,-4.458602041625976,-7.206247721862793,4.115632653808594
1789453542931799600,11.447799560546875,-4.631732749176025,-7.351096922302245,4.278139091491699
1789453542941739300,11.4577392578125,-4.9732057609558105,-7.565078695678711,4.533570481109619
1789453542951678200,11.46767822265625,-5.125237566375732,-7.684190228271484,4.783914192199707
1789453542961618200,11.4776181640625,-4.980538003540039,-7.897872726440429,5.05610499343872
1789453542971558400,11.487558349609374,-4.835688803100585,-7.785195610809326,5.299715012359619
1789453542981497300,11.497497314453126,-4.761618189239502,-7.513453722381591,5.493346071624756
1789453542991437300,11.507437255859376,-4.663755196380615,-7.333738960266113,5.323657028961182
1789453543001377300,11.517377197265626,-4.891653266906738,-7.217769817352295,4.9993923416137696
1789453543011316200,11.527316162109376,-5.026027835083007,-7.003788043975829,4.707599014282226
1789453543021256200,11.537256103515626,-5.221155270385742,-6.947225029754638,4.697423657226563
1789453543031195100,11.547195068359375,-5.652410844421387,-7.100304298400879,4.939686937713622
1789453543041135400,11.55713525390625,-5.960365032958984,-7.278821959686279,5.342511367034912
1789453543051075300,11.567075439453125,-5.933130989074707,-7.500584888458252,5.7998038841247554
1789453543061014300,11.57701416015625,-5.757606079864502,-7.802104660034179,6.031742169952392
1789453543070954200,11.586954345703125,-5.447108052062988,-7.955483203887939,6.141426533508301
1789453543080894200,11.596894287109375,-5.292083494567871,-7.973290078735351,6.01378565750122
1789453543090833200,11.606833251953125,-5.2076878860473625,-7.619247508239746,5.616198544311523
1789453543100773400,11.6167734375,-5.127631768035888,-7.083694524383544,5.039345581817627
1789453543110713300,11.62671337890625,-5.227589687347412,-6.6516907623291015,4.714482344055176
1789453543120652300,11.63665234375,-5.517288088226318,-6.288969210815429,4.6076410949707025
1789453543130592300,11.64659228515625,-5.735160439300537,-6.111199737548827,4.742614213562011
1789453543140532200,11.6565322265625,-6.124367846679687,-6.126462773132324,5.620538034820556
1789453543150471200,11.66647119140625,-6.10341858215332,-6.70975015258789,6.555324145507812
1789453543160411100,11.6764111328125,-5.8469397293090815,-6.82467183227539,6.666205609893798
1789453543170351400,11.686351318359375,-5.811026704406738,-6.960243501281738,6.414066247558593
1789453543180290300,11.696290283203124,-6.0419175270080565,-6.875398979949951,6.023811376953125
1789453543190230000,11.70622998046875,-5.9771244445800775,-6.349722077941895,5.514744248962402
1789453543200170200,11.716170166015624,-6.29495471496582,-5.955875904846191,5.193322676086425
1789453543210109200,11.726109130859374,-5.994033493804931,-5.555146401977539,4.979041627502441
1789453543220049200,11.736049072265626,-6.289268486022949,-5.512350047302246,4.8141409881591795
1789453543229989400,11.7459892578125,-6.3973068359375,-5.545719232940674,5.382165332031249
1789453543239928300,11.75592822265625,-5.823596263122559,-5.604526811218261,5.152770885467529
1789453543249868000,11.765867919921876,-5.511003308868408,-5.4418707359313965,4.760121813201904
1789453543259808300,11.775808349609376,-5.326200868225097,-4.519504546356201,4.309862263488769
1789453543269747200,11.785747314453126,-5.968595101165771,-4.135384817504883,3.6391865234374996
1789453543279687200,11.795687255859375,-6.412869146728515,-4.152293866729736,3.589806114196777
1789453543289627400,11.80562744140625,-6.356904682922363,-4.272452862548828,3.413084104156494
1789453543299566300,11.81556640625,-5.636249983215332,-4.570082056427002,4.044255516815185
1789453543309506300,11.82550634765625,-5.784840123748779,-5.062389772796631,4.843619596099853
1789453543319446300,11.8354462890625,-6.346878963470458,-5.4327428421020505,5.668870980834961
1789453543329385200,11.84538525390625,-6.680121907043457,-5.7149593627929685,5.865045879364013
1789453543339325200,11.8553251953125,-7.190236498260497,-5.4686558670043945,5.158157839202881
1789453543349264100,11.86526416015625,-6.1845221633911125,-4.815637364196777,4.576666110992432
1789453543359204400,11.875204345703125,-5.529708009338378,-4.7943888244628905,4.303577484130859
1789453543369144300,11.885144287109375,-5.842300963592529,-4.265868807983399,4.080916729736328
1789453543379083300,11.895083251953125,-6.495768379211426,-4.051438121795654,3.8441900405883787
1789453543389023200,11.905023193359375,-5.070919116210937,-3.9508816520690915,4.556913947296143
1789453543398963200,11.914963134765625,-5.0680760017395015,-3.8486791687011714,4.816535189819335
1789453543408902100,11.924902099609374,-4.599560664367676,-3.9495349136352536,4.706551551055908
1789453543418842400,11.93484228515625,-5.79711040725708,-3.7859810127258298,3.8902784225463867
1789453543428782300,11.9447822265625,-5.451447542572021,-3.349937035369873,3.891026610565185
1789453543438721300,11.95472119140625,-6.085013156890869,-3.1522657608032225,3.9719805541992184
1789453543448661200,11.9646611328125,-6.2407859024047845,-3.3132758224487304,3.947888899993896
1789453543458601200,11.974601318359374,-6.506392649078369,-3.225288911437988,3.871872997283935
1789453543468540200,11.9845400390625,-6.420799939727782,-3.203741096496582,4.395754248046875
1789453543478480400,11.99448046875,-6.181080498504638,-3.2550667945861815,4.631583111572265
1789453543488420400,12.00442041015625,-6.579715074920654,-3.280654824829101,4.824765258026122
1789453543498359300,12.014359375,-6.683413934326172,-3.506009056091308,5.1140147460937495
1789453543508299300,12.02429931640625,-6.310666663360595,-3.634847032928467,5.270535679626464
1789453543518239200,12.0342392578125,-6.377105759429932,-3.6715082458496093,4.950311207580566
1789453543528178200,12.04417822265625,-6.304082608795166,-3.713706050109863,4.423287567138671
1789453543538118100,12.0541181640625,-6.202628313446045,-3.6923078727722167,4.101865994262695
1789453543548058400,12.064058349609375,-6.169857678222656,-3.704129243469238,4.102015631866455
1789453543557997300,12.073997314453125,-6.110301911926269,-3.726574884033203,4.174739507293701
1789453543567937000,12.08393701171875,-5.881954928588867,-4.048295732116699,4.2886137237548825
1789453543577877200,12.093877197265625,-5.81611438293457,-4.43076944732666,4.356399558258056
1789453543587816200,12.103816162109375,-6.059125851440429,-4.7295957420349115,4.399495188140869
1789453543597756200,12.113756103515625,-5.803694461822509,-5.000140529632568,4.320785808563232
1789453543607695400,12.1236953125,-4.969764096069335,-5.0854339637756345,4.254496350097656
1789453543617635300,12.13363525390625,-5.29911646194458,-5.042787246704101,4.151695316314697
1789453543627575000,12.143574951171875,-5.812971993255615,-5.086481427001953,3.968389251708984
1789453543637514200,12.15351416015625,-6.44818362121582,-4.696076918792724,4.1940427581787105
1789453543647454200,12.1634541015625,-6.457012239837646,-4.369418029785156,4.679467144775391
1789453543657394200,12.173394287109375,-5.88584550628662,-4.496310717773437,4.883572836303711
1789453543667333000,12.1833330078125,-5.993584580993652,-4.762216739654541,4.742913488769531
1789453543677273300,12.1932734375,-6.251859085083008,-4.960037651824951,4.646846147155761
1789453543687213000,12.203213134765624,-5.660191999816894,-5.443816024780273,4.558859236145019
1789453543697152300,12.21315234375,-5.806088663482666,-5.791723453521728,4.5863925552368165
1789453543707092200,12.22309228515625,-6.085013156890869,-6.096684889984131,4.957344174957275
1789453543717032200,12.2330322265625,-5.967996550750732,-6.039074412536621,5.255422281646728
1789453543726971100,12.24297119140625,-6.161627610015869,-6.274753638458251,5.281309587097168
1789453543736911400,12.252911376953126,-5.9132291877746574,-6.521655684661865,5.5558945899963375
1789453543746851300,12.262851318359376,-5.560533355712891,-6.766462804412841,5.621735135650635
1789453543756790300,12.272790283203125,-5.819256772613525,-7.215076340484619,5.432593204498291
1789453543766730200,12.282730224609375,-5.361964255523682,-7.584830859375,5.16489153137207
1789453543776670200,12.292670166015625,-5.401917495727539,-7.649923217010498,4.717026183319091
1789453543786609200,12.302609130859375,-5.052962603759766,-7.671620669555663,4.089296435546875
1789453543796549400,12.31254931640625,-4.944026428222656,-7.962366533660888,3.6715082458496093
1789453543806489300,12.3224892578125,-5.561281543731689,-8.359804009246826,3.756801679992676
1789453543816428300,12.33242822265625,-5.709722046661376,-9.084050011444091,4.073584487152099
1789453543826368300,12.3423681640625,-5.084386500549316,-9.776423204040526,4.7664065925598145
1789453543836307200,12.35230712890625,-4.598363563537597,-9.993098454284667,5.450998629760742
1789453543846247200,12.3622470703125,-4.383184689331054,-9.628281976318359,5.141847340393066
1789453543856187400,12.3721875,-4.490175576019287,-8.932317481231689,3.8525697463989257
1789453543866126300,12.382126220703125,-5.1988592674255365,-8.175450481414794,2.3599346488952637
1789453543876066300,12.39206640625,-6.1188312553405755,-7.707683332061767,1.5946879432678223
1789453543886006300,12.40200634765625,-6.105663146209716,-7.438485282897949,2.19638074798584
1789453543895945200,12.4119453125,-5.434688130950928,-7.612813091278076,3.863792566680908
1789453543905885200,12.42188525390625,-4.493317965698242,-8.329726850891113,4.944774616241455
1789453543915825200,12.4318251953125,-4.027196829986572,-9.00204860458374,4.88387211151123
1789453543925764400,12.441764404296874,-4.454262551116943,-9.259126007843017,4.056974713134766
1789453543935704300,12.451704345703124,-4.894197106170654,-9.291298092651367,3.093009269714355
1789453543945644500,12.46164453125,-4.819527941894531,-9.16799670715332,2.8106431114196777
1789453543955583500,12.47158349609375,-4.438400965118408,-8.824428768920898,3.041533934020996
1789453543965523700,12.481523681640626,-4.154239155578613,-8.505251760101318,3.474285884094238
1789453543975463700,12.491463623046876,-4.135235179901123,-8.52994196472168,3.7395933555603027
1789453543985402600,12.501402587890626,-4.197484423065185,-8.86767403640747,3.6209307357788085
1789453543995342800,12.5113427734375,-4.515015418243408,-9.279925634765624,3.639635436248779
1789453544005282600,12.521282470703126,-4.774038110351563,-9.68514426574707,3.9202059432983396
1789453544015221500,12.531221435546875,-4.648641798400878,-9.839270997619629,4.2509050476074215
1789453544025161700,12.54116162109375,-4.572925170898437,-9.800365220642089,4.154987343597412
1789453544035100700,12.5511005859375,-4.521749110412597,-9.510816457366943,3.605368424987793
1789453544045040600,12.56104052734375,-4.536563233184814,-9.165901780700683,3.7954081817626952
1789453544054980900,12.57098095703125,-4.468178848266601,-8.912864592742919,4.139275395202636
1789453544064919800,12.580919921875,-4.59013349533081,-8.782679877471923,4.255094900512695
1789453544074859500,12.590859619140625,-4.695927281188965,-8.597278886413573,4.53940634765625
1789453544084799700,12.6007998046875,-4.407276343536377,-8.366388063812256,4.43690458908081
1789453544094738700,12.61073876953125,-4.140921408843994,-8.206126190185547,3.916764278411865
1789453544104678700,12.6206787109375,-3.982006273651123,-8.212859882354735,3.6490626052856445
1789453544114618600,12.63061865234375,-3.6727053466796873,-8.174851930999756,3.231124777984619
1789453544124557800,12.640557861328125,-3.6667198425292966,-8.213757707977294,2.805106520080566
1789453544134497500,12.65049755859375,-3.6412814498901365,-8.233210596466064,2.685396437072754
1789453544144437500,12.6604375,-3.450044592285156,-8.189366778564453,2.571522220611572
1789453544154376700,12.670376708984374,-3.558831130218506,-8.502259008026122,2.36861362991333
1789453544164316700,12.680316650390624,-3.8946179130554195,-8.636184663391113,2.4254759193420408
1789453544174256600,12.690256591796874,-4.224269554138183,-8.896554093933105,2.50912333984375
1789453544184195800,12.70019580078125,-4.61572152557373,-9.195230751037597,2.8369793296813963
1789453544194135600,12.710135498046874,-4.641908106231689,-9.109189128875732,3.086874127960205
1789453544204075500,12.720075439453124,-4.3725604194641114,-8.88099178314209,3.004573445892334
1789453544214014700,12.7300146484375,-4.107252947998047,-8.75978532409668,2.845658310699463
1789453544223954700,12.73995458984375,-4.169801466369629,-8.617629600524902,2.8848633628845213
1789453544233893600,12.7498935546875,-4.206462679290771,-8.490886550140381,2.961477816009521
1789453544243833600,12.75983349609375,-4.275146339416503,-8.511386901855468,3.227832750701904
1789453544253773600,12.769773681640626,-4.289960462188721,-8.479514092254638,3.7502176254272457
1789453544263712800,12.779712646484375,-4.210353256988525,-8.41487064743042,4.282029669189453
1789453544273652500,12.789652587890625,-4.028992481231689,-8.354865968322754,4.592527696990967
1789453544283592700,12.7995927734375,-4.30896443786621,-8.166322587585448,4.833593876647949
