time,seconds_elapsed,z,y,x
1789620287576703700,0.071703857421875,-1.3827829761654138,-0.6634709232389927,-0.021684812259301543
1789620287586675000,0.081675048828125,-1.0870756902605294,-0.6028256081402301,0.24907581004612148
1789620287596647000,0.09164697265625,-0.9395353510409593,-0.5271452209949493,0.28620274078287183
1789620287606617900,0.101617919921875,-0.927365020775795,-0.4711281502187252,-0.010965630650520324
1789620287616588800,0.1115888671875,-0.596757101881504,-0.40668344283699986,-0.14879742660857737
1789620287626561000,0.12156103515625,-0.3934422684699297,-0.462064553797245,-0.10235467825494705
1789620287636531700,0.13153173828125,-0.25447978798151016,-0.5463251377612353,0.007627280008047819
1789620287646503000,0.1415029296875,-0.15453239006400107,-0.5992553484380245,0.08648286312334239
1789620287656475000,0.151474853515625,-0.24272037660479545,-0.8732926543265581,0.29975203125104305
1789620287666447000,0.161447021484375,-0.17496435271799562,-0.8861702560782432,0.42801125835217535
1789620287676419000,0.171419189453125,0.30100071613788604,-0.4580874668598175,0.08155782781131565
1789620287686390300,0.181390380859375,0.6179711548238992,-0.14573650466799734,0.5114999811608344
1789620287696361000,0.19136083984375,0.9959422979176044,0.278227158793807,1.5012874827757476
1789620287706333200,0.201333251953125,1.1380226181656121,0.7779653174251318,2.4558538142099975
1789620287716304100,0.21130419921875,1.2442466121345759,1.1917676523566245,2.8765491235256193
1789620287726275000,0.221275146484375,0.903554521599412,0.0791635530859232,2.156479822491109
1789620287736247000,0.2312470703125,1.1648247003734111,0.40666707622408865,1.7330438361652194
1789620287746218000,0.241218017578125,1.1701298210442066,0.671930124026537,1.363854403811693
1789620287756189200,0.251189208984375,0.7275321842610836,0.1196533843845129,0.7719045560814439
1789620287766161000,0.261160888671875,0.6769453218400477,0.8589286134094,0.6379835768915713
1789620287776132000,0.271132080078125,-0.2757563847661018,2.1941507969766856,0.5426008565410971
1789620287786104000,0.28110400390625,-1.9663088405519722,2.9267905335098505,-0.21701821846291422
1789620287796075000,0.291074951171875,-2.382814004701376,1.5714198804050683,0.6678276571437716
1789620287806046000,0.3010458984375,-1.9458195947527885,-0.2942781298846006,1.5322436159230768
1789620287816018200,0.31101806640625,-2.5894851628035305,-1.1422270841181277,-0.641511604887247
1789620287825989000,0.320989013671875,-3.0688661775827404,-1.985613845002651,-0.05773125428296625
1789620287835960000,0.3309599609375,-1.4734896675288676,-1.918190414071083,-0.37807065794542427
1789620287845932000,0.34093212890625,-1.1069582023382187,-1.7953508008658885,-0.5612395425701514
1789620287855903200,0.3509033203125,0.3292605959385633,-0.8277128064125776,-0.9197766114734113
1789620287865874200,0.360874267578125,3.8691017790049314,-0.6091974812597036,-0.7318342653691768
1789620287875846100,0.37084619140625,3.680908526879549,-2.8994699803858994,-0.47185617223232984
1789620287885817000,0.380817138671875,2.8608675702691078,-2.955018264606595,-0.166244053308852
1789620287895789000,0.3907890625,2.9291245294153687,-1.6240198362141847,0.16244517248254267
1789620287905760000,0.400760009765625,1.8047312081515787,-0.9001222090631723,0.24734553392110392
1789620287915731000,0.41073095703125,0.6083633685231209,-0.39220775823891163,-0.8457553897120058
1789620287925703200,0.420703125,-0.5746931541115046,1.8130051155000924,-5.4885915705740445
1789620287935673900,0.430673828125,-2.19895381334424,2.8512942707598206,-9.452139811992645
1789620287945645000,0.44064501953125,-3.1984289615631103,0.3950193085283041,-5.295931402167677
1789620287955617000,0.450616943359375,-2.0345821663111447,-1.4460282446295023,-0.7440119021579623
1789620287965588000,0.460587890625,1.469275849226117,-1.5255273132801055,0.32620398484691976
1789620287975559000,0.470558837890625,5.265848398593068,-1.4654858092933893,0.12458521476350724
1789620287985531100,0.48053125,2.9952532443612814,-1.3178490239620209,-0.008664952492713927
1789620287995502000,0.490502197265625,3.6301848863363264,0.3805921392470598,1.0569245898857713
1789620288005474000,0.50047412109375,1.88119427010715,0.6754524529337883,1.3260907826066017
1789620288015445000,0.510445068359375,-0.4027870199203491,1.0864841541081667,2.212603568512201
1789620288025416200,0.520416259765625,-2.7008687314927577,1.0166261895060538,2.0383868192911145
1789620288035388000,0.530387939453125,-3.348838134217262,0.5019155026704073,0.5963118423320353
1789620288045359000,0.540359130859375,-2.685332724186778,-0.3596796995997429,0.016083558186143636
1789620288055330000,0.550330078125,-1.9505542220592498,-0.5435141719937324,-0.4241515872493386
1789620288065302000,0.560302001953125,-1.447714590281248,-0.12960837668776512,-0.062343205057829615
1789620288075273000,0.57027294921875,-0.4854664721727371,-0.289006911483407,0.448450892855972
1789620288085244000,0.580243896484375,0.574714781421423,-0.5542243665784597,0.8031402368225157
1789620288095216000,0.590216064453125,0.6843494606167078,-0.19818857643902302,0.852160434448719
1789620288105186800,0.600186767578125,0.07426935130357742,0.21554595395326612,0.7868947660729289
1789620288115159000,0.610158935546875,-0.6533183625370264,-0.09032909022271633,0.4892768242411315
1789620288125130200,0.620130126953125,-0.7841980743348598,-0.6882704334527253,-0.011556290020048618
1789620288135101200,0.63010107421875,-0.6488941163539886,-1.3973212046056984,-1.8431486170902847
1789620288145073200,0.6400732421875,-0.7175935585707426,-0.9524071075737476,-1.6351485484719275
1789620288155044000,0.650044189453125,-0.5416203210711479,0.36799393895864485,-0.40571752041429276
1789620288165015000,0.66001513671875,-0.22642098371088504,0.4212029665768146,0.2632812263354659
1789620288174987000,0.669987060546875,0.3675508713662624,0.510398084333539,0.3965918185420334
1789620288184958000,0.6799580078125,0.6571522416114807,-0.18510814559161662,-0.15389891446605325
1789620288194929200,0.68992919921875,0.7630500723659992,-0.4366378515958786,-0.6494438591912388
1789620288204900900,0.69990087890625,0.938590179145336,-0.47045770361125466,-0.7339801913566887
1789620288214872000,0.7098720703125,1.504782046893239,-0.41153497452139853,-0.6384682916685939
1789620288224844000,0.719843994140625,2.0646499723166225,-0.1506102481842041,-0.46945846344083547
1789620288234815200,0.729815185546875,1.9734405921280382,0.27260581178069115,-0.1687817185603082
1789620288244786000,0.739785888671875,1.86241358179152,0.5749696329653263,-0.14989976182729006
1789620288254758100,0.749758056640625,1.9711165330946445,0.45427170796394345,-0.43447482834309337
1789620288264729000,0.75972900390625,2.175497534433007,0.3522486728161573,-0.5680709594927728
1789620288274700300,0.7697001953125,2.4988760865956543,0.3897112652480602,-0.4009792398460209
1789620288284672000,0.779672119140625,3.045595192110538,0.38661914445161816,-0.35289763824418185
1789620288294643200,0.789643310546875,3.024240269392729,0.4166109626114368,-0.4254726067200303
1789620288304614100,0.7996142578125,2.2121587473541497,0.513773698246479,-1.1139952613681554
1789620288314586000,0.809586181640625,1.0503390740156173,0.12756021198630332,-1.7831025830589233
1789620288324557000,0.81955712890625,-0.004953823015093803,-0.5683014072477817,-1.7259398493789135
1789620288334529300,0.829529296875,-0.7618541405797005,-0.9142717304468154,-1.2496058010801672
1789620288344500000,0.8395,-1.2400316247880458,-1.081587614238262,-0.35339433571994305
1789620288354471000,0.849470947265625,-1.40071260060966,-1.7814356727600096,0.11864771447330713
1789620288364443100,0.859443115234375,-1.9887690941631793,-2.7370705102086066,-0.25185031626075505
1789620288374414000,0.8694140625,-2.5723271072536704,-3.602420681098103,-0.790152598825097
1789620288384385000,0.879385009765625,-3.073992434555292,-4.658170674246549,-1.3073536411717532
1789620288394357000,0.88935693359375,-3.5975960374206304,-5.462990680849551,-1.823692513731122
1789620288404328200,0.899328125,-4.105633822363615,-6.049623863601684,-2.199991047437489
1789620288414300000,0.9092998046875,-4.805481880885362,-6.953087199786305,-2.86850960945487
1789620288424271000,0.91927099609375,-5.78310292469263,-8.207211647334695,-3.9042698307588695
1789620288434242000,0.929241943359375,-6.670391955667734,-9.494618771281838,-4.687151561798155
1789620288444214000,0.939214111328125,-7.0729486739635465,-11.072121186470985,-5.221006801825761
1789620288454185000,0.94918505859375,-7.10692225523591,-12.798504249572753,-5.6599079221785065
1789620288464156200,0.95915625,-6.584170885285735,-14.10876968653798,-5.683467076942324
1789620288474128100,0.969128173828125,-6.241790111011266,-15.041137045645712,-5.956245322680473
1789620288484099000,0.97909912109375,-6.925843219029903,-15.953461149156093,-6.621376288086176
1789620288494071000,0.989071044921875,-7.910328303387761,-17.053039178115128,-6.745702340456843
1789620288504042200,0.999042236328125,-8.615735749602317,-17.899138120567798,-6.529540884953737
1789620288514013000,1.009012939453125,-8.898032349792123,-18.472881426608563,-6.215557353124022
1789620288523985200,1.018985107421875,-7.761936900296807,-19.259735568410157,-5.208912459406257
1789620288533956000,1.0289560546875,-5.419997926819324,-20.063112974989412,-4.014885629945994
1789620288543927000,1.038927001953125,-2.534848732730746,-20.645303791379927,-2.862183913564682
1789620288553899000,1.04889892578125,0.08688618322722613,-20.724679525911807,-1.5757628780454396
1789620288563870000,1.058869873046875,0.6684919662714004,-21.397798567461965,-0.1466448516845703
1789620288573841200,1.068841064453125,-0.5878969190776347,-21.012565908932686,1.9306658647626638
1789620288583812900,1.078812744140625,-2.2969068225741385,-16.868088268911837,4.422303232276439
1789620288593784000,1.0887841796875,-2.8084488162457943,-15.380599302124976,10.38500518375039
1789620288603756000,1.098756103515625,-2.5224621293663976,-14.063553411239385,16.893105805790423
1789620288613727000,1.10872705078125,-0.6557584491655231,-11.229177542054652,22.027029367446897
1789620288623698000,1.118697998046875,4.758057574148475,-8.309536295777558,23.052715646243094
1789620288633670100,1.128670166015625,9.62451297917366,-6.779871736562252,22.1217686753273
1789620288643641000,1.13864111328125,9.231941063797473,-5.984872866749763,22.171775692033766
1789620288653612000,1.148612060546875,5.482498514395952,-4.4641482775762675,23.170894281899926
1789620288663584000,1.158583984375,0.7822798196233809,0.29500147572308777,27.90425434490442
1789620288673554000,1.168553955078125,-3.3656337861955166,5.70857930636704,36.329227868676185
1789620288683524900,1.17852490234375,-9.398805696690083,9.193200706514716,44.52948545908928
1789620288693496800,1.188496826171875,-13.173551029652357,11.161050346767901,43.089873511242864
1789620288703467800,1.1984677734375,-10.332627346259354,12.0631944170475,32.97967427966594
1789620288713440000,1.20843994140625,-2.5343501355588436,10.197487054407596,19.674700517380238
1789620288723411000,1.218410888671875,7.190000351417064,8.124555575957894,10.233159256291389
1789620288733382000,1.2283818359375,5.491883597856759,8.03399910672009,8.277167227092384
1789620288743353900,1.238353759765625,2.8264883308053017,7.540291460424661,8.538768829777837
1789620288753325000,1.248324951171875,3.7354058407425876,7.0438394838571545,6.584800415360927
1789620288763296000,1.2582958984375,3.4986584010675545,7.621509023430943,2.762713485509157
1789620288773268000,1.26826806640625,4.5512487611412995,6.249080268019437,-0.5831991166502237
1789620288783239000,1.278239013671875,9.244414760923386,5.970449204599857,-2.0969284401088952
1789620288793211000,1.2882109375,-1.079123416081816,7.2482140554547305,-3.8013305575489995
1789620288803181800,1.298181884765625,-9.033410542052984,8.85642666620612,-5.873273024961352
1789620288813152800,1.30815283203125,-10.441047973489761,10.580189902198313,-3.534146770817041
1789620288823125000,1.318125,-4.842066229178011,11.355326718199253,0.8531845167994498
1789620288833095700,1.328095703125,-1.8731633777342735,10.406872147643565,0.8375485562503338
1789620288843067000,1.33806689453125,-2.243444112455845,8.700150647345184,-1.3283172264844179
1789620288853038800,1.348038818359375,-2.296544565133005,7.725159367519616,-0.8843617453515529
1789620288863010000,1.358010009765625,-2.179773165925592,7.305933838495612,-0.33084114312827584
1789620288872981800,1.367981689453125,-3.205861741912365,7.267655838027596,0.04719955807030201
1789620288882953000,1.377952880859375,-4.986453365063667,7.055873620522022,2.6206571306586266
1789620288892924000,1.387923828125,-6.013646541291475,6.323773982214927,4.063234942573309
1789620288902895900,1.397895751953125,-5.61902178503871,4.511886180306971,4.084821920481324
1789620288912866800,1.40786669921875,-3.718928168672323,2.0020517695844173,3.6966093693584203
1789620288922838000,1.417838134765625,0.8139784417010844,-2.3705299849286674,0.5535884067624807
1789620288932809700,1.427809814453125,1.3386404675781727,-0.4561366250529885,1.9060615848600864
1789620288942781000,1.437781005859375,1.8199369605898856,-2.12664728654623,2.352776593834162
1789620288952753000,1.4477529296875,0.32309315935000776,-3.048014820472896,1.8868688086122274
1789620288962724000,1.45772412109375,-5.270922633117437,6.918919557246565,13.61182203540802
1789620288972694800,1.46769482421875,0.29520839647203684,5.136766676127911,17.089002471899985
1789620288982667000,1.4776669921875,9.686568745592236,-6.514072097665071,4.811330022391677
1789620288992638000,1.487637939453125,12.824763310945034,-12.02723463039398,-12.481055087459087
1789620289002609000,1.49760888671875,9.60323170621395,-13.148425940746067,-17.966374504494667
1789620289012580900,1.507580810546875,1.8754643481530249,-10.694230122876167,-9.807644856256246
1789620289022551800,1.5175517578125,-1.740891773186624,-7.076571540635824,-2.5473019715905187
1789620289032523800,1.527523681640625,-1.881966423523426,-6.122257722657919,-1.2332552625209092
1789620289042494700,1.53749462890625,-0.9697218149900436,-5.444503422522544,-2.394482815185189
1789620289052466000,1.5474658203125,-0.6083854342244566,-2.980612140068412,-1.5067787736684084
1789620289062438000,1.55743798828125,0.9756114575505256,-1.1290475768104196,-0.5911719952255488
1789620289072408800,1.567408935546875,2.0024257174633444,0.31861528328359123,2.0019839650452136
1789620289082381000,1.577381103515625,3.8950177260279655,0.747861855584383,5.983209901973605
1789620289092352000,1.58735205078125,4.07722021330595,0.6606973668724299,8.265802952513098
1789620289102323000,1.597322998046875,1.9304184658728538,-1.5870225232064723,7.554234645581245
1789620289112295000,1.607294921875,0.8401964404106139,-2.6333617139309644,10.617917283046244
1789620289122265900,1.617265869140625,1.1013550485689192,-3.037605946922302,12.641265523159504
1789620289132237000,1.627237060546875,1.0700433069169522,-5.331162290024757,8.941299244588613
1789620289142208800,1.637208740234375,4.425802180308104,-4.793081248995661,10.259465079414843
1789620289152180000,1.647179931640625,1.4279507361471653,-1.4003145412027835,11.403538083660601
1789620289162152000,1.65715185546875,-3.375060370710492,-2.2361158153943714,2.9985721596509216
1789620289172123000,1.667122802734375,-0.7471580912292003,-4.615101640109717,-4.138798425340652
1789620289182093800,1.67709375,-1.7987959728837013,-6.21615707258284,-15.213026228702068
1789620289192066000,1.687066162109375,-2.2395348300576208,-4.036021064694226,-9.153438604968786
1789620289202036700,1.69703662109375,-3.196103733485937,-1.0007842580560595,-7.117433712378144
1789620289212008000,1.707008056640625,-3.084835315608978,0.0004153758678585291,-11.096325068879127
1789620289221980000,1.71697998046875,-3.034202860480547,2.235690429589152,-13.036214104539155
1789620289231951000,1.726951171875,-2.805039884585142,4.910545014381408,-10.416299316680432
1789620289241922800,1.7369228515625,-1.5795698691129683,6.125983465182781,-6.910072233924269
1789620289251894000,1.74689404296875,-2.1485750407159325,5.354947654759884,-7.704697594249248
1789620289261865000,1.756864990234375,-2.042789438164234,4.731069906240702,-6.634418725010752
1789620289271837000,1.7668369140625,-3.0425545092403885,3.7444317355021832,-7.991007521733641
1789620289281808000,1.776807861328125,-4.901645084089041,4.435690244854986,-12.54908408306837
1789620289291780000,1.786780029296875,-8.108328663778305,4.852252984410524,-12.742661366319656
1789620289301750800,1.796750732421875,-8.357538402402401,3.429004142343998,-8.578466049394011
1789620289311721700,1.8067216796875,-4.262953212797641,3.7157027768850326,-5.894876954004168
1789620289321694000,1.81669384765625,0.3901098361115902,1.5491460892766713,-5.876024369496107
1789620289331665000,1.826664794921875,-0.2431494156718254,0.009707739543914795,-0.9989894105285405
1789620289341636900,1.836636962890625,2.6542881821036337,0.45639293790161606,-4.523251331669092
1789620289351607800,1.84660791015625,7.309227619343996,-0.2369698502540588,-3.919591610792279
1789620289361579000,1.8565791015625,11.298227112883328,-2.3441715548351407,4.885829090797901
1789620289371550700,1.86655078125,12.43127369620204,-0.6823550719290972,1.543961964637041
1789620289381522000,1.87652197265625,4.536628699636459,-2.193392379824817,3.874766380637884
1789620289391492900,1.886492919921875,-1.596364936569333,2.257074578401446,8.458387717595697
1789620289401464800,1.89646484375,-3.1641660419553514,3.5938784782022237,1.799124474185705
1789620289411435800,1.906435791015625,0.966250339487195,-1.0852268475234508,5.249155037945509
1789620289421408000,1.916407958984375,1.4405327159531414,-2.9309026450037954,9.25841172209382
1789620289431379000,1.92637890625,-6.451255283746123,-6.160676008379459,20.395140113031864
1789620289441350000,1.936349853515625,-6.2733332502663135,-5.204386506414413,17.22644227286577
1789620289451321900,1.94632177734375,-0.5075923792630433,-3.7554070107638835,3.4526959835767745
1789620289461293000,1.95629296875,4.079503940328955,-9.767784555032849,5.536377404099703
1789620289471264800,1.9662646484375,3.345990928092599,-12.250901931482552,9.554339372751116
1789620289481236000,1.976236083984375,1.5881541575849056,-9.032010027605295,8.824092668834329
1789620289491207000,1.98620703125,1.4328461069732903,-7.206870237675309,6.06736761008501
1789620289501179000,1.996178955078125,0.761218034633249,-7.410950794762373,3.3684687173604964
1789620289511149800,2.00614990234375,-1.4812573789209127,-7.5117469184637065,1.9872838240414856
1789620289521122000,2.0161220703125,-0.8937871608227491,-7.618625576949119,1.4714105231672525
1789620289531093000,2.026093017578125,0.9452397001624107,-9.224829185965657,-1.7215882300406693
1789620289541063700,2.036063720703125,0.2030032832443714,-6.3821870082169765,-1.3394786719679832
1789620289551036000,2.046035888671875,-0.4763048952694982,-5.013468213239312,-4.252365183287859
1789620289561006800,2.0560068359375,-0.555546993484348,-2.750533218371868,-5.322793690130114
1789620289570978800,2.065978759765625,0.23240824142694472,-3.296505889433622,-1.2037018357783555
1789620289580949800,2.07594970703125,0.39533845748007296,-4.607412254650891,0.24573534051179885
1789620289590921000,2.0859208984375,-1.3995230985641478,0.5429916094243527,-3.1056629995822904
1789620289600892700,2.095892578125,3.262837428587675,6.107385147696733,-9.725472769004107
1789620289610863900,2.10586376953125,5.895512329298257,10.537278981232642,-9.048834321156143
1789620289620835800,2.1158359375,3.2431717741310595,11.997330490517616,-5.313277673766017
1789620289630807000,2.12580712890625,2.0129963574469087,6.129308810213208,-4.363140849211812
1789620289640777700,2.13577783203125,0.26257190902233124,-0.4967606041252613,-3.6438556842923164
1789620289650750000,2.14575,-1.7731833927214145,-1.6012626454830168,-2.2368173877924677
1789620289660721000,2.155720947265625,-2.437957653643936,-1.5095315795078872,-1.6399124018728732
1789620289670693000,2.165693115234375,-2.519110480850935,-1.5371686512351035,-1.2360913627296686
1789620289680664300,2.175664306640625,-2.2328607591211793,-0.8449766604244708,-0.04740414073169231
1789620289690635300,2.18563525390625,0.430930652930215,-0.48957799914479255,-0.7982523186504841
1789620289700607200,2.195607177734375,1.9150154372967778,-0.5045566648289561,-1.0752946515738964
1789620289710578200,2.205578125,1.4592508604265748,0.04317921651303768,-1.593216701671481
1789620289720550400,2.21555029296875,0.8349345743596553,0.6671694854959845,-2.541876439410448
1789620289730521000,2.22552099609375,0.9682312841713427,1.45174866810292,-3.473948030441999
1789620289740493300,2.235493408203125,0.895420899504423,1.4034139685228466,-3.8126533310741184
1789620289750464300,2.24546435546875,0.4483505742866546,5.422209757649898,-3.125840695214271
1789620289760435500,2.255435546875,0.8518366093218326,19.74714616038799,-3.899880363628268
1789620289770407200,2.2654072265625,1.1463350308936089,16.875238140666482,-3.640371933829784
1789620289780378400,2.27537841796875,1.4328198034882544,15.346287867200374,-0.1261105976998806
1789620289790349300,2.285349365234375,0.38989714320898056,13.894939888852834,0.6396621776282787
1789620289800321300,2.2953212890625,0.12500117515325546,6.742179427027702,0.8916565785348415
1789620289810292200,2.305292236328125,1.9661328994631766,7.588005982279777,2.833281644207239
1789620289820264400,2.315264404296875,0.27247137174606323,3.2098364907622337,2.886703437793255
1789620289830235100,2.325235107421875,-0.205708487082459,-2.8582100414976477,3.914636034211516
1789620289840207400,2.335207275390625,-1.525010011407733,-1.102201655460894,0.353482014003396
1789620289850178300,2.34517822265625,-3.75904975118041,-3.7101480653673407,-5.742260626694559
1789620289860149500,2.3551494140625,0.4797013327747583,-6.851787802737951,-4.52497041054666
1789620289870121200,2.365121337890625,-1.8337024510920046,-3.0161402573063967,-5.227301518055796
1789620289880092400,2.375092529296875,1.5221213042289017,0.6394818526253104,-5.9843906361907715
1789620289890064100,2.385064208984375,2.3327391834557054,-3.6583679015085098,-3.4117326895475384
1789620289900035300,2.395035400390625,3.1453023515313863,-14.400824879676103,-5.474077307531237
1789620289910006300,2.40500634765625,-0.9831664029747247,-13.62492935426235,-7.987145001086592
1789620289919978500,2.414978515625,-1.7169436191052196,-8.705943843793868,-9.6395071346879
1789620289929949200,2.42494921875,-1.5416694697856903,-10.348493608433008,-6.45523412424922
1789620289939921400,2.43492138671875,-1.7536727826960383,-10.721067860919236,-0.1552197878062725
1789620289949892400,2.444892333984375,-3.1624843724787235,-8.194635074356198,3.705270814719796
1789620289959863300,2.45486328125,-3.9311107836723327,-5.800432245156169,5.0684197006106375
1789620289969835300,2.464835205078125,-0.35775559966936704,-8.11236771003604,3.710005442026257
1789620289979806200,2.47480615234375,1.5398187273524702,-6.061373922628164,2.7384634258717298
1789620289989778200,2.484778076171875,-0.33859117273315786,-5.639779910907149,2.601008427336812
1789620289999749000,2.4947490234375,-1.0834148296654225,-5.6713610440850255,2.713302096608281
1789620290009720300,2.50472021484375,-0.5909031151562929,-5.898367134207486,2.526512281540036
1789620290019692300,2.5146923828125,0.41170273230373855,-5.322188709974289,1.6822721186965703
1789620290029663200,2.524663330078125,0.7375788734357803,-2.516094347900152,0.5690162775188684
1789620290039635200,2.53463525390625,1.5121166275650262,-1.210627835649252,0.82435122102499
1789620290049606400,2.5446064453125,1.2846277223616838,0.8135013257086277,1.9279490070194005
1789620290059578000,2.554578125,0.6069114892143755,2.82749838463068,3.0646874305933713
1789620290069549300,2.56454931640625,0.6652736618120223,4.614578785279393,3.2821324961662293
1789620290079520300,2.574520263671875,0.9479851994782685,6.317232013225555,3.3979771359175444
1789620290089492200,2.5844921875,0.13043481757454573,6.948791548418998,3.211796977180242
1789620290099463200,2.594463134765625,-0.140075483231619,6.220155202308296,1.5524392856031655
1789620290109435400,2.604435302734375,0.4607960682313889,2.363641102197766,1.1518991678267716
1789620290119406300,2.61440625,0.755517996360734,-1.4170926575243472,2.3480150785207745
1789620290129377300,2.624377197265625,1.6665087323755026,-3.2720915791451928,3.3959470913946626
1789620290139349200,2.634349365234375,1.9053449610233306,-3.2977287092268464,3.833910054114461
1789620290149320400,2.644320556640625,1.5680495271891355,-2.9914626199066636,3.3232191243141886
1789620290159292200,2.654292236328125,1.247750236341357,-1.756600506711006,2.0743618035137654
1789620290169263400,2.664263427734375,0.8547177177160978,0.0720306324660778,1.4311965862005949
1789620290179234300,2.674234375,0.39270628234557803,1.518327757164836,1.4162626364409923
1789620290189206300,2.684206298828125,0.16759875585343686,2.295775772717595,1.3997487240135669
1789620290199177200,2.69417724609375,0.16186759179029614,1.8590110798716544,0.9993407081842421
1789620290209149400,2.7041494140625,-0.31739600715432315,0.7502139716684818,0.8099088541746139
1789620290219120400,2.714120361328125,-1.0876052670925855,0.1705038661777973,1.5320511620908974
1789620290229091000,2.724091064453125,-2.2039099744468924,-0.30957389869391916,2.314405654385686
1789620290239063300,2.734063232421875,-3.2084821535438297,-0.45899932100772856,3.5410710171222686
1789620290249034200,2.7440341796875,-2.4300404507786033,-0.12705869220495222,3.9180385361313816
1789620290259006200,2.754006103515625,-1.0597527990490196,1.026003089660406,3.1610049475759268
1789620290268977200,2.76397705078125,-0.18999650215506553,3.115126993498206,3.272653889203071
1789620290278949400,2.773949462890625,2.519972066116333,4.0728228551298375,1.4120646002292632
1789620290288920000,2.783920166015625,5.357686724334955,3.1927029851317403,-1.6918313896805046
1789620290298891300,2.793891357421875,5.13749499040246,0.836900905996561,-3.4818232938617464
1789620290308863200,2.80386328125,2.809166609126329,-2.632228325986862,-3.8165076684147117
1789620290318834400,2.81383447265625,0.216381838521827,-5.654775819987059,-2.381558451682329
1789620290328806100,2.82380615234375,-1.7755705801188946,-7.507306305667758,1.5303729997456073
1789620290338777300,2.83377734375,-0.5460100804626942,-8.093626184687018,3.1187311554700132
1789620290348748300,2.843748291015625,2.4759131441593167,-6.222952139550447,2.8420354440271853
1789620290358720300,2.85372021484375,2.3262100739479066,-1.556670055040717,4.66016389389038
1789620290368691200,2.863691162109375,-0.4859615987459197,1.5765987443476914,6.16056144208908
1789620290378663400,2.873663330078125,-1.188747427752614,2.0189426986306906,6.949264426627755
1789620290388634000,2.883634033203125,1.0832435647517442,1.0318173288971184,7.1972922619909045
1789620290398606300,2.8936064453125,3.142044811040163,-1.46402976526618,5.325999792695045
1789620290408577300,2.903577392578125,2.399377016967535,-4.3299744926691055,2.577234753039479
1789620290418548200,2.91354833984375,-0.09397475324869155,-5.668769858548044,1.6904297061890363
1789620290428520200,2.923520263671875,-1.3556371950864792,-5.280519313502311,2.0292823063373566
1789620290438491400,2.933491455078125,-0.921361396446824,-3.5879964344263073,1.7799071480184792
1789620290448463000,2.943463134765625,-0.09253624487817287,-0.8107540728271007,0.4881459205150604
1789620290458434300,2.953434326171875,-0.07021861460804939,1.384462892076373,-1.3023100940465926
1789620290468405200,2.9634052734375,-0.6905366248190402,2.3068512934833763,-2.500007136452198
1789620290478377200,2.973377197265625,-1.6020114180237053,2.569569917500019,-3.04199219918251
1789620290488348200,2.98334814453125,-1.3795494010716676,2.475685765144229,-6.203917184212804
1789620290498320400,2.9933203125,0.21728432205319403,2.775261416915059,-11.75683012804985
1789620290508291300,3.003291259765625,1.7260586534529923,3.925175548404455,-14.270980356144904
1789620290518263300,3.01326318359375,1.5262521204233168,5.4136248846560715,-11.523402480447292
1789620290528234200,3.023234130859375,-0.33478085719738154,6.544907380911708,-6.5968672852516175
1789620290538205200,3.033205078125,-2.709897256600857,5.960151097947358,-2.06922385610342
1789620290548177200,3.04317724609375,-2.2219985888451337,4.180559591749311,1.5672990010827779
1789620290558148400,3.0531484375,-0.906159735661745,1.6371616418600081,5.549048669624328
1789620290568120300,3.063120361328125,-1.5327800608873365,-2.314737078297138,9.202619107723235
1789620290578091300,3.07309130859375,0.05013560695562046,-6.230714005723596,14.875561868041753
1789620290588063200,3.083063232421875,3.984283570933342,-8.401024492907524,19.74108349934816
1789620290598034400,3.093034423828125,4.246307198423147,-7.995268686309457,19.220678984785078
1789620290608005400,3.10300537109375,2.8415409385085106,-6.932587432593107,9.26477073573172
1789620290617977300,3.112977294921875,1.3079203351438045,-4.433507347857952,1.969077136221528
1789620290627948300,3.1229482421875,-1.2777905698180199,-0.5266919242694974,1.1028490134537219
1789620290637920300,3.132920166015625,-4.399898508244752,0.5963572889089584,-0.9086977297067642
1789620290647891200,3.14289111328125,-5.632990689158439,-0.41053339626342056,-3.7953479760080575
1789620290657863400,3.152863525390625,-4.3216883103609085,-1.0614031966045498,-5.6696291057258845
1789620290667834600,3.162834716796875,-0.7804349224090575,-1.5240093099325895,-6.513131601944566
1789620290677805300,3.172805419921875,3.5794811195373533,-1.5886103769198059,-5.829926635187864
1789620290687777500,3.182777587890625,5.532691409063339,-1.4841808651521802,-5.215970561224222
1789620290697748500,3.19274853515625,4.798673369914293,-1.758810583975911,-5.07266742118299
1789620290707720400,3.202720458984375,3.611186755877733,-1.8166116155594587,-3.916223595663905
1789620290717691400,3.21269140625,2.65836113063097,-1.1207833140730856,-1.583218454748392
1789620290727663600,3.22266357421875,2.5740777503132817,-0.5827554645359516,0.6029810909628868
1789620290737634300,3.23263427734375,2.281164479041099,-0.8478054541096091,1.9631489152163266
1789620290747605500,3.24260546875,0.5096504077713936,-1.290416534896195,2.4803935044437644
1789620290757577500,3.252577392578125,-1.6080723254978655,-1.3106509291514754,1.2539175267994402
1789620290767548700,3.262548583984375,-1.8393571158528328,-0.9506932893931865,-0.7696341269314289
1789620290777520400,3.272520263671875,-0.8017255477190017,-1.09628775524199,-3.0120301916390657
1789620290787491600,3.28249169921875,-0.2233902377128601,-1.4955349105983973,-4.98269839644432
1789620290797463300,3.29246337890625,0.7881587946593761,-0.17213789712041616,-5.919239826366305
1789620290807434500,3.3024345703125,1.9279215344905851,2.4396505751669406,-5.546487294703722
1789620290817405400,3.312405517578125,2.585015323913097,4.260246584187448,-5.081634571492672
1789620290827377700,3.322377685546875,3.0037948627352713,4.346946670258045,-5.723026933914423
1789620290837348400,3.332348388671875,3.143956197619438,2.702774272853136,-7.816993601608276
1789620290847320600,3.342320556640625,2.4500316839277745,2.0281313827365635,-8.933214137810468
1789620290857291500,3.35229150390625,1.9540484939157963,2.565321320144832,-8.398975159162282
1789620290867263500,3.362263427734375,1.9432687412261962,2.5762480800896883,-7.267636548805236
1789620290877234400,3.372234375,1.536145737928152,1.814939882954955,-5.939324583017826
1789620290887205600,3.38220556640625,0.9278313961785286,0.9716542443573475,-4.09713838121891
1789620290897177300,3.39217724609375,0.15244805807061493,0.5417942163333297,-3.084306323298812
1789620290907148500,3.4021484375,-0.11266305057313293,-0.3586901040405035,-2.9800603514045476
1789620290917120500,3.41212060546875,0.42772619433309883,-2.048337135419249,-2.472535776680708
1789620290927091700,3.422091796875,-0.6735095021724701,-1.547307767933607,0.16824994977116584
1789620290937063400,3.4320634765625,-1.1374772592425346,-0.7584536844864487,1.939688544651866
1789620290947034600,3.44203466796875,-1.6176760201454161,-1.6320371384531258,2.360971006205678
1789620290957005600,3.452005615234375,-1.9639502947270868,-2.5193890055313704,1.3630746516108512
1789620290966977500,3.4619775390625,-1.9981483324050902,-2.451737026540935,0.011261398726701736
1789620290976948500,3.471948486328125,-2.7890146324574947,-1.4431556118026374,-0.6090022509485483
1789620290986920700,3.481920654296875,-2.366606381744146,-0.6867094677463174,-1.985823103839159
1789620290996891400,3.491891357421875,1.136623857283592,-1.0116495701372623,-4.751149402195215
1789620291006863600,3.501863525390625,2.285551900345087,-0.9701149059608578,-4.625258000203967
1789620291016834600,3.51183447265625,0.03178807219313457,0.7812357173979282,-1.1620283476531506
1789620291026805500,3.521805419921875,-1.492131824156642,0.9456573410525917,0.6497077708244323
1789620291036777500,3.531777587890625,-1.4321727377563713,-1.3215221595168114,0.48745443111956116
1789620291046748400,3.54174853515625,-1.8576742783099411,-3.2951915919646617,-0.337829102319479
1789620291056720400,3.551720458984375,-2.597458625900745,-3.693284024327993,-1.3185755846709013
1789620291066691300,3.56169140625,-1.901110684454441,-2.241936045980453,-2.5161685821801423
1789620291076663600,3.57166357421875,-0.6053005834190175,0.015503858602046965,-3.503130870306492
1789620291086634500,3.581634521484375,0.31090960427708925,1.888553400698304,-3.777362821984291
1789620291096605400,3.59160546875,0.17972995968461036,3.0986025596767663,-2.8001328233212233
1789620291106577700,3.60157763671875,-0.3867822260588407,3.422321303579211,-0.9196317961752414
1789620291116548600,3.611548583984375,0.1288028324585408,2.5196388886392116,0.39309915412068364
1789620291126520600,3.6215205078125,0.11269399370066821,1.045636010891199,0.7789063976675271
1789620291136491500,3.631491455078125,-0.5285450047902762,0.04222118513584137,0.45232817268073555
1789620291146463700,3.641463623046875,-1.1275649370372294,0.2636427531242371,-0.35052725585103034
1789620291156434400,3.651434326171875,-1.897822748824954,1.5767337689042091,0.07899228817224502
1789620291166406700,3.66140673828125,-2.4461633180618283,2.6565976280897856,2.0552508603304624
1789620291176377600,3.671377685546875,-2.0161041142039,2.325693941119313,4.098482781565189
1789620291186348500,3.6813486328125,-1.330187696531415,0.7391518949061632,4.828232057353854
1789620291196320500,3.691320556640625,-0.5562549956232309,0.041355508217215536,4.9512008498966695
1789620291206291500,3.70129150390625,0.7671241899371146,1.0716320374131203,3.664430270287394
1789620291216263400,3.711263427734375,1.7416158496774732,2.026691120800376,0.6707984896481036
1789620291226234400,3.721234375,0.948898222669959,1.6509645417630672,-1.639500313940644
1789620291236206600,3.73120654296875,-1.522883813033998,0.20309388413727283,-0.6010778876900672
1789620291246177500,3.741177490234375,-2.368006457800418,-2.8526544531971214,4.74558183119595
1789620291256148500,3.7511484375,-0.4082973808396607,-7.568121132114529,10.38787518622875
1789620291266120400,3.761120361328125,4.025232251915336,-8.96612914994061,11.553512372028827
1789620291276091600,3.771091552734375,3.099224490967393,-6.329432154107093,5.746402548804879
1789620291286063400,3.7810634765625,-1.9592437244713305,-3.258517811822891,2.4764935743957754
1789620291296034600,3.79103466796875,-3.6052006672054526,-1.1682459069937468,1.110391099396348
1789620291306006500,3.801006591796875,-3.2641467576205727,-0.2527221306592226,-0.30046237147748467
1789620291315977500,3.8109775390625,-1.2864724734455346,-0.6994616895526647,-1.0033201332092285
1789620291325949400,3.820949462890625,0.3347386620234698,-1.9228478844881056,0.7550491367399692
1789620291335920600,3.830920654296875,1.0285106155019252,-2.646882289761305,3.622919863769412
1789620291345891600,3.8408916015625,1.1646176334939897,-2.0536802500128744,3.598800152513385
1789620291355863600,3.850863525390625,0.7025058064889163,-0.5003665196627378,1.1273995173424483
1789620291365834500,3.86083447265625,-0.8003997790079563,0.5558943456172942,-1.143655071094632
1789620291375806500,3.870806396484375,-1.947683635058999,1.1144704776644707,-2.4050907184392214
1789620291385777400,3.88077734375,-2.7967192154854534,1.4829671054482458,-1.7929899169534445
1789620291395749600,3.89074951171875,-2.4219629427850244,1.793330108693242,-0.551748916375637
1789620291405720600,3.900720458984375,-1.267230597358942,1.844345425659418,-0.18600889382362365
1789620291415692500,3.910692626953125,-0.9022790948361158,2.2186457712858916,0.4029442563086748
1789620291425663500,3.92066357421875,0.1877104370445013,2.768689052787423,-0.6222434253156185
1789620291435634700,3.930634765625,1.3044272323310375,2.5898434747219086,-2.810613885325193
1789620291445606400,3.9406064453125,-0.6146054777830838,2.030306973209977,-2.0203204167246818
1789620291455577600,3.95057763671875,-2.1686767485022544,1.3398141875326632,0.5997656360477209
1789620291465549600,3.960549560546875,-1.7753911318987607,0.12815467074811457,3.4206583388030527
1789620291475520500,3.9705205078125,0.8749006740450859,-1.4579899005800485,6.243565303990245
1789620291485492500,3.980492431640625,3.602046587088704,-2.0850193911284207,8.875167022511363
1789620291495463700,3.990463623046875,4.2521950874179595,-1.2925544237077236,9.295455796852707
1789620291505435400,4.000435302734375,3.3029823919713497,-0.2968932808190584,7.218918987387418
1789620291515406600,4.010406494140625,0.5127337972721084,0.7972972098827361,5.122248905953764
1789620291525377500,4.02037744140625,-1.6759657120287417,1.4069167159467935,4.339791537806391
1789620291535349500,4.030349609375,-1.8181985924899577,-0.5318973839581013,4.995373169100284
1789620291545320400,4.040320556640625,-1.3767057020783424,-3.1207717213869093,6.620207828828692
1789620291555292700,4.050292724609375,-0.14634199628047645,-3.3353754260540005,6.748461868298054
1789620291565263600,4.060263671875,-0.2738847091427073,-1.5268921718925237,4.967725283718109
1789620291575235600,4.070235595703125,-0.2073527106255293,-0.2865770539879799,0.7024696391969919
1789620291585206500,4.08020654296875,-0.15676294386135414,0.4967717100411653,-2.9699241573154924
1789620291595178500,4.090178466796875,0.06734452047646046,1.1407815614849328,-4.847763856297731
1789620291605149400,4.1001494140625,0.674613664022088,1.027901616758108,-4.5074797620415685
1789620291615120400,4.110120361328125,2.0212346089601514,0.265705530872941,-2.7350340359449383
1789620291625092600,4.120092529296875,3.2486031515300273,-0.3177297326207161,-1.9831495007157325
1789620291635063300,4.130063232421875,3.6309903575003144,-0.4990788179397583,-1.1778133612841366
1789620291645035500,4.140035400390625,4.048787899547815,-1.0625374613314866,-1.2419774981588125
1789620291655006500,4.15000634765625,3.2653146323561666,-1.5435978074997663,-1.9936825851678848
1789620291664978400,4.159978515625,1.456601661092043,-0.9335562766313552,-1.3472569047540426
1789620291674948600,4.169948486328125,0.22157237463593482,0.05313070168495178,0.6367670407086611
1789620291684919800,4.179919921875,0.18762918850183485,0.7877724256902933,2.0073060368508098
1789620291694891800,4.189891845703125,0.5191910471200942,1.1626508634656667,2.2668267416089773
1789620291704862700,4.19986279296875,-0.1884463501036167,1.0538374375253916,1.3914070121258497
1789620291714834700,4.209834716796875,-1.3529670990943907,0.675080112490058,-0.15084171885251998
1789620291724806000,4.219805908203125,-1.912826841211319,0.6563228050500154,-1.1169412516921757
1789620291734777600,4.229777587890625,-1.9251088151574134,0.9466104039937258,-1.0757979249209164
1789620291744748800,4.239748779296875,-1.831601679420471,1.1926502804100512,0.42012218560278414
1789620291754720800,4.249720703125,-1.084049620437622,1.1354741027265787,3.341912134346366
1789620291764691700,4.259691650390625,0.10140409953184425,-0.12956921372115612,5.5997921839118
1789620291774663700,4.26966357421875,0.4111106481621042,-2.37040460498333,6.332586234223842
1789620291784635000,4.279634765625,0.15217333278246223,-4.118786733925342,3.9233313818424937
1789620291794605800,4.289605712890625,0.8053893309235572,-4.670297165369988,-1.433669113793969
1789620291804577800,4.299577880859375,1.2346201211333274,-4.735057514572143,-5.741670259585976
1789620291814548700,4.309548828125,-0.349871422290802,-1.9958745422542095,-3.5538983499914405
1789620291824520700,4.319520751953125,-2.3462311177134514,2.161108651335537,-0.09938274977207183
1789620291834491600,4.32949169921875,-1.5749907246291637,2.69747938131541,0.13049918804764746
1789620291845087700,4.340087646484375,-0.11074936243891716,0.08479805184155702,-0.5566238289356231
1789620291855058700,4.35005859375,0.31386604292988773,-1.997731276036799,-1.0294885936886071
1789620291865030000,4.36002978515625,1.980297033894062,-1.5928259487882255,-0.056417468270659445
1789620291875001600,4.370001708984375,2.0583273451663553,1.6386828600779175,2.4023247608572245
1789620291884972800,4.379972900390625,0.7952958069324493,1.6193988984152674,1.0765081190168857
1789620291894944800,4.38994482421875,0.3256052883014083,-1.4585118786275386,-2.204897231918573
1789620291904915700,4.399915771484375,0.9284710823215544,-2.934288488049805,-4.034037489661574
1789620291914887700,4.4098876953125,1.3533600439347326,-2.512081312866509,-4.426316559571028
1789620291924859000,4.41985888671875,1.4063678498923777,-1.1132847750112413,-3.050092503529787
1789620291934830600,4.42983056640625,2.628143687021732,-0.5939654253363609,-2.0603525673836467
1789620291944801800,4.4398017578125,4.4338580609917635,-0.7973235133677721,-2.276849538451433
1789620291954773800,4.449773681640625,5.524628514117002,-0.5587728236630559,-3.11118439335227
1789620291964744700,4.45974462890625,4.483184694218635,-0.11934884847998618,-4.35055492388308
1789620291974715600,4.469715576171875,1.393006848537922,1.3680828351616858,-3.7934377584725616
1789620291984687900,4.47968798828125,-0.1999215377114713,3.685492055277526,-1.7834651327610014
1789620291994658800,4.489658935546875,0.8666638838365673,2.599149063205719,-1.1113491307735441
1789620292004630800,4.499630859375,1.0969102710545062,-0.8961720101326703,-2.1206115135133263
1789620292014601700,4.509601806640625,-0.03643441842794418,-2.3151263698756694,-1.9891227299064396
1789620292024573700,4.51957373046875,-1.2214473358273505,-0.719690823110938,-0.5508487526655197
1789620292034544600,4.529544677734375,-0.924317323642969,0.14845219336748122,-1.0326718998998403
1789620292044516900,4.539516845703125,-0.49396417833976447,-0.41021190922409295,-2.514237321856618
1789620292054487800,4.54948779296875,1.0334146080259232,-0.8700725232362747,-3.6018905197441575
1789620292064458800,4.559458740234375,1.9746213263452053,-0.702042353695631,-4.833043257027864
1789620292074430700,4.5694306640625,0.8775227661769837,0.2984399257391691,-6.054154492768645
1789620292084402000,4.57940185546875,-0.10157229570560157,1.5448638819128273,-4.755767125123739
1789620292094373600,4.58937353515625,-0.5202431134562939,1.7245988100335001,-3.335074397280812
1789620292104344800,4.5993447265625,0.03043495881743729,0.6978712054908275,-5.48341621376276
1789620292114316800,4.60931689453125,1.731976937586069,-0.24139935713410376,-8.843234007155894
1789620292124287700,4.619287841796875,1.2761200062572955,0.13269172965586185,-8.160915175583957
1789620292134259700,4.629259765625,-0.7235562663674354,1.6897218501806257,-3.6827141149967906
1789620292144231000,4.63923095703125,-2.4230630129814146,2.3262752481386064,-0.6389332788318395
1789620292154202600,4.64920263671875,-2.76724002302289,1.7201222491413355,0.1376683490246534
1789620292164173800,4.659173828125,-1.7246271593451499,0.5885314175888896,-1.2939917630344628
1789620292174144800,4.669144775390625,-1.1822317622482776,-0.5641220757365226,-3.119401017555594
1789620292184116700,4.67911669921875,-0.9131757519036531,-1.2925117536097763,-2.6823797196000814
1789620292194087700,4.689087646484375,0.005667487709783018,-0.7685314263865352,-0.19541151294112205
1789620292204060000,4.699059814453125,-1.3641595242381095,-0.06287351254224777,2.6527280931800603
1789620292214030800,4.70903076171875,-2.8925661923468113,-0.5227344188153743,4.154992604294419
1789620292224002800,4.7190029296875,-1.7183277669399977,-1.7038854000896215,2.9884838963568208
1789620292233973800,4.728973876953125,-0.3432336647767573,-1.8791572113215922,2.714616686338186
1789620292243945700,4.73894580078125,-1.6857395025461912,-0.8278571833193301,5.372786093789339
1789620292253916700,4.748916748046875,-1.5589736558079719,-0.7481056012123822,4.717064761763811
1789620292263889000,4.758888916015625,0.5197417398054153,-1.235460079088807,2.0295488483190534
1789620292273859800,4.76885986328125,1.1759230174928903,-1.4227449841976165,0.7401824069976807
1789620292283830800,4.778830810546875,-0.30365795264840123,-1.4798568644732235,1.2799176449745893
1789620292293802800,4.788802734375,-0.9312276144880801,-1.7640537453263998,2.3167314669847485
1789620292303774000,4.79877392578125,-0.19304887546300886,-2.2512165000230073,2.565470080965757
1789620292313745700,4.80874560546875,-0.001308598380535841,-2.139973216587305,1.7059949395895004
1789620292323716900,4.818716796875,-0.11063596519231796,-1.1462041710555553,0.16374971574246883
1789620292333688800,4.828688720703125,-0.4266109631001949,0.3890753054320812,-1.0837111822634935
1789620292343659800,4.83865966796875,-1.1525357852298765,1.968823453721404,-1.4707225409030913
1789620292353631700,4.8486318359375,-1.3008628178477286,3.1682705546647307,-1.608282168856263
1789620292363603000,4.85860302734375,-0.7266162384599447,4.0477936278134585,-1.3400976806491613
1789620292373574700,4.86857470703125,0.21564196167364716,3.790094877785444,-1.4297610004395245
1789620292383545900,4.8785458984375,0.5119762203704565,2.755300578904152,-1.3770201748549937
1789620292393516800,4.888516845703125,0.31003026415929197,1.1714350584238766,-0.47971185416877266
1789620292403488800,4.89848876953125,-0.08525668232925236,-1.1535434279024601,0.641448476523161
1789620292413459700,4.908459716796875,-0.7961259741462766,-3.6595009971916674,2.5977035405725237
1789620292423432000,4.918431884765625,-0.38546062206625936,-4.874718498718738,5.006711140194535
1789620292433403000,4.92840283203125,-0.46939153568446634,-4.491294935438036,6.519737868341803
1789620292443374800,4.938374755859375,-1.303143037739396,-2.8379624954998492,6.502196950954199
1789620292453345800,4.948345703125,-1.309045539781451,-0.8362766366183757,4.814430326494574
1789620292463317800,4.95831787109375,-0.900080196552351,0.4501140037626028,3.567803541225195
1789620292473288700,4.968288818359375,-1.1900697623975574,0.6319710386037826,3.6648908735364674
1789620292483261000,4.978260986328125,-1.1351613835155963,-0.21026538320183752,4.899390583160519
1789620292493231900,4.98823193359375,-0.04646949023008346,-2.341522209370136,6.658502195909619
1789620292503202600,4.99820263671875,1.9019599947601555,-3.1298785724282263,6.604950053942203
1789620292513174800,5.0081748046875,1.8698627287536858,-2.9314795681089163,5.43656619978249
1789620292523145700,5.018145751953125,1.4336843113631008,-2.1089894647806884,4.334426795902848
1789620292533117700,5.02811767578125,1.3863473906487225,-0.8892454257398843,2.19720083219707
1789620292543088600,5.038088623046875,0.6837064134728164,0.1783387975871563,0.4568044413119554
1789620292553060900,5.048060791015625,0.1279746380060911,0.8831821801781654,-1.3013567388445137
1789620292563031600,5.058031494140625,-0.6180600752163679,1.5445423948734998,-2.8401176277071234
1789620292573003800,5.068003662109375,-1.1213193206459282,2.054272370687127,-3.9853824720859525
1789620292582974700,5.077974609375,-2.0328478898644446,1.86080965372622,-4.390767107284069
1789620292592946700,5.08794677734375,-3.167783063408732,0.9952028777271509,-2.8543033894479275
1789620292602917600,5.097917724609375,-2.464565820714831,-0.18566870208382605,-0.9606284079521894
1789620292612888800,5.107888916015625,0.1454459242235869,-1.4911509964257479,-0.4378074798971414
1789620292622860500,5.117860595703125,2.4023528179079294,-1.8826064749926328,-0.211844176825881
1789620355231781000,67.72678100585938,1.234150750055909,0.5430635056167841,-0.455477613154985
1789620355241752000,67.736751953125,1.4918763880908488,0.5517793115139007,-0.2171365293466486
1789620355251723300,67.74672314453124,1.6956342890948055,0.4891337625086307,-0.012879099589027464
1789620355261694200,67.75669409179687,1.868835139271617,0.2973591447651386,0.051097551889531315
1789620355271665400,67.76666552734375,2.0351099895775318,0.07497837635576725,0.13508907312117516
1789620355281636400,67.77663623046875,1.9209154551208019,-0.17444997345507143,0.3692265129609033
1789620355291607300,67.78660717773438,1.3111468959748744,-0.31900340581834313,0.6831107126019895
1789620355301578200,67.796578125,0.4778676876068115,-0.22636837674081325,0.7879605686735361
1789620355311549200,67.80654907226562,-0.34093934329450126,0.004237783700227737,0.5940438974000514
1789620355321520400,67.81652026367188,-0.9869885916113853,0.18325404215753077,0.40697705548871305
1789620355331491300,67.8264912109375,-1.642480791056156,0.20915420708954333,0.3467122276075184
1789620355341462300,67.83646215820312,-2.4467992778778074,0.1977653825908899,0.33721327197607603
1789620355351433200,67.84643310546875,-3.4329566793620585,0.2334679796129465,0.10151972526814788
1789620355361404200,67.85640405273438,-4.158920006871223,0.3695020054340362,-0.5537106814352795
1789620355371375400,67.86637524414063,-4.298313864514231,0.47464989460408685,-1.3256928693301975
1789620355381346300,67.87634619140626,-3.6749230227291583,0.29608254895806313,-1.7829210890121756
1789620355391317200,67.88631713867187,-2.4954098717898128,-0.1181020632892847,-1.8692121558904646
1789620355401288200,67.8962880859375,-1.3681898026674986,-0.4456295518249273,-1.7630014597944914
1789620355411259100,67.90625903320313,-0.6492869150638579,-0.5019301157176494,-1.6895419635690747
1789620355421231400,67.9162314453125,0.012598784810304641,-0.3487678449630737,-1.7509505181252956
1789620355431202000,67.9262021484375,0.9239064047545195,-0.29156010309755803,-1.7685393663078546
1789620355441173200,67.93617333984375,1.9595885923862457,-0.26414485742747784,-1.8666241852238774
1789620355451143200,67.94614306640625,2.748136678624153,-0.2536263860225677,-2.1376360058113932
1789620355461115400,67.95611547851563,2.910141596525907,-0.5227589687347411,-1.9764500030770897
1789620355471086300,67.96608642578126,2.722492534279823,-0.6945581354200839,-1.7604022370815275
1789620355481057300,67.97605737304687,2.650663561865687,-0.7576461674958467,-1.6888593881323932
1789620355491028200,67.9860283203125,2.8522271676957605,-0.942283188444376,-1.7305099337734282
1789620355500999200,67.99599926757813,3.1604677719593046,-1.2089853291392325,-1.7433996643543241
1789620355510970400,68.00597045898438,3.0791257057905197,-1.438932148888707,-1.4416557286337017
1789620355520941300,68.01594140625,2.382632802915573,-1.5998714833855627,-0.9055825933609157
1789620355530912300,68.02591235351562,1.3259662794440983,-1.4249030390143393,-0.44017249199543146
1789620355540883200,68.03588330078125,0.40380876418352124,-1.0186334376752375,-0.294763794509694
1789620355550854100,68.04585424804688,-0.14347674304246902,-0.5685550897479057,-0.24665694886874406
1789620355560825300,68.05582543945313,-0.21502280686199665,-0.34174598350226876,-0.1481327521547675
1789620355570796300,68.06579638671874,0.09887947642505168,-0.3907400237739086,-0.02314852813631296
1789620355580767200,68.07576733398437,0.29035540348291394,-0.5591466254115104,0.14489647364728153
1789620355590738200,68.08573828125,0.014231938970088958,-0.7135416528314351,0.2956943168254569
1789620355600709000,68.09570922851563,-0.7002654071509837,-0.6600988164573908,0.35920839229356494
1789620355610680300,68.10568041992188,-1.4985837767750023,-0.3005874591618776,0.12067246176656335
1789620355620651300,68.1156513671875,-1.887449238848686,0.16400924346148968,-0.37086434329580514
1789620355630622200,68.12562231445312,-1.584272347715497,0.4331389035642147,-0.9004750410888344
1789620355640593400,68.13559350585938,-0.5562777919769287,0.37432898719906804,-1.1255519897796213
1789620355650564000,68.14556420898438,0.6877490399271249,0.08747311626970768,-1.001863723855838
1789620355660535300,68.15553540039062,1.2552373772263525,-0.1929863316208124,-0.6431779306642711
1789620355670506200,68.16550634765625,0.8757306951284408,-0.3047404871881008,-0.2865499467853457
1789620355680477400,68.1754775390625,0.13890578186511993,-0.13240882106125354,-0.4131081055896356
1789620355690448400,68.18544848632813,-0.3108750444203615,0.23278291995823383,-1.25869730842188
1789620355700419000,68.19541918945312,0.08633329858481884,0.48560441933870313,-2.3547211520306766
1789620355710390300,68.20539038085937,1.094144897994399,0.36116263163387774,-2.9277415506243702
1789620355720361200,68.215361328125,1.7864356730043887,-0.15007541065514088,-2.4950956912741065
1789620355730332200,68.22533227539063,1.675258440542221,-0.5883955162495375,-1.6739128711521625
1789620355740303000,68.23530322265626,1.1488047089427709,-0.5165127678215503,-1.1585269154034554
1789620355750274300,68.2452744140625,0.8335539336562157,-0.01616203024983406,-1.1385907003771514
1789620355760245000,68.25524487304688,0.9498264434307813,0.4608125079095363,-1.305572164582461
1789620355770216200,68.26521630859375,1.4368512509614229,0.5687187558770179,-1.2727207192078231
1789620355780187100,68.27518725585938,1.8943115258336065,0.28337621212005615,-0.9852799610625952
1789620355790158000,68.28515795898437,2.010480575233698,-0.16534721406698227,-0.5595586402785032
1789620355800129300,68.29512939453124,1.7019284208029508,-0.4500999752372503,-0.16871559452153742
1789620355810100000,68.30509985351563,0.9815168822020292,-0.47995267718732354,0.00544452914148569
1789620355820071200,68.3150712890625,0.0806792183458805,-0.24980302834212778,-0.2135205856055021
1789620355830042000,68.3250419921875,-0.5770815105527639,0.09249065217077732,-0.7015376190438867
1789620355840013000,68.33501293945312,-0.776554866105318,0.2873737573236227,-1.263576020374149
1789620355849984300,68.344984375,-0.448358684527874,0.12898352278769015,-1.5335352631688117
1789620355859955200,68.354955078125,-0.020004677152633665,-0.356270183417201,-1.1955356265880166
1789620355869926100,68.36492602539063,0.0036363106757402418,-0.8291665123522282,-0.5639763836555183
1789620355879897000,68.37489697265624,-0.366647200524807,-1.1152999142259359,-0.201335788423568
1789620355889868300,68.38486840820312,-0.6557558188170194,-1.140467673230171,-0.3852895032830536
1789620355899839200,68.39483911132812,-0.3831067524164915,-1.043944404542446,-0.8827216499943286
1789620355909810200,68.40481005859375,0.28085809181928634,-1.0999813490629196,-1.1872781589176504
1789620355919781000,68.41478100585938,0.5721212577968835,-1.2213467980623245,-0.8555175628568976
1789620355929752000,68.424751953125,-0.18910043009817598,-1.2961124084502458,-0.12583002719283104
1789620355939723300,68.43472314453125,-1.844804275342822,-1.3828636401861905,0.4227691199149936
1789620355949694200,68.44469409179688,-3.573700198048353,-1.0819026715368032,0.30964331066831946
1789620355959666200,68.45466625976563,-4.673929384392499,-0.24687165106534956,-0.5091730360506103
1789620355969637000,68.46463720703125,-4.60837408542037,0.47313364482223985,-1.5477560962229966
1789620355979608000,68.47460815429687,-3.5156267792642115,0.41304596360623835,-2.014096427643299
1789620355989579300,68.48457934570312,-2.254801372772455,-0.23053426424860954,-1.6695315873280168
1789620355999550200,68.49455029296875,-1.3388853822499514,-0.8824240552872419,-1.1188937009342015
1789620356009521200,68.50452124023437,-0.521237458255887,-1.1652607537031172,-1.0326927234921603
1789620356019492000,68.5144921875,0.6170189686655998,-1.1291010605633258,-1.3734801641605794
1789620356029463000,68.52446313476563,1.982210758560896,-0.9487830718576907,-1.7579491448409854
1789620356039434200,68.53443432617188,3.2112638932168482,-0.7497434315472841,-1.791628127080947
1789620356049405200,68.5444052734375,3.8066140509098765,-0.49430853479802606,-1.4020971868358552
1789620356059376000,68.55437622070312,3.6172359729140995,-0.10210486821234226,-0.7593798594206571
1789620356069347000,68.56434716796875,2.843206825894117,0.4413467599391937,-0.18505575781725345
1789620356079318000,68.57431811523438,1.7198901939511297,0.9025240095078945,-0.019735431757196782
1789620356089289200,68.58428930664063,0.6364420465379953,1.2383183911293745,-0.38390367494784294
1789620356099260200,68.59426025390626,0.20545418352782724,1.3202683600634335,-0.9990770888119935
1789620356109231400,68.6042314453125,0.7438420985490083,0.9974690690934658,-1.5218731746867298
1789620356119202000,68.6142021484375,1.5594418578416107,0.3218044347137213,-1.6818008479230104
1789620356129173000,68.62417309570313,1.750444322168827,-0.31242519647181033,-1.4686331674084065
1789620356139144200,68.63414428710938,1.1868091531664133,-0.48440556494295595,-1.2728047442294657
1789620356149115100,68.644115234375,0.07495558000206946,-0.05624035813808441,-1.0758655833296478
1789620356159086300,68.65408642578124,-1.073717611515522,0.622287264457345,-0.8832393171928823
1789620356169057000,68.66405712890625,-1.810557137826085,1.199025660660863,-0.6928083691433071
1789620356179028000,68.67402807617188,-1.9053472991108893,1.4025614433467388,-0.46822994455918665
1789620356188999200,68.68399926757813,-1.3473609496504066,1.138664423200488,-0.3667242843490094
1789620356198970000,68.69397021484374,-0.5638596254080533,0.4918447750329971,-0.43739641487821934
1789620356208941300,68.70394140625,0.18342179993987082,-0.2435334465533495,-0.5921091664778069
1789620356218912000,68.713912109375,0.8161614848285913,-0.7813660657793283,-0.8625399357743561
1789620356228883000,68.72388305664063,1.3608698350429533,-1.0537404068917036,-1.1512586779661476
1789620356238854100,68.73385424804688,1.550513870498538,-1.146778756073117,-1.264120502514392
1789620356248825000,68.7438251953125,1.2630009969651699,-1.1918775424718857,-1.251858402312547
1789620356258796300,68.75379638671875,0.958514192277193,-1.2608283291012048,-1.3427395734600722
1789620356268767200,68.76376733398438,0.9708271458834409,-1.2849381034851073,-1.695048744291812
1789620356278739200,68.7737392578125,1.3472171572655438,-1.2190063724160194,-2.0795462204143402
1789620356288710100,68.78371020507812,1.7263339632630348,-1.150322712290287,-2.1006572513736783
1789620356298681300,68.79368139648437,1.5259563523471356,-1.0497580592572688,-1.6237819358050822
1789620356308652300,68.80365234375,0.5655524008005857,-0.8293751866668462,-0.9511571075126528
1789620356318623000,68.813623046875,-0.7886410252183675,-0.4830500586807728,-0.5289513571014628
1789620356328594200,68.82359423828125,-1.7017051334410904,0.12410218048691748,-0.45852549295090134
1789620356338565000,68.83356518554687,-1.5971365054637192,0.7343897950708865,-0.6424361723862588
1789620356348536300,68.84353637695312,-0.7631786671817302,0.9339572586476802,-0.5537316876906901
1789620356358507300,68.85350732421875,-0.020973814445734023,0.7650573205351829,-0.030545798780769108
1789620356368478000,68.86347802734375,0.28335224672257897,0.5482482147783041,0.6901706410508602
1789620356378449200,68.87344921875,0.3478431313335895,0.4914280109256506,1.2042683836199342
1789620356388420000,68.88342016601563,0.4010954135715961,0.6082143154412508,1.2439894225031136
1789620356398391300,68.89339135742188,0.6138000066190957,0.7444500013142824,0.8455595018137246
1789620356408362200,68.9033623046875,1.098372744822502,0.6483849977880716,0.23075163332633672
1789620356418333000,68.9133330078125,1.59467333022058,0.24991642558872698,-0.2863550818003714
1789620356428304100,68.92330419921875,1.7469266694366932,-0.14903846882283686,-0.5417823797650635
1789620356438275000,68.93327514648438,1.5248329012751578,-0.3917459859460592,-0.7456818811967969
1789620356448246300,68.94324633789063,1.018619409149885,-0.375138550016284,-0.9897592253684997
1789620356458217200,68.95321728515626,0.2512929746389389,-0.15996727459430693,-1.2682663701474666
1789620356468188200,68.96318823242187,-0.6566700110524892,0.06711012719869613,-1.5510839254714548
1789620356478159000,68.9731591796875,-1.4826847813755273,0.2786176194161177,-1.8294089916817844
1789620356488130000,68.98313012695313,-2.143404360079765,0.4283849870353937,-1.9961466371938585
1789620356498101200,68.99310131835938,-2.3714228421151637,0.3936947819262743,-2.0596166543245316
1789620356508072200,69.003072265625,-1.929829998460412,0.0762356829404831,-2.007009099730849
1789620356518043100,69.01304321289062,-1.0230337184607983,-0.2671218274116516,-1.864710314426571
1789620356528015000,69.02301513671875,0.026209961533546447,-0.4596721057027578,-1.7726555694550274
1789620356537986000,69.03298608398437,0.9028408203721046,-0.5488906043350696,-1.6190166210994124
1789620356547957200,69.04295727539062,1.4355986205518245,-0.4837894788712263,-1.4405255555599927
1789620356557928200,69.05292822265625,1.646024162751436,-0.29672786112427707,-1.360905783139169
1789620356567899100,69.06289916992188,1.8285212490618228,-0.19063187744915483,-1.4715668827727437
1789620356577870000,69.0728701171875,1.9603771124154328,-0.30195348681807516,-1.6476472339086234
1789620356587841000,69.08284106445312,2.1759990542143584,-0.5885328788936138,-1.8346765568211674
1789620356597812200,69.09281225585937,2.369759877339005,-0.9639373863697052,-1.9800660016171634
1789620356607783200,69.102783203125,2.3059522988170382,-1.2224468682587146,-2.0045707666680217
1789620356617754000,69.11275415039063,1.8839362622916698,-1.2495347816705702,-1.9375085702642798
1789620356627725000,69.12272509765624,1.0880869131296873,-1.0719815815031528,-1.7712665993146597
1789620356637696000,69.13269604492187,-0.03691372637748718,-0.7972966253608464,-1.575490198583901
1789620356647667200,69.14266723632812,-1.1496055039316415,-0.4689823703616857,-1.5176292535066604
1789620356657638100,69.15263818359375,-1.891125297012925,-0.11938625788092612,-1.6079180117189884
1789620356667609000,69.16260913085938,-1.9225871877253053,0.22302724961936474,-1.5585025311648846
1789620356677580000,69.172580078125,-1.3072276767045259,0.2756657838732004,-1.1196897466827183
1789620356687551200,69.18255126953125,-0.5442419017463922,0.08566694363057613,-0.5734517026830465
1789620356697522200,69.19252221679687,0.10620353570282459,-0.19742460632920264,-0.21567301439903674
1789620356707493000,69.2024931640625,0.6796966663748025,-0.46382279564142226,-0.07746822041012347
1789620356717464300,69.21246435546875,1.1337836654216051,-0.6033288814872503,-0.053989364340901375
1789620356727436000,69.22243603515625,1.2568226005911827,-0.6080038875609636,-0.08823789009712636
1789620356737407000,69.23240698242188,0.859447084325552,-0.5107260011136532,-0.14061996537186205
1789620356747378200,69.24237817382813,0.08431202189028263,-0.33601708446145057,-0.24706688137650487
1789620356757349000,69.25234912109374,-0.6562596766859292,-0.12477905683517455,-0.7729460279583931
1789620356767319800,69.26231982421875,-1.512023688584566,0.026935353198647496,-1.6820523384660482
1789620356777291000,69.272291015625,-1.2945534885704517,-0.1393459268480539,-2.2952979260727764
1789620356787262000,69.28226196289063,-0.5200350967288017,-0.4559913713634014,-2.1644410106286407
1789620356797233200,69.29223315429688,0.024240707287192343,-0.7149076804876328,-1.7365633885934948
1789620356807204000,69.3022041015625,0.2459200494289398,-0.7823919016957283,-1.363561850605905
1789620356817174800,69.3121748046875,0.2940764698326587,-0.5247235468059778,-1.108362296982482
1789620356827146000,69.32214599609375,0.5890694699883461,-0.151429163351655,-0.9950853888273239
1789620356837117000,69.33211694335938,1.0589905825048684,0.020536592072248457,-0.830361128964275
