time,seconds_elapsed,z,y,x
1789620287550529000,0.045529052734375,4.847809449005126,6.88871672668457,-0.6420949577331543
1789620287560500000,0.0555,4.783465279388428,6.7556888969421385,-0.8192658805847167
1789620287570472000,0.065471923828125,4.897489133453369,6.789656632995605,-0.7986158912658691
1789620287580443000,0.07544287109375,5.274426257324219,6.790105545806885,-0.5521627578735351
1789620287590413800,0.085413818359375,5.523123954772949,6.80596713180542,-0.4879682258605957
1789620287600385800,0.0953857421875,5.586719936370849,6.779032363128661,-0.7930792999267577
1789620287610356700,0.105356689453125,5.979668283843994,6.777984899902344,-0.9837176071166992
1789620287620329000,0.115328857421875,6.276250014495849,6.6611179313659665,-0.968454571533203
1789620287630300000,0.1252998046875,6.490082150268554,6.510133589172363,-0.877175633239746
1789620287640270800,0.135270751953125,6.662015756988525,6.3886278549194335,-0.8029553817749023
1789620287650242800,0.145242919921875,6.679224081420898,6.10326894454956,-0.6476315490722656
1789620287660214000,0.155214111328125,6.742071875,5.915174476623535,-0.42766427154541015
1789620287670186000,0.16518603515625,7.285406014251708,6.272957987213134,-0.8059481338500976
1789620287680158200,0.175158203125,7.677456536102294,6.510732139587402,-0.5000888717651367
1789620287690129200,0.185129150390625,8.12786572341919,6.846219647216796,0.41314942398071286
1789620287700099800,0.195099853515625,8.360402559661864,7.255777768707275,1.3453916954040526
1789620287710072000,0.205072021484375,8.52290899734497,7.657255459594726,1.777395457458496
1789620287720043000,0.21504296875,8.260594277954102,6.660220105743408,1.0785878479003905
1789620287730015000,0.225014892578125,8.422651802825927,6.65932228012085,0.43993455505371093
1789620287739986000,0.23498583984375,8.514080378723143,7.145494854736327,0.04279635467529297
1789620287749957000,0.24495703125,7.992593329620361,6.5865984046936035,-0.6578069061279297
1789620287759928800,0.2549287109375,7.851784344482422,7.235427054595947,-0.9020154754638672
1789620287769900000,0.264900146484375,7.015010864257812,8.633042273712158,-0.9853636207580566
1789620287779871000,0.27487109375,5.208436074066162,9.541641803741454,-1.6677110939025879
1789620287789843200,0.28484326171875,4.675576567077637,8.585607153320312,-1.256357321166992
1789620287799814000,0.29481396484375,4.949413381958007,6.484994471740722,0.25034371109008785
1789620287809786000,0.3047861328125,4.73722725982666,5.6754550354003905,-1.9774609336853026
1789620287819757000,0.314757080078125,3.8839936431884765,4.676923305511474,-1.2955623733520507
1789620287829728000,0.32472802734375,5.587318486785889,4.702361698150635,-1.2427402992248535
1789620287839700000,0.334699951171875,6.060023677062988,4.771494271087646,-1.1061211669921875
1789620287849671200,0.344671142578125,7.2432082099914545,5.560084442901611,-1.1948562660217283
1789620287859642000,0.35464208984375,10.850821199035645,6.172850430297851,-0.931494083404541
1789620287869614000,0.364614013671875,11.194987687683104,3.799298759460449,-0.6414964073181152
1789620287879585000,0.3745849609375,10.222941813659668,3.4193688835144043,-0.32441432495117184
1789620287889556200,0.38455615234375,10.351031602478027,4.661510632324219,-0.040102877807617184
1789620287899528000,0.39452783203125,9.383474856567382,5.513696785736084,0.057610477447509766
1789620287909499100,0.4044990234375,8.122927682495117,5.875670149230957,-0.797418790435791
1789620287919471000,0.41447119140625,7.067982575988769,7.908347358703613,-4.914547820281983
1789620287929442000,0.424442138671875,5.402516046142578,9.318831411743163,-9.44183352203369
1789620287939413000,0.4344130859375,4.3445781875610345,7.133823121643066,-5.874173773193359
1789620287949385200,0.44438525390625,5.12613539199829,4.967369894409179,-0.6091746849060058
1789620287959356200,0.454356201171875,8.37641378326416,4.7472529792785645,1.064222637939453
1789620287969326800,0.464326904296875,12.642432228851318,4.893149642944335,1.2177508193969726
1789620287979299000,0.474299072265625,10.535235492706299,4.856488430023193,1.1436802055358886
1789620287989270000,0.48427001953125,10.896759943389892,6.643460694122314,2.3683143547058103
1789620287999241200,0.4942412109375,9.41040962524414,7.133224571228027,2.7543793724060057
1789620288009213000,0.504212890625,7.018003616333007,7.583184845733642,3.6508582565307615
1789620288019184000,0.51418408203125,4.6438533950805665,7.643039887237548,3.777451669311523
1789620288029156000,0.524156005859375,3.7196915542602538,7.160308977508545,2.3612813873291016
1789620288039127000,0.534126953125,4.311807552337646,6.303932971191406,1.743427721405029
1789620288049098000,0.544097900390625,5.1027919258117675,5.9488429374694825,1.2695254302978516
1789620288059070200,0.5540703125,5.627122089385986,6.334309404754638,1.567304261779785
1789620288069041000,0.564041015625,6.5505357421875,6.214000771331786,2.1074960113525387
1789620288079012000,0.57401220703125,7.676109797668457,5.878812538909912,2.499546533203125
1789620288088984000,0.583984130859375,7.9210665550231925,6.170905141448975,2.604143218231201
1789620288098955300,0.593955322265625,7.340023739624023,6.643610331726074,2.590226921081543
1789620288108926000,0.603926025390625,6.559813273620605,6.4457894195556635,2.3535002319335936
1789620288118898200,0.613898193359375,6.306327172851562,5.865794067382812,2.021304751586914
1789620288128869000,0.623869140625,6.446537607574463,5.1888335479736325,0.3098994773864746
1789620288138841000,0.633841064453125,6.366032576751708,5.326949056243897,0.1927332336425781
1789620288148812000,0.64381201171875,6.51881257019043,6.757634185791015,1.539322029876709
1789620288158783000,0.653782958984375,6.81898560333252,6.837091753387451,2.2495020973205566
1789620288168755000,0.6637548828125,7.429207751464843,6.955305460357666,2.5022400100708007
1789620288178726000,0.673725830078125,7.789984014129638,6.284031169891357,1.9812018737792967
1789620288188697000,0.683697021484375,7.928847710418701,5.912780274963379,1.444751064300537
1789620288198669000,0.6936689453125,8.110358123779296,5.862950952911377,1.304989542388916
1789620288208640000,0.703639892578125,8.634389012145995,5.871629933929443,1.3965677558898926
1789620288218611000,0.71361083984375,9.273191942596435,6.106710609436035,1.5312415992736816
1789620288228583200,0.723583251953125,9.249549201202392,6.490680700683593,1.8525135345458983
1789620288238554000,0.73355419921875,9.102455436706542,6.8496613121032714,1.9117700256347656
1789620288248526000,0.743526123046875,9.18744959564209,6.766013891601562,1.6665139930725097
1789620288258497000,0.7534970703125,9.381080654907226,6.6394204788208,1.491288359069824
1789620288268468200,0.76346826171875,9.650727616882323,6.710947253417968,1.6537947967529296
1789620288278440000,0.77343994140625,10.166079524230957,6.728454853057861,1.744175909423828
1789620288288411100,0.7834111328125,10.215759208679199,6.807313870239257,1.704073031616211
1789620288298382000,0.793382080078125,9.408913249206542,6.966229005432129,1.1568483146667479
1789620288308354000,0.80335400390625,8.17844323348999,6.739976948547363,0.48662148742675776
1789620288318325000,0.813324951171875,6.988076095581055,6.0796262031555175,0.5837362922668456
1789620288328296000,0.8232958984375,6.110451549530029,5.7591024559021,1.1375450637817381
1789620288338268200,0.83326806640625,5.49065259475708,5.616946732330322,2.1065981857299803
1789620288348238800,0.84323876953125,5.257966120910644,5.060594121551514,2.803909419250488
1789620288358211000,0.853211181640625,4.660014256286621,4.0915409996032714,2.61761060256958
1789620288368182000,0.86318212890625,3.9969700340270995,3.248333102416992,2.173635832214355
1789620288378153000,0.873153076171875,3.4389714096069333,2.2014684265136717,1.8155530464172362
1789620288388125000,0.883125,2.861519896697998,1.3271359077453613,1.4366706336975097
1789620288398096100,0.89309619140625,2.248454634094238,0.732924983215332,1.2862848419189452
1789620288408067000,0.903067138671875,1.445499252319336,-0.12434884872436523,0.9241618408203125
1789620288418039000,0.9130390625,0.3136404174804687,-1.3696329872131348,0.2346317626953125
1789620288428010000,0.923010009765625,-0.8827122245788573,-2.673126153564453,-0.20485387954711912
1789620288437982200,0.932982177734375,-1.6617255897521972,-4.239981502532959,-0.3085527389526367
1789620288447953000,0.942952880859375,-2.1257517990112302,-6.049549044799805,-0.30301614761352536
1789620288457924000,0.952924072265625,-2.0790648666381837,-7.529464945983887,0.10998363876342773
1789620288467896000,0.96289599609375,-2.069787335205078,-8.653093712615966,0.39160160903930663
1789620288477867000,0.972866943359375,-3.0617350105285643,-9.76849241104126,0.18136077575683593
1789620288487838000,0.982837890625,-4.454412188720703,-11.151592782592774,0.44202948150634763
1789620288497810200,0.99281005859375,-5.610213040161132,-12.427702267456054,1.0953472595214844
1789620288507781000,1.002781005859375,-6.404489440917969,-13.438055368041992,1.8058266021728515
1789620288517752000,1.012751953125,-5.951536414337157,-14.716858329772949,3.137302000427246
1789620288527724000,1.02272412109375,-4.182670300292968,-16.10115580215454,4.721964224243163
1789620288537695200,1.0326953125,-1.8885761970520019,-17.366940292358397,6.19918664855957
1789620288547667000,1.0426669921875,0.4079121078491211,-18.210297827148437,7.7322238990783685
1789620288557638100,1.05263818359375,0.7993640792846679,-19.448698635864258,9.254786517333983
1789620288567609000,1.062609130859375,-0.6190507667541504,-20.382586920928954,11.500547674560547
1789620288577581000,1.0725810546875,-2.8356325912475584,-17.12976469039917,13.669844016265868
1789620288587552000,1.082552001953125,-3.791517604064941,-16.06404567642212,19.298761756896972
1789620288597523000,1.09252294921875,-3.972279829406738,-15.662717623138427,25.724799012756346
1789620288607495200,1.1024951171875,-2.591573659515381,-13.593977751159667,31.038579959869384
1789620288617465900,1.1124658203125,1.9601029716491698,-11.15907466278076,32.47540023117065
1789620288627437000,1.12243701171875,7.452401580047607,-9.99728830718994,31.20647335128784
1789620288637409000,1.132408935546875,7.547122183227539,-9.674071083068847,31.142428456878662
1789620288647380200,1.142380126953125,4.282777857208251,-8.987533757019042,31.501259430694578
1789620288657352000,1.15235205078125,-0.2904465888977051,-5.041739783477783,35.66223227844238
1789620288667321900,1.16232177734375,-4.068796083831787,0.06015431671142578,43.395054727935786
1789620288677292800,1.172292724609375,-9.618854807281494,3.687669107055664,52.13897846603393
1789620288687265000,1.18226513671875,-14.177265130615234,5.647023890686035,52.059371260833736
1789620288697235700,1.192235595703125,-12.03475391998291,6.904727950286865,42.802340179443355
1789620288707207000,1.20220703125,-5.137657487487792,5.363759906768799,29.512126763916015
1789620288717179000,1.212178955078125,5.694309373474121,2.993649900817871,19.23726070175171
1789620288727150000,1.222150146484375,4.870554364776611,2.8981811096191405,16.459986775970457
1789620288737121800,1.232121826171875,2.268356435394287,2.224811892700195,16.883311557006834
1789620288747093000,1.242093017578125,2.2192753013610838,1.92808052444458,15.11235051651001
1789620288757064000,1.25206396484375,2.9984383041381832,2.2978350433349606,11.567136408233642
1789620288767036000,1.262035888671875,2.390161444854736,1.1921627891540527,7.87841983795166
1789620288777006800,1.2720068359375,8.58665461654663,0.5657797798156738,6.209960556030273
1789620288786978000,1.28197802734375,-0.981323405456543,1.702726293182373,4.5982139259338375
1789620288796949800,1.29194970703125,-9.361478128814698,3.232920429229736,2.385971591949463
1789620288806921000,1.3019208984375,-11.875838784790039,4.9726072105407715,3.9763200447082516
1789620288816893000,1.311892822265625,-6.483049182891845,5.9497407630920405,8.63738176422119
1789620288826864000,1.321864013671875,-2.931699932861328,5.2633530746459956,9.236081816864013
1789620288836834800,1.331834716796875,-3.0488661766052245,3.6138977684020994,7.082198148345947
1789620288846807000,1.34180712890625,-3.298760974884033,2.5980080764770506,7.198167291259765
1789620288856778000,1.351778076171875,-3.081786449432373,2.2361843505859373,8.013243318939208
1789620288866749000,1.3617490234375,-4.014477633666992,2.2430676803588865,8.229768931579589
1789620288876721000,1.371720947265625,-5.773318028259277,2.2279542823791503,10.71315460357666
1789620288886691800,1.38169189453125,-7.07366880493164,1.735945841217041,12.540080107879637
1789620288896663800,1.391663818359375,-6.913556568908691,0.1924339584350586,12.652308310699462
1789620288906634800,1.401634765625,-5.439177259063721,-1.926135235595703,12.56506958770752
1789620288916606000,1.41160595703125,-0.9642647186279296,-6.400000312805175,9.535357024383543
1789620288926578000,1.421577880859375,-0.15128361740112303,-4.6267947082519525,10.462062704467773
1789620288936548900,1.431548828125,0.26276363220214843,-5.72648145828247,11.317391247558593
1789620288946519800,1.441519775390625,-0.7960720520019531,-6.813897924804687,10.619032550811767
1789620288956492000,1.451491943359375,-6.42244595336914,2.4712650260925293,21.08229235610962
1789620288966463000,1.461462890625,-3.2818519256591796,3.547159397125244,26.906337532043455
1789620288976435000,1.47143505859375,7.173477086639404,-8.078634951782226,16.006884111785887
1789620288986406000,1.481406005859375,10.748319440460204,-13.741969341278075,-1.1004349380493164
1789620288996377000,1.491377197265625,8.558971659851073,-15.59717635269165,-9.000701866149901
1789620289006348800,1.501348876953125,0.7746738746643066,-13.318794197845458,-1.6487071182250976
1789620289016320000,1.511320068359375,-3.4575264724731443,-9.571270049285888,6.261286254119873
1789620289026291000,1.521291015625,-3.9146693519592284,-8.160187445831298,8.242637765502929
1789620289036263000,1.531262939453125,-2.8727427169799804,-7.587374698638915,7.134421672058105
1789620289046233900,1.54123388671875,-2.4070704940795897,-5.164592256164551,7.774272065734863
1789620289056206000,1.5512060546875,-0.8087912483215332,-3.137900550842285,8.822333842468261
1789620289066176800,1.5611767578125,0.5995978782653808,-1.6252140144348144,11.029488497924804
1789620289076147700,1.571147705078125,2.530671154785156,-1.160140341949463,15.228170021820068
1789620289086120000,1.581119873046875,3.1392472892761227,-1.0114005638122558,17.574188373565672
1789620289096091000,1.5910908203125,1.301248602294922,-3.2583588218688964,17.252766800689695
1789620289106062800,1.601062744140625,-0.0469862075805664,-4.488679199981689,19.552547132873535
1789620289116033800,1.61103369140625,0.3633201019287109,-4.7931917236328125,22.43546520690918
1789620289126005000,1.6210048828125,0.38830958175659175,-6.8599863067626945,18.928857600402832
1789620289135976700,1.630976806640625,3.499873914337158,-6.886771437835693,19.328539640045165
1789620289145948000,1.640947998046875,2.19608147277832,-2.9417256523132322,21.76912895736694
1789620289155918800,1.6509189453125,-2.8009166671752928,-3.349338484954834,13.596521590423583
1789620289165890800,1.660890869140625,-1.2222399475097656,-5.398026918029784,7.06065033340454
1789620289175861800,1.67086181640625,-1.413476805114746,-7.250839727783203,-5.042637609100342
1789620289185834000,1.680833984375,-2.330904953765869,-5.558588066864013,-0.3624222763061523
1789620289195805000,1.690804931640625,-3.245190712738037,-2.1959318351745605,2.8892028533935545
1789620289205776000,1.70077587890625,-3.5901053894042967,-1.1451765815734862,-0.8527847038269043
1789620289215747800,1.710747802734375,-3.3578678283691406,0.9087491676330566,-3.264942876434326
1789620289225719000,1.720718994140625,-3.720140467071533,3.6236242126464844,-1.2692261550903319
1789620289235690800,1.730690673828125,-2.381931376647949,5.145887555694579,2.7066449768066403
1789620289245662000,1.740661865234375,-2.9914053367614746,4.510825565338134,2.0593127029418943
1789620289255633000,1.7506328125,-2.90476516418457,3.8756139373779295,2.9607296279907227
1789620289265604900,1.76060498046875,-3.716848439788818,2.897133646392822,2.1613655487060544
1789620289275575800,1.770575927734375,-5.410147563934326,3.1124621582031247,-2.3364415451049805
1789620289285546800,1.780546630859375,-8.539369133758544,3.769071963500976,-3.384054409027099
1789620289295519000,1.79051904296875,-9.380781379699707,2.013972509002685,0.44592005920410155
1789620289305489700,1.80048974609375,-5.773617303466796,1.9065327095031737,3.8419454765319823
1789620289315462000,1.8104619140625,-0.49889177093505854,-0.13976152191162108,3.2529718681335447
1789620289325432800,1.820432861328125,-0.93852705078125,-2.4492682983398435,8.007856365203857
1789620289335404000,1.830404052734375,1.3192051147460937,-2.4774001678466795,5.521627578735351
1789620289345375700,1.840375732421875,6.332663391113281,-3.2187048568725585,4.613776236724854
1789620289355347000,1.850346923828125,10.383652600097655,-5.930437512207031,13.201478316497802
1789620289365318700,1.860318603515625,12.791620919799804,-4.856787705230713,11.311555381011962
1789620289375289900,1.870289794921875,5.606322462463378,-6.508637213134765,11.464335374450682
1789620289385260800,1.8802607421875,-0.7338228088378905,-3.3400609535217285,17.41018555984497
1789620289395233000,1.89023291015625,-2.5899276458740235,-1.208473287963867,10.402058025360107
1789620289405203700,1.90020361328125,1.0069114356994628,-6.245125392913818,12.841749517059325
1789620289415176000,1.910176025390625,3.145681706237793,-8.469488372802735,16.17747098007202
1789620289425147000,1.92014697265625,-4.73079284286499,-11.79114390106201,26.86369081497192
1789620289435118000,1.9301181640625,-5.8916813728332516,-11.534964323425292,26.731710448455807
1789620289445089800,1.94008984375,-0.5084685775756835,-9.459191484069823,12.1303723487854
1789620289455061000,1.95006103515625,4.5593081489562985,-14.751723891448973,12.675352501678466
1789620289465032700,1.96003271484375,4.553771557617187,-18.29753655014038,17.094450215911863
1789620289475004000,1.97000390625,2.684797886657715,-15.138537097167967,17.018434313201904
1789620289484974800,1.979974853515625,2.576011348724365,-12.952780619049072,14.352790039825438
1789620289494947000,1.989947021484375,2.3335984306335447,-12.785635415649413,11.729642845916747
1789620289504917800,1.999917724609375,0.12913725204467771,-12.885144422149658,10.120888967895507
1789620289514890000,2.009889892578125,0.40192660369873046,-12.558784808349609,9.962722020721435
1789620289524861000,2.01986083984375,2.3196821334838864,-14.277372687530518,6.81823741531372
1789620289534832000,2.02983203125,1.8770541015625,-11.57491756362915,6.965480817413329
1789620289544803800,2.039803955078125,0.7047931137084961,-9.890297420501708,4.934599259185791
1789620289554775000,2.049775146484375,0.48677112503051756,-7.477839972686767,2.9508535461425778
1789620289564746000,2.05974609375,0.7351695472717285,-7.230189738464355,7.241711833953857
1789620289574718000,2.069718017578125,0.6646902359008788,-8.66296979446411,9.201365892791747
1789620289584689000,2.07968896484375,-1.6274585784912108,-4.157381545257568,6.787412068939209
1789620289594661000,2.0896611328125,1.5568296295166015,1.8650830932617186,-0.19856910018920898
1789620289604631800,2.0996318359375,5.088875628662109,6.3046811592102046,-0.4234744186401367
1789620289614604000,2.10960400390625,2.506579500579834,8.596081785583495,3.3637036949157713
1789620289624575000,2.119574951171875,1.154903025817871,3.60058002166748,4.725256251525878
1789620289634546000,2.1295458984375,-0.3087023765563965,-3.5027170288085934,5.294477696228027
1789620289644518000,2.139517822265625,-2.4129063606262204,-5.127631768035888,6.757334910583496
1789620289654488800,2.14948876953125,-3.1401451148986816,-4.978143801879883,7.4676646156311035
1789620289664460800,2.159460693359375,-3.2535704185485836,-4.989965172576904,7.791929302978515
1789620289674432300,2.169432373046875,-3.232920429229736,-4.38602780380249,9.05831234359741
1789620289684403200,2.1794033203125,-0.7995137168884277,-3.8926726242065426,8.461557579803467
1789620289694375200,2.189375244140625,0.9069535163879394,-3.970484178161621,8.067711406707764
1789620289704346000,2.19934619140625,0.5834370170593262,-3.4644098022460934,7.651718868255615
1789620289714318300,2.209318359375,-0.13781623306274413,-2.8857611885070797,6.695833855438232
1789620289724289300,2.219289306640625,-0.04234744186401367,-2.101211231994629,5.740248117828369
1789620289734260200,2.22926025390625,0.0143652099609375,-2.0623054550170896,5.289689292907714
1789620289744232200,2.239232177734375,-0.3598784370422363,0.36750995483398435,5.818508584594726
1789620289754203400,2.249203369140625,0.03995324020385742,14.968548779296874,5.432443566894531
1789620289764175000,2.259175048828125,0.567575431060791,14.199710771179198,5.138256037902832
1789620289774146300,2.269146240234375,0.9804255798339843,11.04520044631958,8.437465925598143
1789620289784117200,2.2791171875,0.33309330596923825,11.003152279663086,9.82580361328125
1789620289794089200,2.289089111328125,-0.11566986770629882,3.3158196617126463,9.632771104431152
1789620289804060200,2.29906005859375,1.9253870475769042,3.5327941871643063,11.752387761688231
1789620289814032400,2.309032470703125,0.958279214477539,0.36526539077758785,11.732785235595703
1789620289824003300,2.31900341796875,-0.05970540390014648,-6.765564978790283,12.8957686920166
1789620289833974300,2.328974365234375,-0.46148236999511716,-5.061342309570312,10.101136804199218
1789620289843946200,2.3389462890625,-3.5506010620117183,-7.186196282958984,3.5769372802734374
1789620289853917400,2.34891748046875,1.0449193870544433,-11.029488497924804,4.096927953338623
1789620289863889200,2.35888916015625,-1.4101847778320311,-7.77591807937622,3.9088334854125972
1789620289873860400,2.3688603515625,1.6760907997131347,-4.059069639587402,2.5516204193115235
1789620289883831300,2.378831298828125,2.767697119140625,-6.625953094482422,5.279364298248291
1789620289893803300,2.38880322265625,4.155585894012451,-18.058565296936035,3.549104685974121
1789620289903774200,2.398774169921875,0.337732071685791,-18.79642832107544,1.011250926208496
1789620289913746400,2.408746337890625,-0.663343497467041,-13.538312562561034,-1.0428244606018067
1789620289923717400,2.41871728515625,-0.2838625343322754,-14.669273571777342,1.418714121246338
1789620289933688000,2.42868798828125,-0.25528175201416015,-15.665111824798583,7.548917834472656
1789620289943660300,2.438660400390625,-1.3823521835327148,-13.389123871612549,11.834538806152343
1789620289953631200,2.44863134765625,-2.4334067123413083,-10.615141973114014,13.40079560470581
1789620289963603200,2.458603271484375,0.7966706024169922,-13.085060260772705,12.143690095520018
1789620289973574100,2.46857421875,3.2983120620727537,-11.432163289642334,11.017966402435302
1789620289983545300,2.47854541015625,1.574935779571533,-10.8785041557312,10.68741693572998
1789620289993517000,2.48851708984375,0.4991910461425781,-11.096975057220458,10.73245785446167
1789620290003488300,2.49848828125,0.7918821990966797,-11.415852790832519,10.506056159973143
1789620290013460200,2.508460205078125,1.7045219444274902,-11.3649760055542,9.656413845825195
1789620290023431400,2.518431396484375,1.8477251312255858,-8.758737860870362,8.322993158721923
1789620290033403100,2.528403076171875,2.4904186393737793,-7.529464945983887,8.295310202026366
1789620290043374300,2.538374267578125,2.3044190979003907,-5.843946977233887,9.192537274169922
1789620290053345300,2.54834521484375,1.5070003074645995,-3.849128081512451,10.282647217559814
1789620290063317200,2.558317138671875,1.4215572357177733,-2.28556475982666,10.460117415618896
1789620290073288200,2.5682880859375,1.7227777320861815,-0.5295674797058105,10.450690246582031
1789620290083260400,2.578260498046875,0.965910732269287,-0.020949264526367185,10.292822574615478
1789620290093231000,2.588231201171875,0.4043208053588867,-0.41838674011230464,8.656535377502442
1789620290103202300,2.598202392578125,0.9759364517211914,-4.142118509674072,7.877671649932861
1789620290113174300,2.60817431640625,1.1709142494201659,-8.13310303955078,8.932766394042968
1789620290123145200,2.618145263671875,2.0100819313049314,-10.35507181777954,9.961674557495117
1789620290133117200,2.6281171875,2.3933038345336914,-10.553940193176269,10.407444979095459
1789620290143088400,2.63808837890625,2.047640969848633,-10.345046098327636,10.009259315490722
1789620290153059300,2.648059326171875,1.7214309936523438,-9.293991569519042,8.734795844268799
1789620290163031300,2.65803125,1.3178583763122558,-7.479785261535644,7.937077778625488
1789620290173002200,2.668002197265625,0.8322843521118164,-6.003161387634277,7.876923461914062
1789620290182974500,2.677974365234375,0.5645826789855957,-5.10743069152832,7.86540136642456
1789620290192945200,2.687945068359375,0.575206948852539,-5.3850084465026855,7.53978994064331
1789620290202917400,2.69791748046875,0.18076222534179687,-6.468983248138428,7.270591891479492
1789620290212888300,2.707888427734375,-0.5478232673645019,-7.085639813232421,7.950395525360107
1789620290222859300,2.717859375,-1.6621745025634764,-7.5142019104003905,8.774000896453856
1789620290232831200,2.727831298828125,-2.807949634552002,-7.708281882476806,9.999981784057617
1789620290242802400,2.737802490234375,-2.4006360771179196,-7.3760864021301265,10.663474919128417
1789620290252774100,2.747774169921875,-1.0550947441101073,-6.340743821716308,9.905859731292724
1789620290262745300,2.757745361328125,-0.36391865234375,-4.262576780700683,10.059986463165282
1789620290272716300,2.76771630859375,2.031480108642578,-3.0303111137390135,8.54221224822998
1789620290282688300,2.777688232421875,5.096956059265136,-3.7229835815429686,5.424363136291504
1789620290292659200,2.7876591796875,5.3776762039184565,-5.851129582214355,3.4480993034362792
1789620290302631400,2.79763134765625,3.2454899879455565,-9.259724558258057,2.9703064346313477
1789620290312602400,2.807602294921875,0.6691793640136718,-12.38580373840332,4.077475064849853
1789620290322573300,2.8175732421875,-1.5101426971435545,-14.37718096923828,7.895328887176513
1789620290332545300,2.827545166015625,-0.7683890953063964,-15.134047969055175,9.976937593078613
1789620290342516200,2.83751611328125,2.3618799377441406,-13.663858512115478,9.64653776397705
1789620290352488200,2.84748828125,2.7908909477233883,-9.096918845367432,11.284321337127684
1789620290362459100,2.857459228515625,0.061650692749023434,-5.537040251922607,13.008595445251464
1789620290372431400,2.867431396484375,-1.07245270614624,-4.758625437164306,13.892654408264159
1789620290382402300,2.87740234375,0.9852139831542969,-5.472696082305908,14.399925885009765
1789620290392373200,2.887373291015625,3.2812533752441406,-7.677606173706054,12.93452483139038
1789620290402345200,2.89734521484375,2.9644705680847165,-10.527005424499512,10.190470453643798
1789620290412316400,2.90731640625,0.5340566078186035,-12.01440320587158,9.105298551177977
1789620290422288100,2.9172880859375,-0.9968857162475585,-11.744606606292724,9.46802010269165
1789620290432259300,2.92725927734375,-0.7311293319702148,-10.160094020080566,9.386916521453857
1789620290442231300,2.937231201171875,0.12195464706420897,-7.406163560485839,8.268973983764647
1789620290452202200,2.9472021484375,0.24316110610961914,-5.002834006500244,6.506392649078369
1789620290462173200,2.957173095703125,-0.36017771224975587,-3.89446827545166,5.218461793518066
1789620290472145400,2.9671455078125,-1.3602058181762695,-3.506906881713867,4.808454759216309
1789620290482116000,2.9771162109375,-1.3612532814025877,-3.5315970863342283,2.1091420249938966
1789620290492088300,2.98708837890625,0.16385317611694336,-3.26898309173584,-3.2734722198486326
1789620290502059300,2.997059326171875,1.9152116905212402,-2.174533657836914,-6.490680700683593
1789620290512030500,3.007030517578125,2.035969236755371,-0.6361094535827636,-4.176984071350097
1789620290522002200,3.017002197265625,0.36062662506103516,0.6584054565429687,0.6328174263000488
1789620290531973400,3.026973388671875,-2.203712990570068,0.40970775909423823,5.431695378875732
1789620290541945300,3.0369453125,-2.239626015472412,-1.243638124847412,9.054721041107177
1789620290551916300,3.046916259765625,-0.8403647827148437,-3.469647118377685,13.222277943420409
1789620290561888300,3.05688818359375,-1.4489409172058105,-7.177666939544677,16.843507954406736
1789620290571859500,3.066859375,-0.489015689086914,-11.068394274902342,22.37800436706543
1789620290581830100,3.076830078125,3.6209307357788085,-13.413963713836669,27.677869017028808
1789620290591802400,3.08680224609375,4.336048844146728,-13.108553364562988,28.261605309295653
1789620290601773300,3.096773193359375,2.9727006362915036,-11.90666413116455,19.268086048126218
1789620290611745300,3.106745361328125,1.4848539421081541,-9.54418564300537,10.98729069366455
1789620290621716200,3.11671630859375,-0.9612719665527343,-5.4147863296508785,9.907206469726562
1789620290631688400,3.1266884765625,-4.2414778785705565,-3.7096658348083493,8.246827618408203
1789620290641659100,3.1366591796875,-5.899462528228759,-4.503792597961426,5.3658548332214355
1789620290651630000,3.146630126953125,-5.025728559875488,-5.098302797698974,3.4042554855346676
1789620290661602300,3.156602294921875,-1.8634370796203612,-5.4686558670043945,2.453009238433838
1789620290671573500,3.166573486328125,2.4191911399841306,-5.510704033660889,3.001281418609619
1789620290681545500,3.17654541015625,4.726752627563476,-5.267243652343749,3.778050219726562
1789620290691516400,3.186516357421875,4.126107286071777,-5.418676907348632,3.91975703048706
1789620290701488400,3.19648828125,2.927809355163574,-5.454290657043456,4.94133295135498
1789620290711459300,3.206459228515625,1.890371848297119,-4.733785594940185,7.220164019012451
1789620290721430500,3.216430419921875,1.740285331726074,-4.044854067230224,9.523236378479004
1789620290731402500,3.226402587890625,1.6118962677001951,-4.14316597290039,10.998663151550293
1789620290741373400,3.23637353515625,0.0017956512451171875,-4.530877004241943,11.72260987854004
1789620290751345700,3.246345703125,-2.217330012512207,-4.534318669128417,10.71315460357666
1789620290761316600,3.256316650390625,-2.8235119453430175,-4.100070343017578,8.75275235671997
1789620290771288600,3.26628857421875,-1.914613140106201,-4.079869266510009,6.539462559509277
1789620290781259500,3.276259521484375,-1.4107833282470703,-4.487631736755371,4.498555281829834
1789620290791230500,3.28623046875,-0.5922656356811523,-3.4103906272888183,3.3877953491210935
1789620290801202400,3.296202392578125,0.5060743759155273,-0.7956231391906737,3.638438335418701
1789620290811173400,3.30617333984375,1.1622352684020996,1.2054805358886718,4.164115237426757
1789620290821145600,3.3161455078125,1.583914035797119,1.5544354278564452,3.717147714996338
1789620290831116500,3.326116455078125,1.8441338287353515,0.022296002960205077,1.7272668601989745
1789620290841088500,3.336088623046875,1.293467446899414,-0.9066542411804198,0.3672106796264648
1789620290851059500,3.3460595703125,0.8230068206787109,-0.44487259597778317,0.7716811225891113
1789620290861030700,3.35603076171875,0.8895955543518066,-0.3746925598144531,1.86433490524292
1789620290871002400,3.36600244140625,0.6793547210693359,-1.1142015975952149,3.1350574363708494
1789620290880973600,3.3759736328125,0.1927332336425781,-2.0337246726989746,4.950161569976807
1789620290890945500,3.385945556640625,-0.4267664459228515,-2.5668834548950192,6.114192489624023
1789620290900916500,3.39591650390625,-0.7395090377807617,-3.379266005706787,6.280589505004882
1789620290910888400,3.405888427734375,0.011372457885742187,-5.215618679046631,6.55008682937622
1789620290920859600,3.415859619140625,-0.877175633239746,-5.09471149520874,9.031676850128173
1789620290930830600,3.42583056640625,-1.3721768264770506,-4.236539837646484,10.97427222213745
1789620290940802600,3.435802490234375,-1.7431284461975096,-5.052064778137207,11.495160720825195
1789620290950773500,3.4457734375,-2.090736599731445,-6.131849726867675,10.64970825958252
1789620290960745500,3.455745361328125,-2.0522797355651856,-6.329371363830566,9.155576786041259
1789620290970716400,3.46571630859375,-2.7615619773864744,-5.511152946472167,8.462156130218505
1789620290980688600,3.475688720703125,-2.6836007858276365,-4.7946880996704095,7.20116004333496
1789620290990659600,3.48565966796875,0.6736684921264648,-5.1399020515441896,4.434660025024414
1789620291000630500,3.495630615234375,2.5116671791076657,-5.441721098327636,3.847182792663574
1789620291010602500,3.5056025390625,0.5406406623840332,-3.9248447090148924,7.165396656036377
1789620291020573700,3.51557373046875,-1.1285668075561524,-3.508852170562744,9.197924227905274
1789620291030545400,3.52554541015625,-1.0615291610717772,-5.731419499206543,9.151087657928466
1789620291040516600,3.5355166015625,-1.2961609237670897,-7.978527394866943,8.276904776763915
1789620291050488600,3.545488525390625,-2.0642507438659665,-8.751405618286132,7.242011109161377
1789620291060459500,3.55545947265625,-1.5514426757812498,-7.681796026611328,5.938667580413818
1789620291070430500,3.565430419921875,-0.2163759750366211,-5.616048906707763,4.799925415802002
1789620291080402700,3.575402587890625,0.8574234695434569,-3.8552632232666015,4.25195251083374
1789620291090373600,3.58537353515625,0.9528922607421875,-2.71352830657959,4.9537528724670405
1789620291100345600,3.595345703125,0.4294599227905273,-2.419041502380371,6.654234601593017
1789620291110316500,3.605316650390625,0.9466074813842773,-3.308188143920898,8.001272310638427
1789620291120288500,3.61528857421875,1.1947066284179686,-4.912752169036865,8.339602932739258
1789620291130259500,3.625259521484375,0.6260837341308594,-6.142174721527099,8.024466139221191
1789620291140231700,3.635231689453125,0.14155717315673827,-6.235997499084473,7.053767003631592
1789620291150202600,3.64520263671875,-0.5805939025878906,-5.103240838623047,7.167641220092773
1789620291160173300,3.65517333984375,-1.1465233200073242,-4.044554792022705,8.87380917816162
1789620291170145500,3.6651455078125,-0.8396165946960449,-4.280234017944336,10.914267543029785
1789620291180116500,3.675116455078125,-0.14559738845825196,-5.927744035339355,11.690288156127929
1789620291190088400,3.68508837890625,0.5348047958374023,-6.938994961547851,11.771391737365722
1789620291200059400,3.695059326171875,1.7975965339660644,-6.159981596374512,10.647463695526122
1789620291210031600,3.705031494140625,2.9097032051086424,-5.156960738372803,7.686135517120361
1789620291220002300,3.715002197265625,2.4634838706970212,-5.454889207458495,5.039345581817627
1789620291229973500,3.724973388671875,0.028431144714355466,-6.873603328704833,5.383960983276367
1789620291239945500,3.734945556640625,-1.1534066497802733,-9.711630121612549,10.335170016479491
1789620291249916700,3.744916748046875,0.38052842636108397,-14.5054203956604,16.013468166351316
1789620291259888400,3.754888427734375,4.778676876068115,-16.57835012054443,18.11318302230835
1789620291269859600,3.764859619140625,4.837783729553222,-14.305205281829833,12.635698536682128
1789620291279831300,3.774831298828125,-0.3042132484436035,-11.201721379852295,8.75335090713501
1789620291289802500,3.784802490234375,-2.460640756225586,-9.00818374633789,7.3557356880187985
1789620291299774500,3.7947744140625,-2.3546973327636715,-7.961767983245849,5.866542255401611
1789620291309745700,3.80474560546875,-0.5618892021179199,-8.307580485534668,4.954800335693359
1789620291319716400,3.81471630859375,1.183034895324707,-9.529970070648194,6.272359436798095
1789620291329688600,3.8246884765625,1.9054852462768554,-10.392630856323242,9.28920316619873
1789620291339659500,3.834659423828125,2.1103391258239745,-10.024971263885497,9.623343935394287
1789620291349631500,3.844631591796875,1.7384896804809569,-8.500912269592284,7.326855630493164
1789620291359602400,3.8546025390625,0.2672527603149414,-7.373243287658691,4.932055419921875
1789620291369574700,3.86457470703125,-0.9545382743835449,-6.785466780090331,3.4726398704528805
1789620291379545300,3.87454541015625,-1.9445406608581541,-6.431424209594726,3.84329221496582
1789620291389517600,3.884517578125,-1.8281226051330566,-6.1085062606811515,5.148281757354736
1789620291399488500,3.894488525390625,-0.7046434761047363,-6.062866791534423,5.543175393676758
1789620291409459700,3.904459716796875,-0.3356371452331543,-5.739350292205811,6.152948628997803
1789620291419431400,3.914431396484375,0.5397428367614746,-5.1714755859374995,5.4421700111389155
1789620291429402600,3.924402587890625,1.9074305351257324,-5.233724829101562,3.1432875045776365
1789620291439374300,3.934374267578125,0.23478140029907224,-5.78409193572998,3.5277065086364745
1789620291449345500,3.944345458984375,-1.5945383056640625,-6.421248852539062,6.085013156890869
1789620291459317500,3.9543173828125,-1.47482822265625,-7.555202613830566,8.9248356010437
1789620291469288700,3.964288818359375,0.9108440940856933,-9.090035515594481,11.76645369644165
1789620291479259400,3.97425927734375,3.8141128822326658,-9.890596695709228,14.573655142974852
1789620291489231600,3.984231689453125,4.783764554595947,-9.154230047607422,15.40623877029419
1789620291499202600,3.99420263671875,4.045751892852783,-8.072050897216796,13.647996926116942
1789620291509174500,4.004174560546875,1.5249568199157715,-6.950517057037353,11.487978115844726
1789620291519145500,4.0141455078125,-0.951844797515869,-6.0324903579711915,10.68098251876831
1789620291529117700,4.02411767578125,-1.2378022583007813,-7.588721437072754,11.216236227416992
1789620291539088400,4.03408837890625,-0.9545382743835449,-10.212916094207763,12.98001466293335
1789620291549060600,4.044060546875,0.21966800231933592,-10.68801548614502,13.446135798645019
1789620291559031600,4.054031494140625,0.1666962905883789,-8.88697728729248,12.058845574188231
1789620291569002800,4.064002685546875,0.050427872467041016,-7.430105577087402,8.10796392211914
1789620291578974500,4.073974365234375,0.04129997863769531,-6.573280657958984,4.290409374999999
1789620291588945700,4.083945556640625,0.13213000411987305,-5.802497360992431,2.253093399810791
1789620291598917400,4.09391748046875,0.6093243225097655,-5.753116951751709,2.3255180000305176
1789620291608888600,4.103888671875,1.7597382202148437,-6.4272343566894525,4.1575311828613275
1789620291618860500,4.113860595703125,3.0364462554931637,-7.033117014312744,5.0471267372131345
1789620291628831700,4.123831787109375,3.437475033569336,-7.156568037414551,5.889736083984375
1789620291638803500,4.133803466796875,3.891774798583984,-7.61655403137207,6.047903031158447
1789620291648774700,4.143774658203125,3.3487399345397946,-8.119635655212402,5.328445432281494
1789620291658745600,4.15374560546875,1.59618431930542,-7.599794619750976,5.764190134429931
1789620291668716500,4.163716552734375,0.21607669982910155,-6.536020894622802,7.7519760627746574
1789620291678687700,4.173687744140625,0.06733692169189452,-5.683086553192139,9.335141910552977
1789620291688659700,4.18365966796875,0.43409868850708005,-5.162646967315673,9.802609784698486
1789620291698631000,4.193630859375,-0.10758943710327148,-5.0948611328124995,9.156923524475097
1789620291708602600,4.2036025390625,-1.3039420791625975,-5.370194323730469,7.72459238128662
1789620291718573800,4.21357373046875,-1.9596540588378906,-5.338620789337158,6.728754128265381
1789620291728545800,4.2235458984375,-2.04943662109375,-4.930708681488037,6.749104842376709
1789620291738516700,4.233516845703125,-2.037764888000488,-4.562450538635254,8.085219006347655
1789620291748488700,4.24348876953125,-1.476623873901367,-4.396652073669434,11.035773277282715
1789620291758460000,4.2534599609375,-0.33054946670532226,-5.346551582336425,13.526191916656494
1789620291768430600,4.2634306640625,0.08140285644531249,-7.388057410430908,14.636951849365234
1789620291778402800,4.27340283203125,-0.23657705154418943,-9.114426445007323,12.754211518859863
1789620291788373800,4.283373779296875,0.2910451393127441,-9.626336687469482,7.729231147003174
1789620291798345700,4.293345703125,0.8325836273193359,-9.657162033843994,3.018938655853271
1789620291808316700,4.303316650390625,-0.5262754524230957,-7.255628131103515,4.467879573059082
1789620291818289000,4.313288818359375,-2.86017315826416,-2.780565953063965,8.342595684814453
1789620291828259600,4.323259521484375,-2.514809568786621,-1.5674538993835447,8.905681987762451
1789620291838855000,4.33385498046875,-0.9994295555114745,-3.8340146835327147,8.340201483154296
1789620291848825600,4.34382568359375,-0.7369651985168456,-5.955576629638672,7.830685442352294
1789620291858797800,4.3537978515625,0.7700351089477538,-5.86669189300537,8.586355341339111
1789620291868768800,4.363768798828125,1.1472715080261229,-2.6241946571350097,11.130793155670165
1789620291878740700,4.37374072265625,-0.21263503494262695,-1.8480244064331053,10.488099647521972
1789620291888711700,4.383711669921875,-0.859368758392334,-4.758326161956787,7.13726478652954
1789620291898684000,4.393683837890625,-0.44532150878906246,-6.4077814682006835,5.200056368255615
1789620291908654600,4.403654541015625,-0.005087678527832031,-6.105962421417236,4.5790603126525875
1789620291918625800,4.413625732421875,-0.11327566604614257,-4.6444519454956055,5.84215132598877
1789620291928597800,4.42359765625,0.8930372192382812,-3.860650177001953,7.015609414672851
1789620291938568700,4.433568603515625,2.6568156547546384,-4.013729445648194,6.9050272254943845
1789620291948540700,4.443540771484375,3.9082349349975583,-3.761590083312988,6.195744983673095
1789620291958511900,4.453511962890625,3.2650925140380855,-3.3444004440307613,4.926518828582763
1789620291968483600,4.463483642578125,0.2991255699157715,-2.0412065528869627,5.182548768615723
1789620291978454800,4.473454833984375,-1.586607512664795,0.36631285400390623,7.170633972167968
1789620291988426800,4.4834267578125,-0.6316203254699707,-0.12075754623413085,8.145522960662841
1789620291998398000,4.49339794921875,-0.0743698890686035,-3.614197043609619,7.222408583068847
1789620292008369700,4.50336962890625,-1.0119991142272948,-5.479429774475097,7.078606845855712
1789620292018340900,4.5133408203125,-2.2598270919799806,-4.076427601623535,8.572289406585693
1789620292028311800,4.523311767578125,-2.0507833595275877,-3.0174422798156737,8.340500758361816
1789620292038283800,4.53328369140625,-1.6074071395874023,-3.497928625488281,6.8876692634582515
1789620292048254700,4.543254638671875,-0.21757307586669922,-4.064306955718994,5.717952114868163
1789620292058227000,4.55322705078125,1.0592845970153808,-4.031835595703125,4.566790029144287
1789620292068197600,4.56319775390625,0.18255787658691405,-3.1714193740844725,3.190124074554443
1789620292078169900,4.573169921875,-0.8005611801147461,-1.9556138435363768,4.123563446807861
1789620292088140800,4.583140869140625,-1.2265794380187987,-1.6359879219055176,5.836465097045898
1789620292098112800,4.59311279296875,-0.7647977928161621,-2.6617536956787107,4.082263468170166
1789620292108083700,4.603083740234375,1.0588356842041016,-3.7779005821228027,0.5493196434020996
1789620292118055000,4.613054931640625,1.1483189712524413,-3.743184658050537,0.5053261878967285
1789620292128026600,4.623026611328125,-0.7055413017272949,-2.3325509674072262,4.790647884368896
1789620292137997800,4.632997802734375,-2.3322516921997067,-1.6415245132446288,8.085518281555176
1789620292147969800,4.6429697265625,-2.8480525123596188,-2.246210070037842,9.080458708953858
1789620292157941000,4.65294091796875,-1.7727566917419433,-3.4817677642822265,7.829189066314697
1789620292167912700,4.66291259765625,-1.0108020133972166,-4.811297873687744,5.783643022918701
1789620292177884000,4.6728837890625,-0.7079355033874511,-5.785588311767578,5.82224952468872
1789620292187855600,4.682855712890625,0.39983167724609375,-5.571606538391113,8.040028450012207
1789620292197826800,4.692826904296875,-0.5425859512329101,-4.927267016601562,10.847678809356688
1789620292207798800,4.702798828125,-2.251746661376953,-5.392490326690673,12.512696426391601
1789620292217770000,4.71277001953125,-1.36634095993042,-6.7271081146240235,11.578359228515625
1789620292227740700,4.72274072265625,0.35778351058959956,-7.294533908081054,10.678887592315673
1789620292237713000,4.732712890625,-0.783352855682373,-6.410325307464599,13.246968148040771
1789620292247683800,4.742683837890625,-0.9835679695129393,-6.331915203094482,12.985251979064941
1789620292257655800,4.75265576171875,1.0664672019958497,-6.967725381469726,10.213664282226562
1789620292267626800,4.762626708984375,2.1350293304443357,-7.358129889678954,8.532036891174316
1789620292277599000,4.772598876953125,0.8111854499816894,-7.537395738983154,8.789862482452392
1789620292287569700,4.782569580078125,0.015412673187255858,-7.926154233551025,9.729287358856201
1789620292297542000,4.7925419921875,0.7220014381408691,-8.541015147399902,10.020931048583984
1789620292307512800,4.802512939453125,1.0633248123168946,-8.67628754119873,9.158270262908935
1789620292317484800,4.81248486328125,0.9810241302490234,-7.907150257873535,7.544428706359863
1789620292327455700,4.822455810546875,0.7390601249694824,-6.562057837677002,6.057330200195312
1789620292337426700,4.8324267578125,0.006733692169189453,-5.074211143493652,5.476137747192382
1789620292347398700,4.842398681640625,-0.2744353652954101,-3.9639001235961913,5.1791071037292475
1789620292357369600,4.85236962890625,0.20425532913208005,-3.1401451148986816,5.267243652343749
1789620292367341800,4.862341796875,1.1620856307983398,-3.3680431854248045,5.129277781677246
1789620292377312800,4.872312744140625,1.604414387512207,-4.457404940795898,4.950909757995605
1789620292387284700,4.88228466796875,1.4631564895629883,-6.065560268402099,5.629965203857422
1789620292397255700,4.892255615234375,1.1375450637817381,-8.398111235809326,6.617274113464355
1789620292407227600,4.9022275390625,0.4165910888671875,-11.054029064941405,8.279598253631592
1789620292417198600,4.912198486328125,0.702847824859619,-12.554146042633056,10.664821657562255
1789620292427169800,4.922169677734375,0.7809586540222168,-12.432041757965088,12.20085166015625
1789620292437141800,4.932141845703125,-0.06688800888061523,-10.946439627838133,12.356923680877685
1789620292447112700,4.94211279296875,-0.25842414169311523,-8.983792816925048,10.735749881744384
1789620292457084700,4.952084716796875,0.148739778137207,-7.599495344543457,9.292345555877684
1789620292467055900,4.962055908203125,-0.13213000411987305,-7.334038235473632,9.209296685791015
1789620292477027600,4.972027587890625,-0.2367266891479492,-7.991845141601562,10.302848294067383
1789620292486998800,4.981998779296875,0.6551134292602538,-10.108169771575927,12.076652449035643
1789620292496970800,4.991970703125,2.6114754608154294,-11.111340267181395,12.354379841613769
1789620292506941700,5.001941650390625,2.8438626594543455,-10.964695415496825,11.181669940948487
1789620292516913700,5.01191357421875,2.2569839775085447,-10.210970805358887,10.207978053283691
1789620292526884900,5.021884765625,2.2848165718078612,-8.974515285491943,8.163778748321533
1789620292536856600,5.031856689453125,1.5924433792114256,-7.830835079956055,6.424840155029297
1789620292546827800,5.041827880859375,1.057339308166504,-7.052270627593994,4.7283986412048336
1789620292556798700,5.051798828125,0.31872809600830077,-6.363488737487793,3.197306679534912
1789620292566770700,5.061770751953125,-0.1657984649658203,-5.7529673141479485,2.0362685119628905
1789620292576741600,5.07174169921875,-1.042525185394287,-5.813420906066894,1.5327379753112793
1789620292586713900,5.0817138671875,-2.258779628753662,-6.592284633636474,2.853289828491211
1789620292596684800,5.091684814453125,-1.9258359603881834,-7.70618695602417,4.925920278167724
1789620292606656800,5.10165673828125,0.5410895751953124,-9.02135185546875,5.621435860443115
1789620292616627700,5.111627685546875,3.0078654731750487,-9.528922607421874,5.834370170593261
1789620292626599700,5.121599609375,3.060537909698486,-8.873509902954101,6.827215671539307
1789620355226796000,67.72179614257813,8.081178791046142,7.561188117980957,-0.26964696197509763
1789620355236767200,67.73176733398438,8.314463815307617,7.591564551544189,0.036062662506103516
1789620355246738200,67.74173828125,8.477119890594482,7.56567724609375,0.3101987525939941
1789620355256709400,67.75170947265624,8.595932147979736,7.422324421691894,0.4402338302612304
1789620355266680300,67.76168041992187,8.696338980102539,7.25862088317871,0.575206948852539
1789620355276651300,67.7716513671875,8.506448860931396,7.076960832214355,0.8363245674133301
1789620355286622200,67.78162231445313,7.813327480316162,7.006930433654785,1.1550526634216307
1789620355296593200,67.79159326171875,6.892756941986083,7.176769113922119,1.2496236289978027
1789620355306564400,67.801564453125,5.985953063201904,7.483975114440917,1.034893667602539
1789620355316535300,67.81153540039062,5.25407554321289,7.736563389587402,0.8156745780944824
1789620355326506500,67.82150659179688,4.518157807922363,7.830535804748535,0.7092822418212891
1789620355336477200,67.83147729492188,3.643526013946533,7.877970925140381,0.6417956825256347
1789620355346448100,67.8414482421875,2.6038439430236813,7.957877405548095,0.34835634155273437
1789620355356419300,67.85141943359375,1.849520782470703,8.117241453552246,-0.349852717590332
1789620355366390300,67.86139038085938,1.714248388671875,8.219743212127685,-1.143979480743408
1789620355376361500,67.87136157226563,2.375796234893799,8.011597305297851,-1.6096517036437987
1789620355386332200,67.88133227539062,3.6228760246276854,7.544129431152343,-1.7043723068237304
1789620355396303000,67.89130322265625,4.8403275688171385,7.14399847869873,-1.6138415565490722
1789620355406274300,67.9012744140625,5.665279678344726,7.000047103881836,-1.5592238311767577
1789620355416245200,67.91124536132813,6.439953553009032,7.057059030914306,-1.6359879219055176
1789620355426216400,67.92121655273438,7.460033097839355,7.018602166748046,-1.6638205162048338
1789620355436187400,67.9311875,8.590994107055664,6.959794588470459,-1.7688661140441893
1789620355446158000,67.94115795898438,9.454552718353272,6.900837372589111,-2.048089882659912
1789620355456129300,67.95112939453125,9.667935941314697,6.583306377410889,-1.89620771484375
1789620355466100200,67.96110034179688,9.50677624206543,6.386233653259277,-1.6811784782409667
1789620355476071400,67.97107153320313,9.43629693069458,6.321590208435058,-1.589001714324951
1789620355486042400,67.98104248046874,9.613617491149903,6.159383045959473,-1.5879542510986326
1789620355496013000,67.99101293945313,9.871891995239258,5.938667580413818,-1.5478513732910155
1789620355505984300,68.000984375,9.718064538574218,5.774515129089355,-1.1945569908142089
1789620355515955200,68.010955078125,8.933215306854247,5.692214447021484,-0.6127659873962402
1789620355525926400,68.02092651367188,7.781305033111572,5.9497407630920405,-0.1031003089904785
1789620355535897300,68.0308974609375,6.765864253997802,6.434267324066162,0.09112930068969725
1789620355545868000,68.04086791992188,6.133346102905273,6.9533601715087885,0.19228432083129882
1789620355555839200,68.05083911132813,5.9862523384094235,7.239616907501221,0.33922844772338867
1789620355565810200,68.06081005859374,6.232705471801758,7.2432082099914545,0.49589901885986326
1789620355575781400,68.07078149414062,6.363039824676513,7.1230492141723625,0.670975015258789
1789620355585752300,68.08075244140625,6.0324903579711915,7.012467024993896,0.8053495834350586
1789620355595723300,68.09072314453125,5.27322915649414,7.1023992248535155,0.840215145111084
1789620355605694200,68.10069409179688,4.445284294891358,7.486070040893554,0.5776011505126952
1789620355615665200,68.1106650390625,4.04784681930542,7.9575781303405755,0.0796072052001953
1789620355625636400,68.12063623046875,4.365826727294921,8.214805171203613,-0.4396352798461914
1789620355635607300,68.13060717773438,5.428403351593017,8.128763549041748,-0.6536170532226562
1789620355645578500,68.14057861328125,6.7185787712097165,7.806593788146972,-0.5385457359313964
1789620355655549200,68.15054907226562,7.336133161926269,7.4889131553649895,-0.2171241630554199
1789620355665520000,68.16052001953125,7.007229708862305,7.339724464416504,0.08394669570922851
1789620355675491300,68.1704912109375,6.322787309265136,7.472004106140136,-0.09232640151977539
1789620355685462300,68.18046215820313,5.929539686584472,7.791779665374755,-0.9600748657226562
1789620355695433500,68.19043359375,6.385635102844238,7.9952868064880365,-2.0483891578674314
1789620355705404200,68.20040405273437,7.448511002349853,7.823353199768066,-2.598905902099609
1789620355715375000,68.210375,8.186972576904296,7.2714897171020505,-2.1431097610473633
1789620355725346300,68.22034619140625,8.112901963043212,6.799831990051269,-1.2981062126159668
1789620355735317200,68.23031713867188,7.6170029441833496,6.843077257537842,-0.7471405555725097
1789620355745289000,68.2402890625,7.327603818511962,7.3174284614562985,-0.6736684921264648
1789620355755260200,68.25026025390625,7.464821501159667,7.771428951263427,-0.776319888305664
1789620355765231000,68.26023120117188,7.9661074737548825,7.861959701538085,-0.6829460235595702
1789620355775202000,68.2702021484375,8.428786944580077,7.568221085357665,-0.3511994560241699
1789620355785173200,68.28017333984376,8.538471308135986,7.123348489379882,0.09666589202880858
1789620355795144200,68.29014428710937,8.20971749267578,6.85654464187622,0.4885667762756347
1789620355805115100,68.300115234375,7.455992882537841,6.857143192291259,0.6524199523925781
1789620355815086000,68.31008618164063,6.51192924041748,7.125742691040038,0.4273649963378906
1789620355825057000,68.32005712890626,5.805340475463867,7.509413507080078,-0.050128597259521485
1789620355835028200,68.3300283203125,5.5546974891662595,7.745541645812988,-0.5843348426818847
1789620355844999200,68.33999926757812,5.829731404876709,7.62897395248413,-0.8221089950561523
1789620355854970000,68.34997021484375,6.2027779510498045,7.187692658996582,-0.4634276588439941
1789620355864941000,68.35994116210938,6.171054779052734,6.759729112243652,0.17223288192749023
1789620355874912000,68.369912109375,5.748328548431396,6.516268730926513,0.5312134933471679
1789620355884883200,68.37988330078124,5.411943215179443,6.528838289642334,0.3462614151000976
1789620355894854100,68.38985424804687,5.641487299346924,6.65932228012085,-0.15173253021240232
1789620355904825000,68.3998251953125,6.26263299255371,6.638073740386963,-0.4722562774658203
1789620355914796000,68.40979614257813,6.508188300323486,6.556072333526611,-0.18824410552978516
1789620355924767200,68.41976733398438,5.698798501586913,6.524049886322021,0.46417584686279295
1789620355934738200,68.42973828125,3.9981671348571775,6.476914041137695,0.9267056800842285
1789620355944709000,68.43970922851562,2.238877827453613,6.804321118164062,0.747589468383789
1789620355954680300,68.44968041992188,1.135150862121582,7.643339162445068,-0.09741408004760742
1789620355964651000,68.45965112304688,1.2307692909240722,8.340650395965575,-1.1270704315185547
1789620355974622200,68.46962231445312,2.388814706420898,8.230517119598389,-1.5723919403076172
1789620355984593200,68.47959326171875,3.7497687126159667,7.509413507080078,-1.2126631408691406
1789620355994564000,68.48956420898438,4.796932663726806,6.753444332885742,-0.6545148788452148
1789620356004535300,68.49953540039063,5.768529624938965,6.343886211395263,-0.5615899269104003
1789620356014506000,68.50950610351562,7.071124965667724,6.2386909759521485,-0.8933364944458008
1789620356024477200,68.51947729492187,8.596680335998535,6.274903276062012,-1.2705728935241698
1789620356034448100,68.5294482421875,9.968408249664305,6.340743821716308,-1.3054384552001952
1789620356044419000,68.53941918945313,10.677989766693115,6.48649084777832,-0.9298480697631836
1789620356054390300,68.54939038085938,10.567856490325926,6.8016276412963865,-0.3146878807067871
1789620356064361200,68.559361328125,9.83777462158203,7.302614338684082,0.22655133209228515
1789620356074332200,68.56933227539062,8.729857803344727,7.749282585906982,0.370951619720459
1789620356084303000,68.57930322265625,7.644087350463867,8.087164295196533,0.011821370697021483
1789620356094274000,68.58927416992188,7.201010405731201,8.179789971923828,-0.5753565864562988
1789620356104245200,68.59924536132813,7.720103253173828,7.874529260253905,-1.065569376373291
1789620356114216200,68.60921630859374,8.50959125061035,7.224054596710205,-1.2077250999450684
1789620356124188200,68.61918823242188,8.668207110595702,6.622361791992187,-0.9956886154174804
1789620356134159000,68.6291591796875,8.067112856292724,6.488286499023437,-0.8108861747741699
1789620356144130300,68.63913037109376,6.915202582550048,6.956203285980224,-0.6208464179992675
1789620356154101200,68.64910131835937,5.727528921508789,7.672069582366943,-0.42063130416870115
1789620356164072000,68.65907202148438,4.957344174957275,8.279298978424071,-0.20739771881103514
1789620356174043100,68.66904321289063,4.83928010559082,8.503007196044921,0.04563946914672851
1789620356184014000,68.67901416015626,5.387103372955322,8.247276531219482,0.1671452033996582
1789620356193985300,68.6889853515625,6.174945356750488,7.596203317260742,0.09831190567016601
1789620356203956200,68.69895629882812,6.93989278717041,6.845471459197998,-0.07586626510620116
1789620356213927000,68.70892700195313,7.5984478813171386,6.285677183532714,-0.3851671920776367
1789620356223898000,68.71889819335938,8.169016064453125,5.991788929748535,-0.7269394790649414
1789620356233869000,68.728869140625,8.377161971282959,5.8840498550415035,-0.8970774345397948
1789620356243840300,68.73884033203124,8.096292189025878,5.834819083404541,-0.9323919090270996
1789620356253811200,68.74881127929687,7.785045973205566,5.773617303466796,-1.0504559783935545
1789620356263782100,68.7587822265625,7.7772648178100585,5.769128175354004,-1.407042388153076
1789620356273753000,68.76875317382813,8.119785292816161,5.86714080581665,-1.7808371223449706
1789620356283724000,68.77872412109375,8.450185121917723,5.981463935089111,-1.7878700897216795
1789620356293695200,68.7886953125,8.186822939300537,6.140229432678222,-1.2961609237670897
1789620356303666200,68.79866625976562,7.153425647735595,6.4263365310668945,-0.5976525894165039
1789620356313637400,68.80863745117188,5.724087256622314,6.83754066619873,-0.12434884872436523
1789620356323608000,68.81860815429687,4.741267475128174,7.50133307647705,0.026186580657958983
1789620356333579000,68.8285791015625,4.786308393859863,8.156296868133545,-0.061650692749023434
1789620356343550200,68.83855029296875,5.574599290466308,8.387187690734862,0.1188122573852539
1789620356353521200,68.84852124023438,6.287921747589111,8.23575443572998,0.715716658782959
1789620356363492400,68.85849243164063,6.581211450958252,8.023119400787353,1.486200680541992
1789620356373463000,68.86846313476562,6.650643299102783,7.959224143981933,2.027140618133545
1789620356383434000,68.87843408203125,6.720673697662353,8.060828076934815,2.0757728393554684
1789620356393405200,68.8884052734375,6.957250749206542,8.177395770263672,1.6716016716003417
1789620356403376000,68.89837622070313,7.467514978027343,8.061426627349853,1.0377367820739745
1789620356413348000,68.90834814453125,7.9849618118286125,7.6479779281616205,0.49036242752075193
1789620356423319000,68.91831909179687,8.14731861190796,7.2441060356140135,0.19767127456665037
1789620356433290200,68.92829028320313,7.919719816589355,7.00992318572998,-0.044891281127929686
1789620356443261200,68.93826123046875,7.390900524902343,7.049128237915038,-0.3229179489135742
1789620356453232000,68.94823217773437,6.586448767089843,7.297975572967529,-0.6238391700744629
1789620356463203000,68.958203125,5.633706143951415,7.563283044433593,-0.9115922821044922
1789620356473174000,68.96817407226563,4.765209491729736,7.808987989807129,-1.1754033775329589
1789620356483145200,68.97814526367188,4.075230500793457,7.98002377090454,-1.3093290328979492
1789620356493116200,68.9881162109375,3.839700912475586,7.9472531356811515,-1.3274351829528808
1789620356503087000,68.99808715820312,4.2986394432067865,7.610718164825439,-1.2271779884338379
1789620356513058300,69.00805834960937,5.245546199798584,7.229890463256836,-1.0461164878845215
1789620356523029000,69.01802905273438,6.351966641998291,6.986729357147216,-0.9322422714233398
1789620356533000200,69.02800024414063,7.294683545684814,6.8405334182739255,-0.7757213378906249
1789620356542971100,69.03797119140626,7.893982148742675,6.848913124084472,-0.6091746849060058
1789620356552942000,69.04794213867187,8.163778748321533,6.985532256317138,-0.5497685562133788
1789620356562913300,69.05791333007812,8.392125731658934,7.052719540405273,-0.6820481979370117
1789620356572884000,69.06788403320313,8.551938692474364,6.917896059417724,-0.8759785324096679
1789620356582855200,69.07785522460938,8.775347634887694,6.625504181671142,-1.0752958206176757
1789620356592826000,69.087826171875,8.955511309814453,6.26338118057251,-1.228973639678955
1789620356602797000,69.09779711914062,8.856301578521729,6.037578036499023,-1.2593500732421874
1789620356612768300,69.10776831054687,8.378957622528075,6.0604725898742675,-1.1966519172668457
1789620356622739200,69.1177392578125,7.512855171966552,6.299892755889892,-1.0308534523010253
1789620356632710100,69.12771020507813,6.310217750549316,6.640617579650878,-0.8259995727539062
1789620356642682000,69.13768212890625,5.1219455390930175,7.030273899841308,-0.7435492530822754
1789620356652653300,69.1476533203125,4.316147042846679,7.428758838653564,-0.7920318367004394
1789620356662624000,69.1576240234375,4.237736938476562,7.804049948883057,-0.6931213806152343
1789620356672595000,69.16759497070312,4.825812721252441,7.874080347442627,-0.21398177337646482
1789620356682566100,69.17756616210937,5.580734432220459,7.688230443572998,0.35179800643920894
1789620356692537000,69.187537109375,6.239439163970947,7.39913059310913,0.704194563293457
1789620356702508300,69.19750830078125,6.8311062492370604,7.1215528381347655,0.8128314636230468
1789620356712479200,69.20747924804688,7.304409989929199,6.972214509582519,0.7855974197387695
1789620356722450200,69.2174501953125,7.439532746124267,6.96488226699829,0.6836942115783691
1789620356732420900,69.2274208984375,7.042095270538329,7.069628589630127,0.5547065971374512
1789620356742392000,69.23739208984375,6.25036270904541,7.264307112121582,0.3736450965881347
1789620356752363000,69.24736303710938,5.483918902587891,7.500285613250732,-0.201112939453125
1789620356762334200,69.25733422851563,4.604947618103027,7.671620669555663,-1.1236287666320801
1789620356772305000,69.26730493164062,4.808903672027587,7.515548648834228,-1.7289128738403319
1789620356782275800,69.27727587890625,5.5838768218994135,7.197718378448486,-1.5870564254760742
1789620356792247000,69.2872470703125,6.146065299224853,6.9241808387756345,-1.1552023010253905
1789620356802218000,69.29721801757813,6.402993064880371,6.828562409973144,-0.7854477821350098
1789620356812189200,69.30718920898437,6.499808594512939,7.0470333114624015,-0.5358522590637207
1789620356822161000,69.31716088867188,6.849212399291992,7.375936764526367,-0.4296095603942871
1789620356832132000,69.32713208007813,7.372944012451171,7.503428002929687,-0.27293898925781246
