time,seconds_elapsed,z,y,x
1789620287551775000,0.04677490234375,-0.21055138111114502,0.012809271924197674,-0.2547912895679474
1789620287561747000,0.056746826171875,-0.098972387611866,0.13356871902942657,-0.542219877243042
1789620287571718000,0.0667177734375,-0.030529413372278214,0.2703332304954529,-0.7626664638519287
1789620287581689900,0.07668994140625,-0.005876265000551939,0.4056449830532074,-0.923512876033783
1789620287591661000,0.0866611328125,0.04650571569800377,0.4269467890262604,-1.0699145793914795
1789620287601632000,0.096632080078125,0.09029660373926163,0.44193053245544434,-1.157433271408081
1789620287611604000,0.10660400390625,0.12489479780197144,0.4702838957309723,-1.161105990409851
1789620287621575000,0.116574951171875,0.17208202183246613,0.45858460664749146,-1.107599139213562
1789620287631545900,0.1265458984375,0.2473381608724594,0.4739651679992676,-1.03469717502594
1789620287641517800,0.136517822265625,0.3468732535839081,0.5358945727348328,-0.9803575277328491
1789620287651488800,0.14648876953125,0.44353988766670227,0.4837892949581146,-1.0255577564239502
1789620287661460000,0.1564599609375,0.6189053058624268,0.6474908590316772,-1.0853513479232788
1789620287671433000,0.166432861328125,0.8179108500480652,0.9154390096664429,-1.1440471410751343
1789620287681404200,0.176404052734375,0.9290993809700012,1.1286468505859375,-1.2049344778060913
1789620287691375900,0.1863759765625,0.9078982472419739,1.3536351919174194,-1.2370390892028809
1789620287701347000,0.19634716796875,0.7588408589363098,1.5910285711288452,-1.2014750242233276
1789620287711318000,0.206318115234375,0.6115009188652039,1.75601065158844,-1.0582486391067505
1789620287721290000,0.2162900390625,0.583159327507019,1.8958678245544434,-0.7644587755203247
1789620287731261000,0.226260986328125,0.5182260870933533,1.9567975997924805,-0.37289315462112427
1789620287741232000,0.236232177734375,0.46329548954963684,1.7219661474227905,0.12903255224227905
1789620287751204000,0.2462041015625,0.3270239233970642,1.291567087173462,0.6626786589622498
1789620287761175000,0.256175048828125,-0.10323956608772278,0.6539772748947144,1.063078761100769
1789620287771146000,0.26614599609375,-0.7682732343673706,-0.32464465498924255,1.1058683395385742
1789620287781118200,0.2761181640625,-1.2463045120239258,-1.1250803470611572,0.94181889295578
1789620287791089200,0.286089111328125,-1.7444138526916504,-1.8129298686981201,0.6795966029167175
1789620287801061000,0.29606103515625,-1.7969844341278076,-2.128939390182495,0.4330480992794037
1789620287811032000,0.306031982421875,-1.5384013652801514,-3.3628556728363037,0.03628929704427719
1789620287821003000,0.3160029296875,-1.2579818964004517,-4.33184814453125,-0.08268103003501892
1789620287830975000,0.32597509765625,-1.053139567375183,-5.142212867736816,-0.044913146644830704
1789620287840946000,0.33594580078125,-0.9664140343666077,-5.836863040924072,0.045828208327293396
1789620287850917000,0.345917236328125,-1.376438021659851,-4.687845230102539,-0.3697298467159271
1789620287860888800,0.355888916015625,-1.696153998374939,-3.046755313873291,-0.5029590129852295
1789620287870860000,0.365860107421875,-1.602307677268982,-1.9987971782684326,-0.49459028244018555
1789620287880831000,0.3758310546875,-1.3584656715393066,-1.1032440662384033,-0.4161468744277954
1789620287890803200,0.38580322265625,-1.0939815044403076,-0.394059956073761,-0.32054126262664795
1789620287900774000,0.39577392578125,-0.8326897621154785,-0.07149841636419296,-0.22507598996162415
1789620287910746000,0.40574609375,-0.4461263418197632,-0.0549980029463768,-0.1630656123161316
1789620287920717000,0.415717041015625,0.3147986829280853,-0.44815436005592346,-0.22123810648918152
1789620287930688300,0.425688232421875,0.9140333533287048,-1.349530816078186,-0.3203631043434143
1789620287940660000,0.435659912109375,0.9496930837631226,-2.4787280559539795,-0.4191056489944458
1789620287950631200,0.445631103515625,0.9603942036628723,-3.195068836212158,-0.3804549276828766
1789620287960602000,0.45560205078125,1.1367995738983154,-2.7023050785064697,-0.12810790538787842
1789620287970574000,0.465573974609375,1.389435887336731,-2.487171173095703,0.3076196014881134
1789620287980545000,0.475544921875,1.36342453956604,-1.7227011919021606,0.6857607960700989
1789620287990517200,0.485517333984375,1.1411397457122803,-0.8931568264961243,1.0494023561477661
1789620288000488000,0.495488037109375,0.775944173336029,-0.44739508628845215,1.211463212966919
1789620288010459000,0.505458984375,0.3134532570838928,-0.5149730443954468,0.9600157737731934
1789620288020431000,0.51543115234375,0.019768910482525826,-0.6965715885162354,0.42863842844963074
1789620288030402000,0.525402099609375,0.001261805766262114,-0.496680349111557,0.015264973044395447
1789620288040373000,0.535373046875,0.13227708637714386,-0.20353102684020996,-0.26582127809524536
1789620288050345000,0.545344970703125,0.21620020270347595,-0.05379665270447731,-0.46608754992485046
1789620288060316200,0.555316162109375,0.18759731948375702,-0.10457567870616913,-0.5342341065406799
1789620288070287000,0.565287109375,0.1428314596414566,-0.12488681077957153,-0.4407009482383728
1789620288080259000,0.575259033203125,0.10478393733501434,-0.1303899586200714,-0.22272682189941406
1789620288090230000,0.58522998046875,-0.0004974784678779542,-0.28656864166259766,0.025848641991615295
1789620288100202000,0.595201904296875,-0.126645028591156,-0.5874879956245422,0.18926100432872772
1789620288110173000,0.6051728515625,-0.17299894988536835,-0.8289128541946411,0.23574434220790863
1789620288120144100,0.61514404296875,-0.04210830479860306,-0.8515196442604065,0.21902528405189514
1789620288130116000,0.6251162109375,0.23489134013652802,-0.7118634581565857,0.10413865000009537
1789620288140087000,0.635087158203125,0.297489732503891,-0.47350630164146423,-0.10937415808439255
1789620288150058000,0.64505810546875,0.1977255940437317,-0.38756370544433594,-0.2386685013771057
1789620288160030200,0.6550302734375,0.05257825553417206,-0.20632468163967133,-0.3418950140476227
1789620288170001200,0.665001220703125,-0.054791875183582306,-0.0007906925166025758,-0.39826536178588867
1789620288179972000,0.67497216796875,-0.03551458567380905,0.04957767203450203,-0.3828192949295044
1789620288189944000,0.684944091796875,0.015602927654981613,0.07073862105607986,-0.36789706349372864
1789620288199915300,0.694915283203125,0.04891055077314377,0.08010042458772659,-0.3564438819885254
1789620288209887000,0.704886962890625,0.09489455074071884,0.12603676319122314,-0.2872445583343506
1789620288219858200,0.714858154296875,0.10495305061340332,0.11894609779119492,-0.17780515551567078
1789620288229829000,0.7248291015625,0.05619429796934128,0.0034967304673045874,-0.07143609970808029
1789620288239801000,0.734801025390625,0.02311437390744686,-0.06202475354075432,0.009247826412320137
1789620288249772000,0.74477197265625,0.03796016424894333,-0.07367821782827377,0.0781422033905983
1789620288259743000,0.754742919921875,0.06262423098087311,-0.08037126809358597,0.16375404596328735
1789620288269715000,0.76471484375,0.08006420731544495,-0.058934956789016724,0.2992945611476898
1789620288279686000,0.774685791015625,0.07865193486213684,-0.06746106594800949,0.4898194968700409
1789620288289657000,0.784656982421875,0.07456585019826889,-0.22895514965057373,0.7111822366714478
1789620288299629000,0.794629150390625,0.12912575900554657,-0.5797195434570312,0.8982828855514526
1789620288309600000,0.80460009765625,0.22754047811031342,-0.9883028268814087,0.9939905405044556
1789620288319572000,0.814572021484375,0.31727755069732666,-1.319425344467163,1.014070749282837
1789620288329543200,0.824543212890625,0.3677266240119934,-1.5344282388687134,0.9366081953048706
1789620288339514000,0.83451416015625,0.3611485958099365,-1.3621459007263184,0.7327903509140015
1789620288349486000,0.844486083984375,0.3981119394302368,-1.215873122215271,0.5968647003173828
1789620288359457000,0.85445703125,0.5157325863838196,-1.1475588083267212,0.46027839183807373
1789620288369428200,0.86442822265625,0.672307550907135,-1.0741101503372192,0.33367782831192017
1789620288379400000,0.87439990234375,0.9128447771072388,-1.1469041109085083,0.29611366987228394
1789620288389371100,0.88437109375,1.1731325387954712,-1.4399999380111694,0.3585458993911743
1789620288399342000,0.894342041015625,1.4252768754959106,-1.9381858110427856,0.5285996794700623
1789620288409314000,0.90431396484375,1.6863343715667725,-2.5847482681274414,0.7655842304229736
1789620288419285000,0.914284912109375,1.9774773120880127,-3.393678903579712,1.0209177732467651
1789620288429257200,0.92425732421875,2.282867431640625,-4.215635776519775,1.283936619758606
1789620288439228200,0.934228271484375,2.639514684677124,-4.912815570831299,1.5118712186813354
1789620288449198800,0.94419873046875,3.029162645339966,-5.370866298675537,1.6814043521881104
1789620288459171000,0.954171142578125,3.4463248252868652,-5.465590476989746,1.755420207977295
1789620288469142000,0.96414208984375,3.8995046615600586,-5.309628486633301,1.669283151626587
1789620288479113200,0.97411328125,4.385724067687988,-5.066503524780273,1.401600956916809
1789620288489085000,0.9840849609375,4.8896379470825195,-4.87272834777832,1.0501976013183594
1789620288499056000,0.99405615234375,5.38243293762207,-4.908073902130127,0.7298446297645569
1789620288509027800,1.00402783203125,5.878803730010986,-5.125879764556885,0.46046748757362366
1789620288518999000,1.0139990234375,6.3352179527282715,-5.314787864685059,0.3550960421562195
1789620288528970000,1.023969970703125,6.815857887268066,-5.537032604217529,0.46769610047340393
1789620288538942200,1.033942138671875,7.285900592803955,-5.419323921203613,0.7420661449432373
1789620288548913000,1.043912841796875,7.608892917633057,-4.985772132873535,0.945542573928833
1789620288558884000,1.053884033203125,7.90969705581665,-4.171574115753174,1.0896904468536377
1789620288568856000,1.06385595703125,8.205002784729004,-3.9571797847747803,1.0828053951263428
1789620288578827300,1.0738271484375,8.280927658081055,-3.866373062133789,0.9872159361839294
1789620288588798000,1.0837978515625,8.012653350830078,-3.5120463371276855,0.5899674296379089
1789620288598770200,1.093770263671875,7.341318607330322,-3.1979281902313232,0.18031810224056244
1789620288608741000,1.1037412109375,6.491375923156738,-3.027076482772827,0.08773864060640335
1789620288618713000,1.113713134765625,5.952371597290039,-2.497225046157837,0.5692884922027588
1789620288628684000,1.12368408203125,5.691807746887207,-1.3477948904037476,1.281702995300293
1789620288638655000,1.133655029296875,5.667343616485596,-0.28833192586898804,1.6891218423843384
1789620288648627000,1.143626953125,5.624387264251709,0.8145352602005005,1.453025460243225
1789620288658598000,1.153597900390625,5.559953689575195,2.294572114944458,0.8349771499633789
1789620288668567800,1.16356787109375,4.383745193481445,3.815119743347168,-0.16004852950572968
1789620288678540000,1.1735400390625,2.3320159912109375,3.187307834625244,-1.1294654607772827
1789620288688511000,1.183510986328125,0.4860186278820038,1.320330262184143,-1.6078935861587524
1789620288698483000,1.19348291015625,-0.4510856866836548,0.14722007513046265,-1.706093430519104
1789620288708454000,1.203453857421875,-0.24810168147087097,0.35779887437820435,-1.0478976964950562
1789620288718424800,1.2134248046875,0.28781819343566895,1.0690072774887085,-0.5672322511672974
1789620288728396800,1.223396728515625,0.3660224676132202,1.1937816143035889,-0.07466252148151398
1789620288738367700,1.23336767578125,0.12786048650741577,0.11263493448495865,0.5758872628211975
1789620288748339000,1.2433388671875,-0.15696990489959717,-1.497859001159668,1.6844757795333862
1789620288758311000,1.253310791015625,-0.175996333360672,-2.448411703109741,2.142310857772827
1789620288768281900,1.26328173828125,-0.1158408522605896,-3.158008098602295,3.2913687229156494
1789620288778252800,1.273252685546875,-0.014968296512961388,-2.866039276123047,3.320054769515991
1789620288788225000,1.28322509765625,0.2099849283695221,-1.4663045406341553,2.216625928878784
1789620288798195700,1.29319580078125,0.4979410767555237,0.5098925232887268,0.4297500550746918
1789620288808168000,1.30316796875,0.2507491409778595,1.5737804174423218,-0.5605402588844299
1789620288818139000,1.313138916015625,-0.3005792796611786,1.2764472961425781,-0.5237058401107788
1789620288828110000,1.323110107421875,-0.6624101996421814,0.43487289547920227,-0.06877294182777405
1789620288838081800,1.333081787109375,-0.815835177898407,-0.1792331337928772,0.2847731411457062
1789620288848053000,1.343052978515625,-1.056822419166565,-0.5504146814346313,0.5568131804466248
1789620288858024000,1.35302392578125,-1.1789318323135376,-0.784522533416748,0.7364508509635925
1789620288867996000,1.362995849609375,-1.33124840259552,-0.7582895755767822,0.6878769397735596
1789620288877966800,1.372966796875,-1.5953599214553833,-0.7812519073486328,0.46275779604911804
1789620288887939000,1.38293896484375,-1.8316137790679932,-0.9727901816368103,0.30411168932914734
1789620288897909800,1.39290966796875,-1.9891732931137085,-1.348706841468811,0.2322249859571457
1789620288907880700,1.402880615234375,-1.9790093898773193,-1.4832041263580322,0.3699420988559723
1789620288917853000,1.41285302734375,-2.0594849586486816,-1.1155002117156982,0.3576878309249878
1789620288927824000,1.422823974609375,-2.2283878326416016,-0.9726144075393677,0.4238450229167938
1789620288937795800,1.4327958984375,-2.4492223262786865,-1.259506106376648,0.631366491317749
1789620288947766800,1.442766845703125,-2.95023512840271,-1.1851434707641602,0.2740826904773712
1789620288957738000,1.452738037109375,-3.9264721870422363,-1.5306994915008545,-0.24348029494285583
1789620288967709700,1.462709716796875,-4.279171943664551,-0.9540441632270813,0.17429989576339722
1789620288977681000,1.472680908203125,-3.6516690254211426,-0.3997785449028015,0.5802684426307678
1789620288987651800,1.48265185546875,-1.983439564704895,-0.2195480763912201,1.106041431427002
1789620288997623800,1.492623779296875,-0.9674904346466064,-0.4133814573287964,1.2336901426315308
1789620289007594800,1.5025947265625,-0.79543137550354,-0.5792987942695618,0.9467015862464905
1789620289017567000,1.51256689453125,-0.931730329990387,-0.2732222080230713,0.431346595287323
1789620289027538000,1.522537841796875,-0.9750605225563049,0.35158440470695496,-0.10450910031795502
1789620289037508900,1.5325087890625,-0.9191346764564514,0.9464088678359985,-0.5861393809318542
1789620289047480800,1.542480712890625,-0.6530401110649109,1.5427407026290894,-1.059629201889038
1789620289057452000,1.5524521484375,-0.18245209753513336,2.3308985233306885,-1.4824819564819336
1789620289067423000,1.562423095703125,0.251650869846344,2.7056915760040283,-1.7551259994506836
1789620289077395000,1.57239501953125,0.4764741361141205,2.311129093170166,-1.5486934185028076
1789620289087366000,1.582365966796875,0.5172258019447327,1.1441932916641235,-1.0828317403793335
1789620289097337900,1.592337890625,0.5678700804710388,0.8254553079605103,-1.0294169187545776
1789620289107308800,1.602308837890625,0.11658386886119843,1.1662755012512207,-1.1649103164672852
1789620289117280000,1.612280029296875,-0.3022746443748474,1.5736371278762817,-1.4208494424819946
1789620289127252000,1.622251953125,-0.7309378385543823,2.0948524475097656,-1.5080381631851196
1789620289137223000,1.632222900390625,-1.6341071128845215,2.736490488052368,-1.4227477312088013
1789620289147193900,1.64219384765625,-2.0439600944519043,2.7912330627441406,-1.4613348245620728
1789620289157166000,1.652166015625,-2.030616044998169,2.06520938873291,-1.2230929136276245
1789620289167137000,1.662136962890625,-1.161324143409729,0.25286927819252014,-0.04962960258126259
1789620289177109000,1.67210888671875,-0.5166956186294556,-1.059100866317749,1.0737372636795044
1789620289187080000,1.682079833984375,-0.5070091485977173,-1.4464563131332397,1.704850196838379
1789620289197051000,1.69205078125,-0.4777316749095917,-1.577751636505127,1.8923413753509521
1789620289207022800,1.70202294921875,-0.16869740188121796,-1.6154985427856445,1.8134182691574097
1789620289216993800,1.711993896484375,0.09720191359519958,-1.9004679918289185,1.5747675895690918
1789620289226966000,1.721966064453125,-0.07563164085149765,-1.9106066226959229,1.4535671472549438
1789620289236936700,1.731936767578125,-0.2103913277387619,-1.3854871988296509,1.0900424718856812
1789620289246908000,1.741907958984375,-0.2305719554424286,-0.5330697894096375,0.6279376745223999
1789620289256879900,1.7518798828125,-0.22353695333003998,-0.06461893767118454,0.36760756373405457
1789620289266851000,1.76185107421875,0.2457389235496521,0.1440088301897049,0.01877901330590248
1789620289276822800,1.77182275390625,1.2547606229782104,0.4468533992767334,-0.6176280379295349
1789620289286794000,1.7817939453125,2.1642487049102783,0.5299403071403503,-1.3625038862228394
1789620289296765000,1.791764892578125,2.6793148517608643,0.4119281768798828,-1.8584619760513306
1789620289306737000,1.80173681640625,3.2981700897216797,0.5341762900352478,-1.9002535343170166
1789620289316707800,1.811707763671875,3.618030071258545,0.5127530694007874,-2.118595838546753
1789620289326679000,1.821678955078125,3.8799076080322266,0.8956128358840942,-2.4550349712371826
1789620289336650800,1.831650634765625,4.510040760040283,1.6756188869476318,-2.5928122997283936
1789620289346622000,1.8416220703125,4.522554397583008,2.22166109085083,-2.5504751205444336
1789620289356594000,1.851593994140625,4.087493419647217,2.161426067352295,-1.9392938613891602
1789620289366564900,1.86156494140625,4.45945405960083,3.3159096240997314,-2.0880038738250732
1789620289376535800,1.871535888671875,4.384040355682373,3.8713955879211426,-2.558042526245117
1789620289386508000,1.881508056640625,4.4520344734191895,5.218421459197998,-2.892746686935425
1789620289396479000,1.89147900390625,4.6259331703186035,5.07188606262207,-3.161362886428833
1789620289406451000,1.901450927734375,4.481323719024658,4.453486919403076,-2.5809967517852783
1789620289416422000,1.911421875,2.8858072757720947,3.1171059608459473,-1.9902215003967285
1789620289426392800,1.921392822265625,0.4203501343727112,0.482225239276886,-1.3369252681732178
1789620289436364800,1.93136474609375,-0.13292129337787628,-0.7848945260047913,-0.7249435782432556
1789620289446335700,1.941335693359375,-0.051655735820531845,-0.8225072026252747,-0.15313628315925598
1789620289456308000,1.951307861328125,-0.35280704498291016,-0.10451921820640564,0.5028213262557983
1789620289466279000,1.96127880859375,-0.7584054470062256,0.4441058039665222,0.781613290309906
1789620289476249900,1.971249755859375,-1.119776725769043,0.8710795044898987,0.9570519328117371
1789620289486221800,1.981221923828125,-1.4466890096664429,1.428451657295227,0.9880964159965515
1789620289496193000,1.991193115234375,-1.6426653861999512,1.1168296337127686,1.247312307357788
1789620289506164700,2.001164794921875,-1.8839430809020996,0.5607855319976807,1.2430970668792725
1789620289516136000,2.011135986328125,-1.7876713275909424,0.1162661537528038,1.0343337059020996
1789620289526107000,2.02110693359375,-1.6245745420455933,-0.6415190100669861,0.9897302389144897
1789620289536078800,2.031078857421875,-1.639297604560852,-1.6628223657608032,0.9506739377975464
1789620289546049800,2.0410498046875,-1.960453748703003,-2.702657461166382,0.6747246384620667
1789620289556022000,2.05102197265625,-2.369713544845581,-3.27394962310791,-0.053405433893203735
1789620289565993000,2.060992919921875,-2.9505326747894287,-3.3604440689086914,-0.9109638333320618
1789620289575964000,2.0709638671875,-3.3545114994049072,-4.4115071296691895,-1.8294340372085571
1789620289585936000,2.080935791015625,-1.6094616651535034,-5.411401271820068,-3.046595573425293
1789620289595907000,2.090906982421875,-0.3074401021003723,-2.90830397605896,-3.234257936477661
1789620289605878800,2.100878662109375,-0.1259898841381073,-0.7679643034934998,-2.4292538166046143
1789620289615850000,2.11085009765625,-0.5778500437736511,0.15183186531066895,-0.8991907835006714
1789620289625821000,2.120821044921875,-0.75644850730896,0.5283733010292053,0.5533097982406616
1789620289635793000,2.13079296875,-0.5404893159866333,0.5044498443603516,1.1706124544143677
1789620289645763800,2.140763916015625,-0.3632274866104126,0.37971270084381104,1.2164525985717773
1789620289655736000,2.150736083984375,-0.2612803280353546,0.2599378228187561,0.7894759774208069
1789620289665707300,2.160707275390625,-0.21874086558818817,-0.015897739678621292,-0.2626880705356598
1789620289675678200,2.17067822265625,-0.11170069873332977,-0.43405529856681824,-0.8823910355567932
1789620289685650400,2.180650390625,0.004610198084264994,-0.5891298651695251,-0.7927908301353455
1789620289695621400,2.190621337890625,0.06528712809085846,-0.4996385872364044,-0.4455716013908386
1789620289705593300,2.20059326171875,0.18653260171413422,-0.2875433564186096,-0.2904033362865448
1789620289715564300,2.210564208984375,0.26206597685813904,-0.0427250936627388,-0.20657767355442047
1789620289725535200,2.22053515625,0.2650367319583893,0.2007666528224945,0.08629734069108963
1789620289735507200,2.230507080078125,0.22575856745243073,0.40859389305114746,0.5573199987411499
1789620289745478100,2.24047802734375,0.46081236004829407,1.0021618604660034,0.17548899352550507
1789620289755450400,2.250450439453125,1.1219396591186523,1.385493278503418,-0.22553539276123047
1789620289765421000,2.260421142578125,1.0540319681167603,1.599107265472412,-0.13046880066394806
1789620289775392300,2.270392333984375,0.6146591901779175,1.769527554512024,0.19829870760440826
1789620289785364200,2.2803642578125,0.45326176285743713,1.6197372674942017,0.4931548535823822
1789620289795335200,2.290335205078125,0.22068150341510773,1.3165796995162964,1.0359286069869995
1789620289805307100,2.30030712890625,0.3700539469718933,1.246263027191162,1.382778525352478
1789620289815278300,2.3102783203125,0.4889691472053528,1.19196355342865,1.6625525951385498
1789620289825249300,2.320249267578125,0.28768157958984375,1.0111868381500244,2.0343704223632812
1789620289835221200,2.33022119140625,0.4923100769519806,0.28418272733688354,1.3898944854736328
1789620289845192200,2.340192138671875,0.6350305080413818,0.3522230386734009,0.38726410269737244
1789620289855164400,2.350164306640625,0.6745842695236206,-0.022731412202119827,-0.27868783473968506
1789620289865135000,2.360135009765625,1.1488333940505981,-0.4339519739151001,-0.24280358850955963
1789620289875106300,2.370106201171875,1.38564133644104,-0.16680575907230377,-0.14147590100765228
1789620289885078300,2.380078369140625,1.019737958908081,1.472681999206543,-0.27077531814575195
1789620289895049200,2.39004931640625,0.43621912598609924,2.1995797157287598,-0.25153210759162903
1789620289905021200,2.400021240234375,0.5000002384185791,1.8843592405319214,0.12292938679456711
1789620289914992400,2.409992431640625,0.8729833960533142,1.646079659461975,0.3222512900829315
1789620289924963300,2.41996337890625,1.0891509056091309,1.9322032928466797,0.21042807400226593
1789620289934935300,2.429935302734375,1.0343611240386963,1.9773510694503784,0.002444781828671694
1789620289944906200,2.43990625,0.8025768995285034,1.7476019859313965,-0.43158042430877686
1789620289954878200,2.449878173828125,0.8988171219825745,1.2070364952087402,-0.7513845562934875
1789620289964849200,2.45984912109375,1.0946135520935059,1.041168451309204,-0.7602754831314087
1789620289974821400,2.4698212890625,1.2929103374481201,0.708480179309845,-0.8230313062667847
1789620289984792300,2.479792236328125,1.4645867347717285,0.18037642538547516,-1.0745940208435059
1789620289994763300,2.48976318359375,1.6436326503753662,-0.11909869313240051,-1.3397042751312256
1789620290004735200,2.4997353515625,1.860533356666565,-0.23969382047653198,-1.4709608554840088
1789620290014706400,2.50970654296875,2.1627697944641113,-0.704357385635376,-1.5430136919021606
1789620290024678100,2.51967822265625,2.3726301193237305,-1.1522326469421387,-1.354103684425354
1789620290034649300,2.5296494140625,2.4008066654205322,-1.1644093990325928,-0.9931372404098511
1789620290044620300,2.539620361328125,2.1642210483551025,-0.7766648530960083,-0.8164098858833313
1789620290054592300,2.54959228515625,1.9829423427581787,-0.3638272285461426,-0.7953053712844849
1789620290064563200,2.559563232421875,1.8440794944763184,0.021158015355467796,-0.6974704265594482
1789620290074535400,2.569535400390625,1.6518254280090332,0.11621236056089401,-0.6359522342681885
1789620290084506400,2.57950634765625,1.3741884231567383,-0.2802457809448242,-0.7134906649589539
1789620290094477000,2.58947705078125,1.24777352809906,-0.5008140802383423,-0.6607286930084229
1789620290104449300,2.59944921875,1.1768910884857178,-0.5437855124473572,-0.5996533036231995
1789620290114420200,2.609420166015625,1.119728684425354,-0.33122318983078003,-0.5018175840377808
1789620290124392200,2.61939208984375,1.0008846521377563,0.015221030451357365,-0.3206842839717865
1789620290134363100,2.629363037109375,0.8159283399581909,0.08432473242282867,-0.1762908697128296
1789620290144334300,2.639334228515625,0.6571978330612183,-0.07729905098676682,-0.06576037406921387
1789620290154306000,2.64930615234375,0.5437580943107605,-0.2660902738571167,0.04068804159760475
1789620290164277200,2.65927734375,0.4210899770259857,-0.38459402322769165,0.12422660738229752
1789620290174249200,2.669249267578125,0.2615559697151184,-0.3916604518890381,0.14083515107631683
1789620290184220400,2.679220458984375,0.059304334223270416,-0.22849655151367188,0.12327533215284348
1789620290194192100,2.689192138671875,-0.12502875924110413,-0.00475374236702919,0.10454531759023666
1789620290204163300,2.699163330078125,-0.3274516463279724,0.08308876305818558,0.1147414967417717
1789620290214134300,2.70913427734375,-0.5386722683906555,-0.07774912565946579,0.15736618638038635
1789620290224106200,2.719106201171875,-0.635776162147522,-0.5945536494255066,0.1925039291381836
1789620290234077200,2.7290771484375,-0.6690888404846191,-1.3892488479614258,0.20973725616931915
1789620290244049400,2.73904931640625,-0.5606817007064819,-1.8209736347198486,0.2502090334892273
1789620290254020000,2.74902001953125,-0.4983706474304199,-2.0126757621765137,0.21461056172847748
1789620290263991300,2.7589912109375,-0.39377444982528687,-1.8276454210281372,0.10856109857559204
1789620290273963300,2.76896337890625,-0.23932842910289764,-0.8756992816925049,0.1083349958062172
1789620290283934500,2.7789345703125,-0.20682188868522644,0.3658978343009949,0.19095051288604736
1789620290293906200,2.78890625,-0.23760083317756653,0.929176390171051,0.2183658927679062
1789620290303877400,2.79887744140625,-0.197685107588768,0.889738142490387,0.12264122813940048
1789620290313849000,2.80884912109375,-0.14872662723064423,0.38031989336013794,-0.025301095098257065
1789620290323820300,2.8188203125,-0.18649184703826904,-0.06505277007818222,-0.17234860360622406
1789620290333791200,2.828791259765625,-0.22524616122245789,0.26923438906669617,-0.1882287561893463
1789620290343763500,2.838763427734375,-0.3513774573802948,0.6935891509056091,-0.07011464238166809
1789620290353734100,2.848734130859375,-0.6152248382568359,0.6611347794532776,-0.05234310030937195
1789620290363706400,2.858706298828125,-0.900570273399353,0.36315903067588806,-0.14752128720283508
1789620290373677300,2.86867724609375,-1.2569321393966675,0.12606339156627655,-0.13274632394313812
1789620290383648300,2.878648193359375,-1.5581257343292236,0.14003433287143707,0.031316645443439484
1789620290393620200,2.8886201171875,-1.572658896446228,0.351281076669693,0.16687420010566711
1789620290403591200,2.898591064453125,-1.3549790382385254,0.3249812722206116,0.1962142437696457
1789620290413563100,2.908563232421875,-1.0875287055969238,-0.06618354469537735,0.22437424957752228
1789620290423534000,2.9185341796875,-0.889430820941925,-0.3840629756450653,0.23892442882061005
1789620290433506300,2.92850634765625,-0.7277934551239014,-0.4351820945739746,0.23198449611663818
1789620290443477200,2.938477294921875,-0.6111587285995483,-0.3975846469402313,0.26175305247306824
1789620290453448200,2.9484482421875,-0.5891016125679016,-0.4787881672382355,0.2987659275531769
1789620290463420200,2.958420166015625,-0.7172233462333679,-0.8361423015594482,0.300437867641449
1789620290473391400,2.968391357421875,-0.8597344160079956,-1.0936657190322876,0.24402359127998352
1789620290483363000,2.978363037109375,-0.7895697355270386,-0.5854554772377014,0.23263351619243622
1789620290493334300,2.988334228515625,-0.5582787394523621,0.7227838039398193,0.242328479886055
1789620290503305200,2.99830517578125,-0.6240023374557495,1.6610993146896362,0.002163019496947527
1789620290513277200,3.008277099609375,-0.701887309551239,1.128596305847168,-0.2716296315193176
1789620290523248000,3.018248046875,-0.7527192831039429,0.08811361342668533,-0.49279797077178955
1789620290533220400,3.028220458984375,-0.8689194321632385,-0.5446622371673584,-0.5799294114112854
1789620290543191300,3.03819140625,-1.1994004249572754,-0.9519383907318115,-0.5335805416107178
1789620290553163300,3.048163330078125,-1.5745666027069092,-1.1069583892822266,-0.4611052870750427
1789620290563134200,3.05813427734375,-1.717386245727539,-1.3269431591033936,0.045832470059394836
1789620290573105400,3.06810546875,-1.4843312501907349,-0.40439966320991516,0.10052261501550674
1789620290583077000,3.0780771484375,-1.508846402168274,0.14076164364814758,-0.048593636602163315
1789620290593048300,3.08804833984375,-1.9582276344299316,0.11244318634271622,-0.09025213122367859
1789620290603020300,3.098020263671875,-1.9763598442077637,-0.09434034675359726,0.12595020234584808
1789620290612991200,3.1079912109375,-1.9062230587005615,-0.26951003074645996,0.3307667374610901
1789620290622963200,3.117963134765625,-1.7848681211471558,-0.6187202334403992,0.27848756313323975
1789620290632934400,3.127934326171875,-1.627498745918274,-0.9336779117584229,-0.10666785389184952
1789620290642905300,3.1379052734375,-1.506540060043335,-1.041397213935852,-0.5944838523864746
1789620290652877300,3.147877197265625,-1.2853068113327026,-1.1377713680267334,-0.8456282019615173
1789620290662848300,3.15784814453125,-1.064869999885559,-1.2794654369354248,-0.7100837230682373
1789620290672820500,3.167820556640625,-1.051056981086731,-1.1839673519134521,-0.4006851017475128
1789620290682791400,3.17779150390625,-1.1105173826217651,-0.8100156188011169,-0.23764371871948242
1789620290692763600,3.187763671875,-1.1143954992294312,-0.4102165400981903,-0.21112501621246338
1789620290702734600,3.197734619140625,-1.005228042602539,-0.14356249570846558,-0.19774609804153442
1789620290712705500,3.20770556640625,-0.8949893712997437,0.04538319259881973,-0.11310099065303802
1789620290722677500,3.217677490234375,-0.8633374571800232,0.20107504725456238,0.06771859526634216
1789620290732648700,3.227648681640625,-0.8969164490699768,0.19988888502120972,0.23019778728485107
1789620290742620400,3.237620361328125,-0.9528593420982361,-0.003129480639472604,0.2875734567642212
1789620290752591600,3.247591552734375,-0.9453169703483582,-0.49143657088279724,0.2765527665615082
1789620290762563600,3.2575634765625,-0.8774979710578918,-1.0125995874404907,0.2748377025127411
1789620290772534500,3.267534423828125,-0.7444539070129395,-1.3124662637710571,0.24974219501018524
1789620290782505500,3.27750537109375,-0.5748206973075867,-1.3602803945541382,0.2353280931711197
1789620290792477700,3.287477783203125,-0.421968549489975,-1.233511209487915,0.3039572238922119
1789620290802448400,3.297448486328125,-0.314596027135849,-1.0111130475997925,0.39729464054107666
1789620290812420600,3.307420654296875,-0.25596359372138977,-0.6937819719314575,0.4388370215892792
1789620290822391600,3.3173916015625,-0.1861935704946518,-0.14724111557006836,0.418980211019516
1789620290832362500,3.327362548828125,-0.03074006922543049,0.3724691867828369,0.4309791028499603
1789620290842334500,3.33733447265625,0.15234452486038208,0.6351905465126038,0.5475760102272034
1789620290852305400,3.347305419921875,0.305709570646286,0.7650193572044373,0.7156212329864502
1789620290862277600,3.357277587890625,0.39796361327171326,0.9547898769378662,0.8201199173927307
1789620290872248300,3.367248291015625,0.43031755089759827,1.0543087720870972,0.861710786819458
1789620290882220500,3.377220458984375,0.45234349370002747,1.0305293798446655,0.8848611116409302
1789620290892191500,3.38719140625,0.558297336101532,0.9858207106590271,0.8284937143325806
1789620290902163500,3.39716357421875,0.7333650588989258,1.145276665687561,0.746427595615387
1789620290912134400,3.407134521484375,0.8514906167984009,1.0719449520111084,0.7138246297836304
1789620290922105600,3.417105712890625,0.9249014854431152,0.7587345838546753,0.7378460764884949
1789620290932077300,3.427077392578125,0.989402711391449,0.5693010091781616,0.6724806427955627
1789620290942048500,3.437048583984375,1.0507885217666626,0.5025762915611267,0.5088664293289185
1789620290952020500,3.4470205078125,1.179616093635559,0.5104470252990723,0.4002978801727295
1789620290961991400,3.456991455078125,1.33841872215271,0.3494893014431,0.31650310754776
1789620290971963400,3.46696337890625,1.4737578630447388,-0.027477430179715157,0.17292970418930054
1789620290981934600,3.4769345703125,1.5541903972625732,0.11546987295150757,0.06494864076375961
1789620290991905500,3.486905517578125,1.6330742835998535,0.8524190187454224,0.08896315842866898
1789620291001877500,3.49687744140625,1.6041580438613892,1.0416738986968994,0.2141072303056717
1789620291011848400,3.506848388671875,1.4888359308242798,0.9777739644050598,0.23900751769542694
1789620291021820700,3.516820556640625,1.4039442539215088,0.9961972236633301,0.18244996666908264
1789620291031791400,3.526791259765625,1.4047293663024902,1.0376367568969727,0.109648197889328
1789620291041763600,3.536763671875,1.5267980098724365,0.8102132081985474,0.010056628845632076
1789620291051734500,3.546734619140625,1.8056203126907349,0.38863110542297363,-0.047258324921131134
1789620291061705500,3.55670556640625,2.0607242584228516,0.2108272761106491,-0.03369857370853424
1789620291071677400,3.566677490234375,2.208785057067871,0.39675799012184143,0.017373397946357727
1789620291081648600,3.576648681640625,2.231034517288208,0.7820497751235962,0.060263074934482574
1789620291091620400,3.586620361328125,2.120548725128174,1.1162407398223877,0.03568635880947113
1789620291101591600,3.596591552734375,1.9321510791778564,1.332816243171692,-0.04054582864046097
1789620291111563500,3.6065634765625,1.7807700634002686,1.487676978111267,-0.1249520555138588
1789620291121534500,3.616534423828125,1.682348370552063,1.4310951232910156,-0.19514551758766174
1789620291131506400,3.62650634765625,1.6438055038452148,1.362014889717102,-0.254154235124588
1789620291141477600,3.6364775390625,1.6399521827697754,1.2323130369186401,-0.3151680827140808
1789620291151448600,3.646448486328125,1.6116102933883667,1.1462695598602295,-0.3698217272758484
1789620291161420500,3.656420654296875,1.5523781776428223,0.8572430610656738,-0.3791220188140869
1789620291171391500,3.6663916015625,1.5840657949447632,0.39381173253059387,-0.35596397519111633
1789620291181363500,3.676363525390625,1.6064773797988892,0.01456056721508503,-0.38017770648002625
1789620291191334400,3.68633447265625,1.4584500789642334,0.001061802264302969,-0.4583238959312439
1789620291201306600,3.696306640625,1.2222098112106323,0.39315688610076904,-0.5210509300231934
1789620291211277600,3.706277587890625,1.12948739528656,0.9805008172988892,-0.5692107081413269
1789620291221248500,3.71624853515625,1.2252676486968994,1.2739516496658325,-0.6428130269050598
1789620291231220500,3.726220458984375,1.1907291412353516,0.6446301341056824,-0.531082808971405
1789620291241191700,3.736191650390625,1.123302936553955,0.0559689924120903,-0.4565294682979584
1789620291251163400,3.746163330078125,0.9181649684906006,0.22328367829322815,-0.6104857325553894
1789620291261134600,3.756134521484375,0.7295761704444885,0.6789728999137878,-0.6938725113868713
1789620291271106600,3.7661064453125,0.6528621912002563,0.5679758191108704,-0.6969751119613647
1789620291281077500,3.776077392578125,0.5884456634521484,0.08580997586250305,-0.6230230927467346
1789620291291049500,3.786049560546875,0.5449408292770386,-0.22226209938526154,-0.589677631855011
1789620291301020700,3.796020751953125,0.5449914336204529,-0.1283569037914276,-0.6251762509346008
1789620291310991600,3.80599169921875,0.6422923803329468,0.15022093057632446,-0.6234942078590393
1789620291320963600,3.815963623046875,0.5517891049385071,0.2785956859588623,-0.5864922404289246
1789620291330934500,3.8259345703125,0.3197801411151886,0.25830078125,-0.5192330479621887
1789620291340906500,3.835906494140625,0.21159933507442474,0.18020598590373993,-0.3889613449573517
1789620291350877400,3.84587744140625,0.1707507073879242,0.1323774755001068,-0.32302919030189514
1789620291360849700,3.855849609375,0.18591074645519257,0.09741070866584778,-0.3310287892818451
1789620291370820600,3.865820556640625,0.2742462158203125,-0.1765183061361313,-0.3802509307861328
1789620291380791600,3.87579150390625,0.29552513360977173,-0.5420289039611816,-0.3700656592845917
1789620291390763500,3.885763427734375,0.19243095815181732,-0.6859093904495239,-0.2864551842212677
1789620291400734500,3.895734375,0.11915381997823715,-0.8408262729644775,-0.2137729972600937
1789620291410706400,3.90570654296875,0.037764955312013626,-0.8131373524665833,-0.173548623919487
1789620291420677400,3.915677490234375,-0.057428404688835144,-0.22829122841358185,-0.10344995558261871
1789620291430649600,3.925649658203125,-0.09344366192817688,-0.01926370896399021,-0.07592858374118805
1789620291440620500,3.93562060546875,-0.11763262003660202,-0.41033613681793213,-0.09947545826435089
1789620291450592500,3.945592529296875,-0.2123788446187973,-0.8639944195747375,0.018726017326116562
1789620291460563500,3.9555634765625,-0.3261900842189789,-1.090212106704712,0.2627921998500824
1789620291470534700,3.96553466796875,-0.41931524872779846,-0.6778588891029358,0.41647177934646606
1789620291480506400,3.97550634765625,-0.6577941179275513,-0.2296997755765915,0.3868316113948822
1789620291490477600,3.9854775390625,-0.9485207796096802,0.1971234530210495,0.3157358467578888
1789620291500449500,3.995449462890625,-1.143617033958435,0.5861566662788391,0.24750806391239166
1789620291510420500,4.00542041015625,-1.2966742515563965,0.4343152344226837,0.15972468256950378
1789620291520392400,4.015392333984375,-1.3781222105026245,0.05753280222415924,0.15281085669994354
1789620291530363600,4.02536376953125,-1.4091925621032715,-0.5296569466590881,0.16695916652679443
1789620291540335400,4.03533544921875,-1.4100532531738281,-0.9634248614311218,0.16414286196231842
1789620291550306600,4.045306640625,-1.4337964057922363,-1.2005468606948853,0.04902373626828194
1789620291560277500,4.055277587890625,-1.4186129570007324,-1.2159441709518433,-0.14156699180603027
1789620291570249500,4.06524951171875,-1.2802480459213257,-1.0676655769348145,-0.2841683328151703
1789620291580220400,4.075220458984375,-1.112606406211853,-0.8907312154769897,-0.3724571764469147
1789620291590192600,4.085192626953125,-0.9322171807289124,-0.8180069923400879,-0.38851073384284973
1789620291600163600,4.09516357421875,-0.7547268271446228,-1.0822056531906128,-0.29004141688346863
1789620291610135600,4.105135498046875,-0.6430263519287109,-1.2110192775726318,-0.05012255534529686
1789620291620106500,4.1151064453125,-0.6369551420211792,-1.026552677154541,0.17519284784793854
1789620291630078500,4.125078369140625,-0.7752081155776978,-0.5308479070663452,0.2974415421485901
1789620291640049400,4.13504931640625,-0.8196024894714355,-0.01888793706893921,0.35256311297416687
1789620291650020600,4.1450205078125,-0.6909459829330444,0.08704328536987305,0.36053556203842163
1789620291659992600,4.15499267578125,-0.6741296648979187,-0.08954959362745285,0.30943506956100464
1789620291669963000,4.164962890625,-0.8636748790740967,-0.20281089842319489,0.26035276055336
1789620291679934700,4.174934814453125,-1.125626802444458,-0.1946970522403717,0.27718445658683777
1789620291689906000,4.184906005859375,-1.3544474840164185,-0.17897213995456696,0.2943064570426941
1789620291699877600,4.194877685546875,-1.4429824352264404,-0.18372562527656555,0.23284976184368134
1789620291709848800,4.204848876953125,-1.4655964374542236,-0.09737075865268707,0.07439034432172775
1789620291719820800,4.21482080078125,-1.5302174091339111,-0.05366962030529976,-0.1435406506061554
1789620291729792000,4.2247919921875,-1.5460094213485718,-0.2235470712184906,-0.33338966965675354
1789620291739762700,4.2347626953125,-1.562043309211731,-0.5474628210067749,-0.39621683955192566
1789620291749735000,4.24473486328125,-1.6512917280197144,-0.6592460870742798,-0.30227145552635193
1789620291759705900,4.254705810546875,-1.76048743724823,-0.5526672005653381,-0.1823844611644745
1789620291769677800,4.264677734375,-1.8004846572875977,-0.47244930267333984,-0.17238855361938477
1789620291779648800,4.274648681640625,-1.8345571756362915,-0.2811901271343231,-0.23735076189041138
1789620291789621000,4.28462109375,-1.7723296880722046,0.05110180005431175,-0.3311643600463867
1789620291799591700,4.294591796875,-1.6247605085372925,-0.021585453301668167,-0.3893277943134308
1789620291809564000,4.30456396484375,-1.6253162622451782,-0.7176329493522644,-0.45493900775909424
1789620291819534800,4.314534912109375,-1.709006667137146,-1.1357167959213257,-0.5253298282623291
1789620291829506800,4.3245068359375,-1.7563837766647339,-0.9936323165893555,-0.5520381331443787
1789620291840101600,4.3351015625,-1.6108793020248413,-0.8125360608100891,-0.6634536385536194
1789620291850072800,4.34507275390625,-1.3322268724441528,-0.7202947735786438,-0.7201733589172363
1789620291860044800,4.355044921875,-1.2115497589111328,-0.554549515247345,-0.6497164964675903
1789620291870015700,4.365015625,-1.3154984712600708,-0.3150559365749359,-0.6547195315361023
1789620291879987700,4.37498779296875,-1.333849310874939,-0.2810894548892975,-0.7145208120346069
1789620291889959000,4.384958984375,-1.228879690170288,-0.5365153551101685,-0.7031461596488953
1789620291899930600,4.3949306640625,-1.0262744426727295,-0.6920461058616638,-0.5907495617866516
1789620291909901800,4.40490185546875,-0.8859775066375732,-0.8602734804153442,-0.4793761968612671
1789620291919872800,4.414872802734375,-0.8914816975593567,-0.9314629435539246,-0.39235952496528625
1789620291929844700,4.4248447265625,-0.8727818131446838,-0.7167168259620667,-0.25341522693634033
1789620291939815700,4.434815673828125,-0.7808412313461304,-0.2732198238372803,0.027545606717467308
1789620291949788000,4.444787841796875,-0.5656388998031616,0.08812160044908524,0.3669399321079254
1789620291959758800,4.4547587890625,-0.3096073865890503,0.2270083874464035,0.5017552375793457
1789620291969730800,4.464730712890625,-0.224747896194458,0.31393980979919434,0.4510577321052551
1789620291979701800,4.47470166015625,-0.19297131896018982,0.532365620136261,0.4113342761993408
1789620291989673700,4.484673828125,-0.08175212144851685,0.796790361404419,0.41525524854660034
1789620291999644700,4.494644775390625,0.043121904134750366,0.896008312702179,0.43690595030784607
1789620292009617000,4.504616943359375,0.04671690613031387,0.6360430121421814,0.48685887455940247
1789620292019587800,4.514587890625,0.07630622386932373,0.35890063643455505,0.5398813486099243
1789620292029558800,4.524558837890625,0.1646946668624878,0.2592797577381134,0.46832913160324097
1789620292039530800,4.53453076171875,0.27620282769203186,0.15570490062236786,0.3852595388889313
1789620292049501700,4.544501708984375,0.3208262324333191,0.228204146027565,0.4635612666606903
1789620292059473700,4.5544736328125,0.39689356088638306,0.5258997678756714,0.57786625623703
1789620292069444600,4.564444580078125,0.5260134339332581,0.6808967590332031,0.6600663065910339
1789620292079416800,4.574416748046875,0.5609884858131409,0.5063081979751587,0.695838987827301
1789620292089387800,4.5843876953125,0.6190491318702698,0.3971364498138428,0.6431581974029541
1789620292099359700,4.59435986328125,0.833776593208313,0.7890394926071167,0.6225512027740479
1789620292109330700,4.60433056640625,1.1250089406967163,1.3150873184204102,0.6771014928817749
1789620292119302000,4.614302001953125,1.2517362833023071,1.3939749002456665,0.7218519449234009
1789620292129273600,4.624273681640625,1.2836534976959229,1.2487412691116333,0.7078413367271423
1789620292139244800,4.634244873046875,1.3326934576034546,0.9912075400352478,0.5415684580802917
1789620292149216800,4.644216796875,1.4049623012542725,0.7545220255851746,0.384799063205719
1789620292159187700,4.654187744140625,1.5556658506393433,0.8191670179367065,0.32037001848220825
1789620292169159700,4.66415966796875,1.7521836757659912,1.0384501218795776,0.29551073908805847
1789620292179131000,4.674130859375,1.7902828454971313,1.2685576677322388,0.3119879961013794
1789620292189102600,4.6841025390625,1.7421143054962158,1.3631116151809692,0.2998674213886261
1789620292199073800,4.69407373046875,1.7778598070144653,0.9891688823699951,0.14786483347415924
1789620292209045800,4.704045654296875,1.853824257850647,0.5261338353157043,-0.014630075544118881
1789620292219016700,4.7140166015625,2.0271785259246826,0.6819082498550415,-0.07082037627696991
1789620292228987600,4.723987548828125,2.0146515369415283,0.7786571383476257,-0.20788076519966125
1789620292238959900,4.7339599609375,1.9004408121109009,0.6200345158576965,-0.3471182882785797
1789620292248930800,4.743930908203125,1.866207480430603,0.6051865816116333,-0.33156755566596985
1789620292258902800,4.75390283203125,1.9100412130355835,0.8086771368980408,-0.18244411051273346
1789620292268873700,4.763873779296875,1.9227399826049805,0.8806375861167908,-0.0631648525595665
1789620292278845700,4.773845703125,1.8330950736999512,0.878154456615448,-0.123451367020607
1789620292288816600,4.783816650390625,1.7413073778152466,0.7198276519775391,-0.1785833239555359
1789620292298788900,4.793788818359375,1.6996456384658813,0.6404058337211609,-0.19152042269706726
1789620292308759800,4.803759765625,1.7266266345977783,0.6712963581085205,-0.2107495218515396
1789620292318731800,4.813731689453125,1.8076059818267822,0.5717630982398987,-0.20742295682430267
1789620292328702700,4.82370263671875,1.8577239513397217,0.29046937823295593,-0.2087726593017578
1789620292338674000,4.833673828125,1.8931282758712769,-0.005250421818345785,-0.21797360479831696
1789620292348645600,4.843645751953125,1.9126769304275513,-0.09509722143411636,-0.25096777081489563
1789620292358616800,4.853616943359375,1.8741021156311035,0.07081691175699234,-0.22819802165031433
1789620292368588800,4.8635888671875,1.8371965885162354,0.3947864770889282,-0.14737826585769653
1789620292378559700,4.873559814453125,1.7711248397827148,0.6150149703025818,-0.0771709531545639
1789620292388531700,4.88353173828125,1.653050184249878,0.7404559850692749,-0.10842820256948471
1789620292398503000,4.8935029296875,1.580107569694519,0.7274531126022339,-0.25088682770729065
1789620292408474600,4.903474609375,1.4305704832077026,0.5256803035736084,-0.30843719840049744
1789620292418445800,4.91344580078125,1.2300776243209839,0.49938103556632996,-0.26157915592193604
1789620292428416800,4.923416748046875,1.0561891794204712,0.39743390679359436,-0.30800125002861023
1789620292438388700,4.933388671875,0.8814730048179626,0.14179947972297668,-0.435037225484848
1789620292448359700,4.943359619140625,0.6880801320075989,-0.030166691169142723,-0.5149118304252625
1789620292458332000,4.953331787109375,0.5143775939941406,-0.17037945985794067,-0.5049962997436523
1789620292468302800,4.963302734375,0.3524896204471588,-0.328042596578598,-0.4413885772228241
1789620292478274800,4.97327490234375,0.25978177785873413,-0.4715915024280548,-0.34040629863739014
1789620292488245800,4.983245849609375,0.07477650046348572,-0.319379061460495,-0.24791473150253296
1789620292498217700,4.9932177734375,-0.10319642722606659,-0.17886988818645477,-0.19577962160110474
1789620292508188700,5.003188720703125,-0.26649346947669983,-0.34493687748908997,-0.1468038260936737
1789620292518161000,5.013160888671875,-0.40620502829551697,-0.35912778973579407,-0.004282096866518259
1789620292528131800,5.0231318359375,-0.5079870820045471,-0.33247676491737366,0.13496820628643036
1789620292538103800,5.033103759765625,-0.6045569777488708,-0.2366383671760559,0.23745809495449066
1789620292548074800,5.04307470703125,-0.656919002532959,-0.1496930867433548,0.27861112356185913
1789620292558046000,5.0530458984375,-0.6843200325965881,-0.05032282695174217,0.25162211060523987
1789620292568017700,5.063017578125,-0.6265690922737122,-0.07856245338916779,0.1715528517961502
1789620292577988900,5.07298876953125,-0.5034357309341431,-0.3992515206336975,0.06083458662033081
1789620292587960800,5.0829609375,-0.4461921453475952,-0.8798863291740417,0.035540416836738586
1789620292597931800,5.092931884765625,-0.4174337089061737,-0.9577779173851013,0.18928709626197815
1789620292607903700,5.10290380859375,-0.43121397495269775,-0.6520334482192993,0.4439212679862976
1789620292617875000,5.112875,-0.5016452670097351,-0.5387985110282898,0.6279140114784241
1789620292627846700,5.1228466796875,-0.4971570372581482,-0.7920483350753784,0.6438114643096924
1789620355228042200,67.72304223632813,0.6631321907043457,-0.20581547915935516,0.09149902313947678
1789620355238013200,67.73301318359376,0.6094393730163574,-0.3819497525691986,0.37064412236213684
1789620355247984000,67.74298413085937,0.5603170990943909,-0.45785996317863464,0.5892810821533203
1789620355257955300,67.75295532226562,0.515331506729126,-0.43724924325942993,0.7633546590805054
1789620355267926300,67.76292626953125,0.47249749302864075,-0.22991229593753815,0.9258740544319153
1789620355277897500,67.7728974609375,0.40025046467781067,0.07713819295167923,1.0699100494384766
1789620355287868200,67.7828681640625,0.3061266243457794,0.30347466468811035,1.174863338470459
1789620355297839000,67.79283911132812,0.20510521531105042,0.4187442660331726,1.2152084112167358
1789620355307810300,67.80281030273437,0.10229308158159256,0.46251678466796875,1.209760069847107
1789620355317781200,67.81278125,-0.01684183068573475,0.5130172371864319,1.1659246683120728
1789620355327752400,67.82275244140625,-0.15160976350307465,0.5889900326728821,1.0812619924545288
1789620355337723100,67.83272314453124,-0.2740296721458435,0.6335234045982361,0.9280527830123901
1789620355347694000,67.84269409179687,-0.3516903817653656,0.5022937655448914,0.683225154876709
1789620355357665300,67.85266528320312,-0.3878720998764038,0.1768493354320526,0.326740026473999
1789620355367636200,67.86263623046875,-0.38339880108833313,-0.17818278074264526,-0.11616921424865723
1789620355377607400,67.872607421875,-0.3488392233848572,-0.3397202789783478,-0.5625908970832825
1789620355387578400,67.88257836914063,-0.2849947214126587,-0.21883593499660492,-0.938147783279419
1789620355397549000,67.89254907226562,-0.20841312408447266,0.010587663389742374,-1.2290592193603516
1789620355407520300,67.90252026367187,-0.13795866072177887,0.13807478547096252,-1.4395192861557007
1789620355417491200,67.9124912109375,-0.08157848566770554,0.1330922693014145,-1.5315418243408203
1789620355427462400,67.92246240234375,-0.03954767435789108,0.09988398849964142,-1.4786370992660522
1789620355437433300,67.93243334960937,0.03370443359017372,0.13204032182693481,-1.2934600114822388
1789620355447404300,67.942404296875,0.11229005455970764,0.24445022642612457,-1.0110946893692017
1789620355457375200,67.95237524414063,0.184588223695755,0.33616068959236145,-0.6814509630203247
1789620355467346200,67.96234619140625,0.24935683608055115,0.252734512090683,-0.33193346858024597
1789620355477317400,67.9723173828125,0.331704705953598,-0.010134126991033554,0.021751634776592255
1789620355487288300,67.98228833007812,0.43566811084747314,-0.22472019493579865,0.38136014342308044
1789620355497259300,67.99225927734375,0.5303594470024109,-0.24909451603889465,0.7400173544883728
1789620355507230200,68.00223022460938,0.5981268286705017,-0.1283385306596756,1.0452265739440918
1789620355517201200,68.012201171875,0.6255919933319092,0.003975034225732088,1.243452787399292
1789620355527173400,68.02217333984375,0.627393901348114,0.025239042937755585,1.3086837530136108
1789620355537144000,68.03214404296875,0.615974485874176,-0.06704507768154144,1.247088074684143
1789620355547114500,68.04211450195312,0.5681848526000977,-0.18245209753513336,1.1109970808029175
1789620355557086200,68.05208618164062,0.4872753918170929,-0.1822046935558319,0.9700146317481995
1789620355567057400,68.06205737304687,0.39565518498420715,0.00820839498192072,0.8726630210876465
1789620355577028400,68.0720283203125,0.29317328333854675,0.304621160030365,0.8095362782478333
1789620355586999300,68.08199926757813,0.18644684553146362,0.5597416162490845,0.7327783703804016
1789620355596970200,68.09197021484376,0.08093772828578949,0.6072694063186646,0.5988200306892395
1789620355606941200,68.10194116210937,0.002537992550060153,0.38864174485206604,0.3761954605579376
1789620355616912400,68.11191235351562,-0.042872633785009384,0.002487126039341092,0.07083582133054733
1789620355626883300,68.12188330078125,-0.0637345016002655,-0.30392393469810486,-0.25234755873680115
1789620355636854300,68.13185424804688,-0.07856245338916779,-0.2916233241558075,-0.4997347295284271
1789620355646825200,68.1418251953125,-0.10078573226928711,0.05991899222135544,-0.6149547696113586
1789620355656796200,68.15179614257812,-0.15704794228076935,0.4799697995185852,-0.630981981754303
1789620355666767400,68.16176733398437,-0.23694489896297455,0.6502805352210999,-0.6316671967506409
1789620355676738300,68.17173828125,-0.285831481218338,0.43175753951072693,-0.6778938174247742
1789620355686709200,68.18170922851563,-0.24377191066741943,-0.010265154764056206,-0.7602736353874207
1789620355696680200,68.19168017578124,-0.10981651395559311,-0.32502949237823486,-0.8055665493011475
1789620355706651100,68.20165112304687,0.06312916427850723,-0.31091633439064026,-0.7463109493255615
1789620355716622300,68.21162231445312,0.21553760766983032,-0.10803671926259995,-0.6130924224853516
1789620355726593300,68.22159326171875,0.3210725486278534,-0.004382497631013393,-0.49089035391807556
1789620355736564200,68.23156420898438,0.3941664695739746,-0.13630670309066772,-0.4163365066051483
1789620355746535200,68.24153515625,0.4543360769748688,-0.3607802987098694,-0.3706023097038269
1789620355756506000,68.25150610351562,0.5013512372970581,-0.453383207321167,-0.31345218420028687
1789620355766477000,68.26147705078125,0.5297525525093079,-0.3330485224723816,-0.21442921459674835
1789620355776448300,68.2714482421875,0.5324340462684631,-0.055819857865571976,-0.0643979012966156
1789620355786419200,68.28141918945313,0.5036511421203613,0.26325854659080505,0.13026612997055054
1789620355796390100,68.29139013671875,0.44572901725769043,0.5236243605613708,0.34698885679244995
1789620355806361000,68.30136108398438,0.38057345151901245,0.6065831184387207,0.5295419096946716
1789620355816332000,68.31133203125,0.3243948519229889,0.4471447467803955,0.6422657370567322
1789620355826303200,68.32130322265625,0.2962836027145386,0.13426433503627777,0.6786911487579346
1789620355836274200,68.33127416992187,0.2997393012046814,-0.12878701090812683,0.6776970028877258
1789620355846245000,68.3412451171875,0.31109368801116943,-0.15442845225334167,0.6990339756011963
1789620355856216300,68.35121630859375,0.28714069724082947,0.04128805175423622,0.7420597672462463
1789620355866187000,68.36118701171876,0.22026179730892181,0.2384631633758545,0.7538570165634155
1789620355876158200,68.371158203125,0.1509125530719757,0.25530579686164856,0.7065227627754211
1789620355886129200,68.38112915039062,0.10349176824092865,0.12854306399822235,0.6178323030471802
1789620355896100000,68.39110009765625,0.08602969348430634,0.10957629233598709,0.5633845329284668
1789620355906071300,68.4010712890625,0.06674600392580032,0.3826536238193512,0.5893913507461548
1789620355916042000,68.4110419921875,-0.020687701180577278,0.8499984741210938,0.6699234843254089
1789620355926013200,68.42101318359374,-0.14480192959308624,1.1827037334442139,0.7166614532470703
1789620355935984000,68.43098413085937,-0.2727758586406708,1.1233807802200317,0.6435526013374329
1789620355945955000,68.440955078125,-0.3824874460697174,0.561349093914032,0.39208149909973145
1789620355955926300,68.45092626953125,-0.4477788507938385,-0.2622995376586914,-0.01805862970650196
1789620355965897000,68.46089697265624,-0.44328317046165466,-0.8375356793403625,-0.4847642779350281
1789620355975868200,68.4708681640625,-0.39232009649276733,-0.9032438397407532,-0.9448690414428711
1789620355985839000,68.48083911132812,-0.31875935196876526,-0.6558265686035156,-1.3911397457122803
1789620355995811300,68.49081127929688,-0.23824505507946014,-0.4161900281906128,-1.794923186302185
1789620356005782000,68.50078198242187,-0.12707673013210297,-0.2692945897579193,-2.100139617919922
1789620356015753000,68.5107529296875,0.029889987781643867,-0.1217259019613266,-2.247746706008911
1789620356025724200,68.52072412109375,0.2120792269706726,0.12127156555652618,-2.1967415809631348
1789620356035695000,68.53069506835938,0.37435469031333923,0.4267449378967285,-1.9440652132034302
1789620356045666300,68.54066625976563,0.46071353554725647,0.6969228982925415,-1.5333455801010132
1789620356055637200,68.55063720703124,0.4346345365047455,0.8565548658370972,-1.0273871421813965
1789620356065608000,68.56060791015625,0.33636364340782166,0.8123922348022461,-0.5274955034255981
1789620356075579100,68.5705791015625,0.23834200203418732,0.4994862377643585,-0.14817722141742706
1789620356085550000,68.58055004882813,0.16949155926704407,0.034867171198129654,0.062125690281391144
1789620356095521300,68.59052124023438,0.14461976289749146,-0.3077727258205414,0.17036694288253784
1789620356105492200,68.6004921875,0.20188093185424805,-0.27710244059562683,0.2734192907810211
1789620356115463200,68.61046313476562,0.30209487676620483,0.07346489280462265,0.3948165476322174
1789620356125434000,68.62043408203125,0.4171229302883148,0.46460071206092834,0.5102208852767944
1789620356135405000,68.63040502929688,0.5001192688941956,0.6762426495552063,0.5908478498458862
1789620356145376300,68.64037622070313,0.5075260400772095,0.6031284928321838,0.6153907179832458
1789620356155347200,68.65034716796875,0.4461929202079773,0.31444182991981506,0.5725841522216797
1789620356165318100,68.66031811523438,0.32278844714164734,-0.03650740906596184,0.45622798800468445
1789620356175289000,68.6702890625,0.172634094953537,-0.25562217831611633,0.2891868054866791
1789620356185260000,68.68026000976562,0.039930637925863266,-0.24097293615341187,0.09876572340726852
1789620356195231200,68.69023120117187,-0.04352777078747749,-0.03906138241291046,-0.09457284212112427
1789620356205202200,68.7002021484375,-0.07036657631397247,0.250936359167099,-0.25911492109298706
1789620356215173000,68.71017309570313,-0.050462108105421066,0.5548299551010132,-0.34321755170822144
1789620356225144000,68.72014404296876,-0.012464126572012901,0.7926185131072998,-0.32061582803726196
1789620356235115000,68.73011499023437,0.023914653807878494,0.8670634627342224,-0.2048969566822052
1789620356245086200,68.74008618164062,0.054184939712285995,0.7283079624176025,-0.04135196655988693
1789620356255057200,68.75005712890625,0.10865430533885956,0.4644795358181,0.13691870868206024
1789620356265028400,68.7600283203125,0.20303034782409668,0.22117845714092255,0.315341979265213
1789620356274999000,68.7699990234375,0.3184211254119873,0.14332520961761475,0.5069987773895264
1789620356284970000,68.77996997070312,0.41736900806427,0.2250427007675171,0.7204412817955017
1789620356294941200,68.78994116210937,0.470491886138916,0.2801547050476074,0.9171394109725952
1789620356304912100,68.799912109375,0.4997224807739258,0.1254657804965973,1.0327479839324951
1789620356314884000,68.80988403320312,0.5075175166130066,-0.27676475048065186,1.0170822143554688
1789620356324855000,68.81985498046875,0.5027496814727783,-0.7410866022109985,0.8917024731636047
1789620356334826200,68.829826171875,0.49399399757385254,-0.9678747653961182,0.7144938707351685
1789620356344797200,68.83979711914063,0.4822164475917816,-0.8759533762931824,0.5140340328216553
1789620356354768100,68.84976806640626,0.4448552131652832,-0.6103357672691345,0.2955336570739746
1789620356364739000,68.85973901367187,0.36110731959342957,-0.32074791193008423,0.07923809438943863
1789620356374710000,68.8697099609375,0.24777384102344513,-0.09447909891605377,-0.10695946961641312
1789620356384681200,68.87968115234375,0.1310107409954071,0.04096900299191475,-0.2435775101184845
1789620356394652200,68.88965209960938,0.038178279995918274,0.160513773560524,-0.31902697682380676
1789620356404623000,68.899623046875,0.002630670554935932,0.32314610481262207,-0.31713080406188965
1789620356414594000,68.90959399414062,0.0027377295773476362,0.4949607253074646,-0.22722943127155304
1789620356424565000,68.91956494140625,0.014305968768894672,0.6078465580940247,-0.05880286172032356
1789620356434536200,68.9295361328125,0.02678420953452587,0.6323529481887817,0.1607595831155777
1789620356444507100,68.93950708007813,0.03301654011011124,0.555812656879425,0.383556991815567
1789620356454478000,68.94947802734374,0.027031084522604942,0.3585951626300812,0.5537002086639404
1789620356464449300,68.95944921875,0.026585537940263748,0.06556329876184464,0.6155436038970947
1789620356474420000,68.969419921875,0.037103161215782166,-0.23348332941532135,0.5380802154541016
1789620356484391200,68.97939111328125,0.0793912261724472,-0.47665897011756897,0.3202435076236725
1789620356494362000,68.98936206054688,0.13775627315044403,-0.5976026654243469,0.002697515767067671
1789620356504333300,68.99933325195312,0.1929502785205841,-0.5418696403503418,-0.3309291899204254
1789620356514304300,69.00930419921875,0.24734774231910706,-0.3109128773212433,-0.6100894808769226
1789620356524275000,69.01927490234375,0.2803829312324524,0.01648256927728653,-0.7971235513687134
1789620356534246100,69.02924609375,0.28522536158561707,0.3205689489841461,-0.873891294002533
1789620356544217000,69.03921704101562,0.26589933037757874,0.513831615447998,-0.8518173694610596
1789620356554188300,69.04918823242187,0.23516377806663513,0.5865321755409241,-0.7404546737670898
1789620356564160000,69.05915991210938,0.21118547022342682,0.5593106746673584,-0.5504210591316223
1789620356574131200,69.06913110351563,0.20958144962787628,0.4885275959968567,-0.30668404698371887
1789620356584102100,69.07910205078124,0.24923193454742432,0.44337981939315796,-0.03045697510242462
1789620356594073000,69.08907299804687,0.30764544010162354,0.45050379633903503,0.2693345248699188
1789620356604044300,69.09904418945312,0.36776548624038696,0.4844692051410675,0.575396716594696
1789620356614015000,69.10901489257813,0.40095433592796326,0.5094006657600403,0.8451075553894043
1789620356623986200,69.11898608398438,0.4118829071521759,0.46198201179504395,1.0275287628173828
1789620356633957000,69.12895703125,0.40674352645874023,0.3077101409435272,1.091103196144104
1789620356643928000,69.13892797851562,0.3996722996234894,0.042932819575071335,1.0093092918395996
1789620356653899300,69.14889916992188,0.3958096504211426,-0.24047385156154633,0.8059758543968201
1789620356663870200,69.1588701171875,0.38362622261047363,-0.3529585897922516,0.5480607151985168
1789620356673841200,69.16884106445312,0.33580756187438965,-0.22473643720149994,0.2976170480251312
1789620356683812000,69.17881201171875,0.263712078332901,0.047622911632061005,0.07678426057100296
1789620356693783000,69.18878295898438,0.19933520257472992,0.3794029951095581,-0.09385298937559128
1789620356703754200,69.19875415039063,0.14820091426372528,0.7095457315444946,-0.17469431459903717
1789620356713725200,69.20872509765626,0.09683147072792053,0.980284571647644,-0.14617185294628143
1789620356723696000,69.21869604492187,0.019828565418720245,1.152304768562317,-0.027462782338261604
1789620356733666800,69.22866674804688,-0.0828418880701065,1.1412752866744995,0.12107529491186142
1789620356743638000,69.23863793945313,-0.20221461355686188,0.9633346199989319,0.3342248499393463
1789620356753610200,69.2486103515625,-0.23957344889640808,0.42789673805236816,0.384156197309494
1789620356763581000,69.25858081054687,-0.16287653148174286,-0.07125020772218704,0.2898334264755249
1789620356773551900,69.2685517578125,-0.07286594808101654,-0.2705540060997009,0.13712643086910248
1789620356783523000,69.27852319335938,0.011942679062485695,-0.1733291745185852,-0.04737257584929466
1789620356793494000,69.28849389648437,0.09109821915626526,0.06029077246785164,-0.2643594741821289
1789620356803465200,69.29846533203126,0.1466914415359497,0.24035002291202545,-0.478680819272995
1789620356813436000,69.30843579101563,0.1721011847257614,0.2959805130958557,-0.6455832719802856
1789620356823406800,69.31840673828125,0.16937410831451416,0.31402158737182617,-0.7098602652549744
1789620356833378000,69.3283779296875,0.1461377739906311,0.29754140973091125,-0.6990078687667847
