time,seconds_elapsed,z,y,x
1789620287576703700,0.071703857421875,-0.016242558136582375,0.3402567207813263,-0.846567690372467
1789620287586675000,0.081675048828125,0.013193362392485142,0.432782918214798,-0.992276132106781
1789620287596647000,0.09164697265625,0.06934398412704468,0.42996183037757874,-1.1195566654205322
1789620287606617900,0.101617919921875,0.10599040985107422,0.4622720777988434,-1.164615273475647
1789620287616588800,0.1115888671875,0.14404843747615814,0.4671519100666046,-1.133655071258545
1789620287626561000,0.12156103515625,0.20345743000507355,0.46099334955215454,-1.0659263134002686
1789620287636531700,0.13153173828125,0.2927978038787842,0.5064120292663574,-0.9971182942390442
1789620287646503000,0.1415029296875,0.3860537111759186,0.49899324774742126,-0.9949765801429749
1789620287656475000,0.151474853515625,0.5212636590003967,0.5343669056892395,-1.050398588180542
1789620287666447000,0.161447021484375,0.7226223349571228,0.7880141139030457,-1.1090168952941895
1789620287676419000,0.171419189453125,0.887339174747467,1.0287628173828125,-1.1685962677001953
1789620287686390300,0.181390380859375,0.9336355924606323,1.234389305114746,-1.2215089797973633
1789620287696361000,0.19136083984375,0.8440234065055847,1.4765082597732544,-1.2271960973739624
1789620287706333200,0.201333251953125,0.6544367074966431,1.7062413692474365,-1.1466245651245117
1789620287716304100,0.21130419921875,0.600061297416687,1.801452875137329,-0.916344404220581
1789620287726275000,0.221275146484375,0.5517118573188782,1.9647084474563599,-0.5793575644493103
1789620287736247000,0.2312470703125,0.489763468503952,1.874123215675354,-0.12703250348567963
1789620287746218000,0.241218017578125,0.4174860715866089,1.5267213582992554,0.4026350975036621
1789620287756189200,0.251189208984375,0.15671637654304504,1.0112656354904175,0.8993916511535645
1789620287766161000,0.261160888671875,-0.43728089332580566,0.1972493976354599,1.1375337839126587
1789620287776132000,0.271132080078125,-1.038010835647583,-0.7897153496742249,1.0345730781555176
1789620287786104000,0.28110400390625,-1.5249933004379272,-1.514309048652649,0.8113805055618286
1789620287796075000,0.291074951171875,-1.8353921175003052,-1.9204354286193848,0.5695903897285461
1789620287806046000,0.3010458984375,-1.6814507246017456,-2.734706163406372,0.22012481093406677
1789620287816018200,0.31101806640625,-1.3914421796798706,-3.8892173767089844,-0.0529593788087368
1789620287825989000,0.320989013671875,-1.1450351476669312,-4.740678310394287,-0.0704163908958435
1789620287835960000,0.3309599609375,-0.99223792552948,-5.5185723304748535,0.0037619511131197214
1789620287845932000,0.34093212890625,-1.0902949571609497,-5.627601146697998,-0.09417952597141266
1789620287855903200,0.3509033203125,-1.5922355651855469,-3.820524215698242,-0.4431664049625397
1789620287865874200,0.360874267578125,-1.6888883113861084,-2.4618771076202393,-0.5142797231674194
1789620287875846100,0.37084619140625,-1.4837080240249634,-1.5568382740020752,-0.452176570892334
1789620287885817000,0.380817138671875,-1.2320939302444458,-0.6928730607032776,-0.3696361482143402
1789620287895789000,0.3907890625,-0.963735044002533,-0.19501996040344238,-0.2660562992095947
1789620287905760000,0.400760009765625,-0.6816897988319397,-0.022207707166671753,-0.1841105967760086
1789620287915731000,0.41073095703125,-0.10286901891231537,-0.19193851947784424,-0.17617101967334747
1789620287925703200,0.420703125,0.6886317729949951,-0.8368493318557739,-0.26193681359291077
1789620287935673900,0.430673828125,0.9744707345962524,-1.9240168333053589,-0.3763805627822876
1789620287945645000,0.44064501953125,0.9264428019523621,-2.907428026199341,-0.41914108395576477
1789620287955617000,0.450616943359375,1.0351018905639648,-3.170990467071533,-0.27809804677963257
1789620287965588000,0.460587890625,1.2691991329193115,-2.480955123901367,0.09077241271734238
1789620287975559000,0.470558837890625,1.4172862768173218,-2.2334063053131104,0.5058543086051941
1789620287985531100,0.48053125,1.2642852067947388,-1.2380330562591553,0.8797615766525269
1789620287995502000,0.490502197265625,0.9764829874038696,-0.6284551024436951,1.1746543645858765
1789620288005474000,0.50047412109375,0.5456746220588684,-0.4050942063331604,1.1486371755599976
1789620288015445000,0.510445068359375,0.12695756554603577,-0.6529582738876343,0.7004602551460266
1789620288025416200,0.520416259765625,-0.02044546604156494,-0.6280853748321533,0.20403429865837097
1789620288035388000,0.530387939453125,0.05849070847034454,-0.34487587213516235,-0.1327194720506668
1789620288045359000,0.540359130859375,0.18872860074043274,-0.09590999782085419,-0.3752325177192688
1789620288055330000,0.550330078125,0.21077857911586761,-0.06620962917804718,-0.5161632895469666
1789620288065302000,0.560302001953125,0.16066507995128632,-0.12621863186359406,-0.50582355260849
1789620288075273000,0.57027294921875,0.1263686865568161,-0.11247619241476059,-0.3386435806751251
1789620288085244000,0.580243896484375,0.062080249190330505,-0.1989399790763855,-0.09165987372398376
1789620288095216000,0.590216064453125,-0.0704406276345253,-0.42074891924858093,0.12883245944976807
1789620288105186800,0.600186767578125,-0.16404274106025696,-0.729061484336853,0.22811004519462585
1789620288115159000,0.610158935546875,-0.1378382444381714,-0.8701221942901611,0.2386656403541565
1789620288125130200,0.620130126953125,0.10145103186368942,-0.8016563057899475,0.18698593974113464
1789620288135101200,0.63010107421875,0.2993949055671692,-0.5875305533409119,-0.0007316735573112965
1789620288145073200,0.6400732421875,0.2550133168697357,-0.4168946146965027,-0.17875546216964722
1789620288155044000,0.650044189453125,0.1268901824951172,-0.32189178466796875,-0.2873378098011017
1789620288165015000,0.66001513671875,-0.01494152657687664,-0.08101712167263031,-0.3797968924045563
1789620288174987000,0.669987060546875,-0.06028451770544052,0.03671015053987503,-0.3918814957141876
1789620288184958000,0.6799580078125,-0.008924390189349651,0.0628884881734848,-0.36727389693260193
1789620288194929200,0.68992919921875,0.030019327998161316,0.07453592866659164,-0.3612712621688843
1789620288204900900,0.69990087890625,0.06943570822477341,0.10130336135625839,-0.3264850676059723
1789620288214872000,0.7098720703125,0.1064615473151207,0.13836200535297394,-0.22981327772140503
1789620288224844000,0.719843994140625,0.08356315642595291,0.06996536254882812,-0.11780684441328049
1789620288234815200,0.729815185546875,0.030043579638004303,-0.040336962789297104,-0.02347906306385994
1789620288244786000,0.739785888671875,0.03003079630434513,-0.07003520429134369,0.04841776564717293
1789620288254758100,0.749758056640625,0.047684092074632645,-0.07503049075603485,0.11936996877193451
1789620288264729000,0.75972900390625,0.0712709128856659,-0.06974811106920242,0.22889353334903717
1789620288274700300,0.7697001953125,0.08065392076969147,-0.05511372163891792,0.3922893702983856
1789620288284672000,0.779672119140625,0.06908515095710754,-0.11804822087287903,0.6026133298873901
1789620288294643200,0.789643310546875,0.09444847702980042,-0.38510775566101074,0.8191613554954529
1789620288304614100,0.7996142578125,0.17562563717365265,-0.7873175740242004,0.9635432958602905
1789620288314586000,0.809586181640625,0.27483445405960083,-1.1594414710998535,1.01591157913208
1789620288324557000,0.81955712890625,0.34846365451812744,-1.470233678817749,1.0044575929641724
1789620288334529300,0.829529296875,0.37132126092910767,-1.4435538053512573,0.8073974847793579
1789620288344500000,0.8395,0.3641490936279297,-1.2767517566680908,0.6785351037979126
1789620288354471000,0.849470947265625,0.4506082832813263,-1.174759864807129,0.5303778052330017
1789620288364443100,0.859443115234375,0.5837751030921936,-1.0980675220489502,0.3859441876411438
1789620288374414000,0.8694140625,0.7868321537971497,-1.0804091691970825,0.30949896574020386
1789620288384385000,0.879385009765625,1.042176365852356,-1.265299677848816,0.3153872489929199
1789620288394357000,0.88935693359375,1.2975949048995972,-1.6664434671401978,0.4369795024394989
1789620288404328200,0.899328125,1.5467013120651245,-2.2421486377716064,0.6460381746292114
1789620288414300000,0.9092998046875,1.8303189277648926,-2.9721791744232178,0.8964368104934692
1789620288424271000,0.91927099609375,2.122537612915039,-3.8126444816589355,1.1563628911972046
1789620288434242000,0.929241943359375,2.45371413230896,-4.585904598236084,1.408413052558899
1789620288444214000,0.939214111328125,2.829030752182007,-5.180877685546875,1.6120320558547974
1789620288454185000,0.94918505859375,3.2344202995300293,-5.459831237792969,1.7363934516906738
1789620288464156200,0.95915625,3.666255474090576,-5.404361248016357,1.742117166519165
1789620288474128100,0.969128173828125,4.138796806335449,-5.189188480377197,1.5571956634521484
1789620288484099000,0.97909912109375,4.633388042449951,-4.950981140136719,1.2330906391143799
1789620288494071000,0.989071044921875,5.134355068206787,-4.854828357696533,0.8861898183822632
1789620288504042200,0.999042236328125,5.632134914398193,-5.00877571105957,0.5893504023551941
1789620288514013000,1.009012939453125,6.107124328613281,-5.219050884246826,0.3834688663482666
1789620288523985200,1.018985107421875,6.56652307510376,-5.430739879608154,0.3905496597290039
1789620288533956000,1.0289560546875,7.093353271484375,-5.532852649688721,0.6059117317199707
1789620288543927000,1.038927001953125,7.436096668243408,-5.237082004547119,0.853137731552124
1789620288553899000,1.04889892578125,7.768389701843262,-4.6042094230651855,1.0429744720458984
1789620288563870000,1.058869873046875,8.07246208190918,-3.9729628562927246,1.092785120010376
1789620288573841200,1.068841064453125,8.279212951660156,-3.947559118270874,1.069754958152771
1789620288583812900,1.078812744140625,8.194799423217773,-3.70888352394104,0.8219362497329712
1789620288593784000,1.0887841796875,7.721045970916748,-3.330423355102539,0.3655896782875061
1789620288603756000,1.098756103515625,6.907918453216553,-3.123326063156128,0.07676719129085541
1789620288613727000,1.10872705078125,6.167819499969482,-2.81386137008667,0.305867463350296
1789620288623698000,1.118697998046875,5.802667140960693,-1.9664015769958496,0.9117949604988098
1789620288633670100,1.128670166015625,5.656721115112305,-0.8040172457695007,1.576000452041626
1789620288643641000,1.13864111328125,5.655921936035156,0.2514933943748474,1.6409512758255005
1789620288653612000,1.148612060546875,5.651908874511719,1.4622026681900024,1.2193342447280884
1789620288663584000,1.158583984375,5.14133882522583,3.2252018451690674,0.35556450486183167
1789620288673554000,1.168553955078125,3.3888514041900635,3.7949235439300537,-0.6675787568092346
1789620288683524900,1.17852490234375,1.3454664945602417,2.29667592048645,-1.3953269720077515
1789620288693496800,1.188496826171875,-0.11949263513088226,0.6360570192337036,-1.6632214784622192
1789620288703467800,1.1984677734375,-0.4582264721393585,0.18407222628593445,-1.4298723936080933
1789620288713440000,1.20843994140625,0.03191525861620903,0.6572854518890381,-0.7730260491371155
1789620288723411000,1.218410888671875,0.40935787558555603,1.3073002099990845,-0.3461327850818634
1789620288733382000,1.2283818359375,0.24776999652385712,0.7724228501319885,0.21301603317260742
1789620288743353900,1.238353759765625,-0.02294006012380123,-0.8522478938102722,1.2475539445877075
1789620288753325000,1.248324951171875,-0.19097284972667694,-1.9799398183822632,1.9436825513839722
1789620288763296000,1.2582958984375,-0.1691112220287323,-2.914695978164673,2.713097095489502
1789620288773268000,1.26826806640625,-0.06358026713132858,-3.1328439712524414,3.4968390464782715
1789620288783239000,1.278239013671875,0.05501721799373627,-2.332165002822876,2.906371831893921
1789620288793211000,1.2882109375,0.40304872393608093,-0.4404905438423157,1.312735915184021
1789620288803181800,1.298181884765625,0.43948104977607727,1.2164475917816162,-0.21838676929473877
1789620288813152800,1.30815283203125,-0.017465021461248398,1.5757547616958618,-0.6259546279907227
1789620288823125000,1.318125,-0.5354466438293457,0.8525673151016235,-0.30335021018981934
1789620288833095700,1.328095703125,-0.7254869937896729,0.08030950278043747,0.13132984936237335
1789620288843067000,1.33806689453125,-0.944237470626831,-0.37709587812423706,0.427854984998703
1789620288853038800,1.348038818359375,-1.1340051889419556,-0.7031858563423157,0.6729762554168701
1789620288863010000,1.358010009765625,-1.2416144609451294,-0.7883082032203674,0.747329592704773
1789620288872981800,1.367981689453125,-1.454294204711914,-0.7454236149787903,0.5866738557815552
1789620288882953000,1.377952880859375,-1.7290767431259155,-0.846094012260437,0.37393471598625183
1789620288892924000,1.387923828125,-1.9129012823104858,-1.155718445777893,0.26334208250045776
1789620288902895900,1.397895751953125,-2.0404014587402344,-1.5114198923110962,0.25976863503456116
1789620288912866800,1.40786669921875,-1.9779667854309082,-1.3178256750106812,0.41213542222976685
1789620288922838000,1.417838134765625,-2.1217191219329834,-0.9887872338294983,0.3760394752025604
1789620288932809700,1.427809814453125,-2.3546159267425537,-1.0958271026611328,0.522036612033844
1789620288942781000,1.437781005859375,-2.542207717895508,-1.153710126876831,0.570673406124115
1789620288952753000,1.4477529296875,-3.3561606407165527,-1.504833459854126,-0.060525842010974884
1789620288962724000,1.45772412109375,-4.264058589935303,-1.2556567192077637,0.046397410333156586
1789620288972694800,1.46769482421875,-4.165961265563965,-0.5955305099487305,0.3431149423122406
1789620288982667000,1.4776669921875,-2.7832281589508057,-0.26575177907943726,0.876083493232727
1789620288992638000,1.487637939453125,-1.3654425144195557,-0.2779216170310974,1.2512670755386353
1789620289002609000,1.49760888671875,-0.8030140995979309,-0.5410429835319519,1.1318941116333008
1789620289012580900,1.507580810546875,-0.8611872792243958,-0.4849107563495636,0.7072338461875916
1789620289022551800,1.5175517578125,-0.9762573838233948,0.0036296378821134567,0.16705265641212463
1789620289032523800,1.527523681640625,-0.939943253993988,0.6811524629592896,-0.35125115513801575
1789620289042494700,1.53749462890625,-0.8258745074272156,1.216456413269043,-0.8218311667442322
1789620289052466000,1.5474658203125,-0.44078174233436584,1.9224399328231812,-1.2662619352340698
1789620289062438000,1.55743798828125,0.07345280051231384,2.6216273307800293,-1.6822892427444458
1789620289072408800,1.567408935546875,0.3699774444103241,2.5850307941436768,-1.6545196771621704
1789620289082381000,1.577381103515625,0.43871042132377625,1.6942862272262573,-1.2638965845108032
1789620289092352000,1.58735205078125,0.5893770456314087,0.8707729578018188,-1.0223133563995361
1789620289102323000,1.597322998046875,0.3815716505050659,0.9528324007987976,-1.077095627784729
1789620289112295000,1.607294921875,-0.12997467815876007,1.3950687646865845,-1.282230019569397
1789620289122265900,1.617265869140625,-0.4835713505744934,1.7855254411697388,-1.5083215236663818
1789620289132237000,1.627237060546875,-1.160740852355957,2.522613286972046,-1.365619421005249
1789620289142208800,1.637208740234375,-1.8926723003387451,2.765106678009033,-1.526136875152588
1789620289152180000,1.647179931640625,-2.0810139179229736,2.4412431716918945,-1.5368273258209229
1789620289162152000,1.65715185546875,-1.706040620803833,1.2485600709915161,-0.5933882594108582
1789620289172123000,1.667122802734375,-0.7143300771713257,-0.5276216268539429,0.5504515171051025
1789620289182093800,1.67709375,-0.4752223789691925,-1.3286306858062744,1.4766570329666138
1789620289192066000,1.687066162109375,-0.5312303304672241,-1.5157548189163208,1.8363224267959595
1789620289202036700,1.69703662109375,-0.3471209704875946,-1.586716651916504,1.8934834003448486
1789620289212008000,1.707008056640625,-0.001500663231126964,-1.7871382236480713,1.6617096662521362
1789620289221980000,1.71697998046875,0.05442278832197189,-1.952428936958313,1.5289900302886963
1789620289231951000,1.726951171875,-0.1752634346485138,-1.7409913539886475,1.3166996240615845
1789620289241922800,1.7369228515625,-0.22032731771469116,-0.9333909749984741,0.8440595865249634
1789620289251894000,1.74689404296875,-0.2515150010585785,-0.2616371512413025,0.4948478937149048
1789620289261865000,1.756864990234375,-0.0803065225481987,0.052322663366794586,0.21936173737049103
1789620289271837000,1.7668369140625,0.7411035299301147,0.2911849915981293,-0.25577759742736816
1789620289281808000,1.776807861328125,1.7328569889068604,0.5370644927024841,-1.0048476457595825
1789620289291780000,1.786780029296875,2.4684810638427734,0.47724807262420654,-1.6303796768188477
1789620289301750800,1.796750732421875,2.9902145862579346,0.4435763955116272,-1.9257944822311401
1789620289311721700,1.8067216796875,3.514727830886841,0.48677051067352295,-1.97153639793396
1789620289321694000,1.81669384765625,3.6357154846191406,0.6942225098609924,-2.252978801727295
1789620289331665000,1.826664794921875,4.248532772064209,1.2646609544754028,-2.4924259185791016
1789620289341636900,1.836636962890625,4.691779613494873,2.127835512161255,-2.636728286743164
1789620289351607800,1.84660791015625,4.21544075012207,2.0749645233154297,-2.3052163124084473
1789620289361579000,1.8565791015625,4.221457481384277,2.6166112422943115,-1.8819148540496826
1789620289371550700,1.86655078125,4.5272955894470215,3.6197519302368164,-2.3568029403686523
1789620289381522000,1.87652197265625,4.2735700607299805,4.5175909996032715,-2.732193946838379
1789620289391492900,1.886492919921875,4.689377784729004,5.498544216156006,-3.064470052719116
1789620289401464800,1.89646484375,4.550756931304932,4.5330610275268555,-2.9207048416137695
1789620289411435800,1.906435791015625,3.99310302734375,4.089236736297607,-2.2776827812194824
1789620289421408000,1.916407958984375,1.535048246383667,1.6713221073150635,-1.6537926197052002
1789620289431379000,1.92637890625,-0.13136273622512817,-0.31649506092071533,-1.0292956829071045
1789620289441350000,1.936349853515625,-0.02603231742978096,-0.8836711049079895,-0.4662712514400482
1789620289451321900,1.94632177734375,-0.1599099189043045,-0.5630716681480408,0.2618407905101776
1789620289461293000,1.95629296875,-0.5645074844360352,0.21994644403457642,0.649264931678772
1789620289471264800,1.9662646484375,-0.9387415647506714,0.6522118449211121,0.9056240320205688
1789620289481236000,1.976236083984375,-1.3005799055099487,1.171680212020874,0.9689659476280212
1789620289491207000,1.98620703125,-1.5456901788711548,1.3715842962265015,1.1070059537887573
1789620289501179000,1.996178955078125,-1.7495841979980469,0.784738302230835,1.2980667352676392
1789620289511149800,2.00614990234375,-1.8916300535202026,0.3305657207965851,1.1290279626846313
1789620289521122000,2.0161220703125,-1.6737595796585083,-0.1901395171880722,1.012840747833252
1789620289531093000,2.026093017578125,-1.6114082336425781,-1.0735530853271484,0.9903224110603333
1789620289541063700,2.036063720703125,-1.8309569358825684,-2.1882262229919434,0.9008870720863342
1789620289551036000,2.046035888671875,-2.156768321990967,-3.141859769821167,0.33608853816986084
1789620289561006800,2.0560068359375,-2.620863199234009,-3.2754769325256348,-0.4568341076374054
1789620289570978800,2.065978759765625,-3.3369228839874268,-3.5574419498443604,-1.3414220809936523
1789620289580949800,2.07594970703125,-2.5441009998321533,-5.620637893676758,-2.5231497287750244
1789620289590921000,2.0859208984375,-0.8171945214271545,-4.316586017608643,-3.2633419036865234
1789620289600892700,2.095892578125,-0.09068469703197479,-1.6501809358596802,-2.9422380924224854
1789620289610863900,2.10586376953125,-0.3361033499240875,-0.22183139622211456,-1.7363064289093018
1789620289620835800,2.1158359375,-0.7423411011695862,0.4072818160057068,-0.06293344497680664
1789620289630807000,2.12580712890625,-0.6645627617835999,0.5423846244812012,0.9496038556098938
1789620289640777700,2.13577783203125,-0.43656477332115173,0.45988282561302185,1.2637807130813599
1789620289650750000,2.14575,-0.3106083273887634,0.29015758633613586,1.0563322305679321
1789620289660721000,2.155720947265625,-0.22463908791542053,0.24808336794376373,0.2538202404975891
1789620289670693000,2.165693115234375,-0.17607849836349487,-0.22278299927711487,-0.6793633699417114
1789620289680664300,2.175664306640625,-0.041316960006952286,-0.5221396088600159,-0.9096248149871826
1789620289690635300,2.18563525390625,0.028520284220576286,-0.5737305879592896,-0.606348991394043
1789620289700607200,2.195607177734375,0.12581275403499603,-0.3966439366340637,-0.3407703638076782
1789620289710578200,2.205578125,0.22944755852222443,-0.15419498085975647,-0.2659924030303955
1789620289720550400,2.21555029296875,0.2731236517429352,0.09494159370660782,-0.10138936340808868
1789620289730521000,2.22552099609375,0.24064722657203674,0.296760618686676,0.3369516432285309
1789620289740493300,2.235493408203125,0.25489649176597595,0.7518996596336365,0.3882366418838501
1789620289750464300,2.24546435546875,0.8720479011535645,1.2088298797607422,-0.05617332085967064
1789620289760435500,2.255435546875,1.1894868612289429,1.5285106897354126,-0.2625297009944916
1789620289770407200,2.2654072265625,0.8041431307792664,1.715588092803955,0.04390972852706909
1789620289780378400,2.27537841796875,0.5416670441627502,1.750335931777954,0.3116988241672516
1789620289790349300,2.285349365234375,0.3287542760372162,1.4221279621124268,0.7316831946372986
1789620289800321300,2.2953212890625,0.17915813624858856,1.362245798110962,1.2768628597259521
1789620289810292200,2.305292236328125,0.4848981201648712,1.1766027212142944,1.4488509893417358
1789620289820264400,2.315264404296875,0.36615124344825745,1.151908278465271,1.9734153747558594
1789620289830235100,2.325235107421875,0.3751066029071808,0.6977249979972839,1.8503764867782593
1789620289840207400,2.335207275390625,0.6264597177505493,0.21417777240276337,0.8418586850166321
1789620289850178300,2.34517822265625,0.5953563451766968,0.2959088087081909,-0.01824973337352276
1789620289860149500,2.3551494140625,0.8510506749153137,-0.2947819232940674,-0.30556830763816833
1789620289870121200,2.365121337890625,1.3264573812484741,-0.3906562030315399,-0.1795618087053299
1789620289880092400,2.375092529296875,1.2887922525405884,0.5681943893432617,-0.20803552865982056
1789620289890064100,2.385064208984375,0.6775127053260803,2.0298588275909424,-0.2950843274593353
1789620289900035300,2.395035400390625,0.38435038924217224,2.1298794746398926,-0.08320510387420654
1789620289910006300,2.40500634765625,0.6854045987129211,1.664379358291626,0.2732784152030945
1789620289919978500,2.414978515625,1.0229439735412598,1.8003579378128052,0.2914701998233795
1789620289929949200,2.42494921875,1.087540864944458,1.9792640209197998,0.12729160487651825
1789620289939921400,2.43492138671875,0.9960799813270569,1.910374402999878,-0.16021554172039032
1789620289949892400,2.444892333984375,0.7873895168304443,1.4522652626037598,-0.6349000334739685
1789620289959863300,2.45486328125,0.9964868426322937,1.0909720659255981,-0.7790294885635376
1789620289969835300,2.464835205078125,1.2018475532531738,0.9278452396392822,-0.7599973678588867
1789620289979806200,2.47480615234375,1.3764289617538452,0.42912331223487854,-0.9366093873977661
1789620289989778200,2.484778076171875,1.5525128841400146,0.0033480266574770212,-1.206236481666565
1789620289999749000,2.4947490234375,1.7449296712875366,-0.19268646836280823,-1.4292488098144531
1789620290009720300,2.50472021484375,2.0110020637512207,-0.4295561909675598,-1.529672384262085
1789620290019692300,2.5146923828125,2.2859444618225098,-0.9801416397094727,-1.480973720550537
1789620290029663200,2.524663330078125,2.409501075744629,-1.2123814821243286,-1.16592276096344
1789620290039635200,2.53463525390625,2.2926242351531982,-0.9911700487136841,-0.8788105845451355
1789620290049606400,2.5446064453125,2.054767370223999,-0.550909698009491,-0.793170690536499
1789620290059578000,2.554578125,1.9203190803527832,-0.1747453808784485,-0.7523334622383118
1789620290069549300,2.56454931640625,1.7659133672714233,0.1452648937702179,-0.6427342295646667
1789620290079520300,2.574520263671875,1.490752100944519,-0.059678658843040466,-0.6656754612922668
1789620290089492200,2.5844921875,1.3001290559768677,-0.416096955537796,-0.6964465975761414
1789620290099463200,2.594463134765625,1.2075117826461792,-0.5589513182640076,-0.6269900798797607
1789620290109435400,2.604435302734375,1.1493651866912842,-0.4640754759311676,-0.5589770674705505
1789620290119406300,2.61440625,1.0715582370758057,-0.1470186859369278,-0.40664616227149963
1789620290129377300,2.624377197265625,0.9066038131713867,0.08984611928462982,-0.2380637526512146
1789620290139349200,2.634349365234375,0.7281829714775085,0.02502184733748436,-0.11446910351514816
1789620290149320400,2.644320556640625,0.5976265668869019,-0.18360908329486847,-0.010666990652680397
1789620290159292200,2.654292236328125,0.48226186633110046,-0.33050158619880676,0.09257844090461731
1789620290169263400,2.664263427734375,0.3484598994255066,-0.3995358347892761,0.14470277726650238
1789620290179234300,2.674234375,0.16110067069530487,-0.33741122484207153,0.13671967387199402
1789620290189206300,2.684206298828125,-0.03801419213414192,-0.10016227513551712,0.11577333509922028
1789620290199177200,2.69417724609375,-0.2204495221376419,0.06151530519127846,0.10805948823690414
1789620290209149400,2.7041494140625,-0.44417306780815125,0.036230869591236115,0.13578350841999054
1789620290219120400,2.714120361328125,-0.6030703186988831,-0.28161394596099854,0.18354223668575287
1789620290229091000,2.724091064453125,-0.6785972118377686,-1.0132098197937012,0.19898344576358795
1789620290239063300,2.734063232421875,-0.620577871799469,-1.6583080291748047,0.23602242767810822
1789620290249034200,2.7440341796875,-0.5226879119873047,-1.9325172901153564,0.2521832287311554
1789620290259006200,2.754006103515625,-0.45959630608558655,-2.0031826496124268,0.16233086585998535
1789620290268977200,2.76397705078125,-0.315483033657074,-1.4380451440811157,0.0920468419790268
1789620290278949400,2.773949462890625,-0.20146749913692474,-0.2238093912601471,0.15142442286014557
1789620290288920000,2.783920166015625,-0.22781242430210114,0.7620605230331421,0.22362661361694336
1789620290298891300,2.793891357421875,-0.2348407804965973,0.9647526144981384,0.18645314872264862
1789620290308863200,2.80386328125,-0.16107870638370514,0.6950383186340332,0.058727409690618515
1789620290318834400,2.81383447265625,-0.1593247354030609,0.07822008430957794,-0.1045595183968544
1789620290328806100,2.82380615234375,-0.20957565307617188,0.021101029589772224,-0.19896018505096436
1789620290338777300,2.83377734375,-0.26648473739624023,0.529669463634491,-0.1283549964427948
1789620290348748300,2.843748291015625,-0.47642284631729126,0.7345351576805115,-0.032867901027202606
1789620290358720300,2.85372021484375,-0.754845917224884,0.5223107933998108,-0.09437812864780426
1789620290368691200,2.863691162109375,-1.0732289552688599,0.22497309744358063,-0.16105464100837708
1789620290378663400,2.873663330078125,-1.4298690557479858,0.09339562803506851,-0.05829310044646263
1789620290388634000,2.883634033203125,-1.6074512004852295,0.2497842162847519,0.11634612828493118
1789620290398606300,2.8936064453125,-1.480158805847168,0.39531344175338745,0.19301187992095947
1789620290408577300,2.903577392578125,-1.216317892074585,0.15514607727527618,0.21203318238258362
1789620290418548200,2.91354833984375,-0.9780094623565674,-0.26089614629745483,0.24100704491138458
1789620290428520200,2.923520263671875,-0.8110682964324951,-0.429963082075119,0.23686270415782928
1789620290438491400,2.933491455078125,-0.6612415313720703,-0.41206955909729004,0.24791933596134186
1789620290448463000,2.943463134765625,-0.5878110527992249,-0.4162100553512573,0.28471556305885315
1789620290458434300,2.953434326171875,-0.6311063170433044,-0.6281723976135254,0.31368380784988403
1789620290468405200,2.9634052734375,-0.8037314414978027,-1.020469069480896,0.2779788672924042
1789620290478377200,2.973377197265625,-0.8601579666137695,-0.968593955039978,0.23108087480068207
1789620290488348200,2.98334814453125,-0.6586463451385498,0.03845876827836037,0.26383888721466064
1789620290498320400,2.9933203125,-0.5605089068412781,1.3426507711410522,0.14774715900421143
1789620290508291300,3.003291259765625,-0.6847268342971802,1.5572417974472046,-0.1311657726764679
1789620290518263300,3.01326318359375,-0.7232308387756348,0.5918513536453247,-0.38951024413108826
1789620290528234200,3.023234130859375,-0.7885860800743103,-0.2961498498916626,-0.5525009632110596
1789620290538205200,3.033205078125,-1.0203425884246826,-0.7619753479957581,-0.5594635605812073
1789620290548177200,3.04317724609375,-1.391966700553894,-1.0596063137054443,-0.526883602142334
1789620290558148400,3.0531484375,-1.69899320602417,-1.3143664598464966,-0.17637217044830322
1789620290568120300,3.063120361328125,-1.632552981376648,-0.9081019759178162,0.11987394094467163
1789620290578091300,3.07309130859375,-1.3967643976211548,-0.03882787749171257,0.033067937940359116
1789620290588063200,3.083063232421875,-1.7684017419815063,0.16371138393878937,-0.09560702741146088
1789620290598034400,3.093034423828125,-2.0002715587615967,0.010434483177959919,0.0027424502186477184
1789620290608005400,3.10300537109375,-1.9443855285644531,-0.1672172099351883,0.2488715797662735
1789620290617977300,3.112977294921875,-1.855178713798523,-0.42401251196861267,0.35042670369148254
1789620290627948300,3.1229482421875,-1.7027027606964111,-0.7951521277427673,0.12420769780874252
1789620290637920300,3.132920166015625,-1.5673526525497437,-1.008571982383728,-0.3596804440021515
1789620290647891200,3.14289111328125,-1.4137227535247803,-1.0748900175094604,-0.760235071182251
1789620290657863400,3.152863525390625,-1.15679931640625,-1.2155230045318604,-0.8180816173553467
1789620290667834600,3.162834716796875,-1.0404527187347412,-1.272662878036499,-0.5453886389732361
1789620290677805300,3.172805419921875,-1.0809258222579956,-1.0160555839538574,-0.2900383770465851
1789620290687777500,3.182777587890625,-1.1287866830825806,-0.5973451733589172,-0.21018636226654053
1789620290697748500,3.19274853515625,-1.0682886838912964,-0.2601572871208191,-0.2068110704421997
1789620290707720400,3.202720458984375,-0.9419444799423218,-0.04028025642037392,-0.1643064171075821
1789620290717691400,3.21269140625,-0.874531090259552,0.1359078288078308,-0.026616454124450684
1789620290727663600,3.22266357421875,-0.8678452968597412,0.22178331017494202,0.16289587318897247
1789620290737634300,3.23263427734375,-0.933981716632843,0.13605321943759918,0.27805495262145996
1789620290747605500,3.24260546875,-0.9617707133293152,-0.22072459757328033,0.28571105003356934
1789620290757577500,3.252577392578125,-0.9192962646484375,-0.770865261554718,0.27928483486175537
1789620290767548700,3.262548583984375,-0.823081374168396,-1.192842721939087,0.26927074790000916
1789620290777520400,3.272520263671875,-0.6606775522232056,-1.3631888628005981,0.24029476940631866
1789620290787491600,3.28249169921875,-0.49707022309303284,-1.3073043823242188,0.2650846838951111
1789620290797463300,3.29246337890625,-0.36275768280029297,-1.1309146881103516,0.35943061113357544
1789620290807434500,3.3024345703125,-0.28091928362846375,-0.8699884414672852,0.43145543336868286
1789620290817405400,3.312405517578125,-0.23219379782676697,-0.4493058919906616,0.43583765625953674
1789620290827377700,3.322377685546875,-0.11516948789358139,0.14619384706020355,0.41799816489219666
1789620290837348400,3.332348388671875,0.059360768646001816,0.5291867852210999,0.48179420828819275
1789620290847320600,3.342320556640625,0.23904049396514893,0.7055330276489258,0.6362519860267639
1789620290857291500,3.35229150390625,0.3587389588356018,0.8561273217201233,0.786723792552948
1789620290867263500,3.362263427734375,0.4179963767528534,1.028114676475525,0.8484949469566345
1789620290877234400,3.372234375,0.4355127811431885,1.052971601486206,0.8840340375900269
1789620290887205600,3.38220556640625,0.49261635541915894,1.0007555484771729,0.8702145218849182
1789620290897177300,3.39217724609375,0.635773241519928,1.049687147140503,0.7859363555908203
1789620290907148500,3.4021484375,0.8065513968467712,1.1659560203552246,0.7271455526351929
1789620290917120500,3.41212060546875,0.889583170413971,0.9174014329910278,0.7278539538383484
1789620290927091700,3.422091796875,0.9543951749801636,0.6422438621520996,0.7286204099655151
1789620290937063400,3.4320634765625,1.0137622356414795,0.5221044421195984,0.5940572619438171
1789620290947034600,3.44203466796875,1.107424259185791,0.5104809403419495,0.4466330409049988
1789620290957005600,3.452005615234375,1.2582323551177979,0.46416643261909485,0.37051883339881897
1789620290966977500,3.4619775390625,1.4110263586044312,0.16568632423877716,0.25430580973625183
1789620290976948500,3.471948486328125,1.5155283212661743,-0.08419941365718842,0.1102791279554367
1789620290986920700,3.481920654296875,1.601466178894043,0.5131740570068359,0.06891869008541107
1789620290996891400,3.491891357421875,1.6301356554031372,1.0310804843902588,0.15272995829582214
1789620291006863600,3.501863525390625,1.5526093244552612,0.9989403486251831,0.2503787577152252
1789620291016834600,3.51183447265625,1.4298388957977295,0.9738773107528687,0.2152620553970337
1789620291026805500,3.521805419921875,1.3977041244506836,1.0289052724838257,0.15730668604373932
1789620291036777500,3.531777587890625,1.4412204027175903,0.9762000441551208,0.06542310118675232
1789620291046748400,3.54174853515625,1.655677318572998,0.5899317264556885,-0.02545563131570816
1789620291056720400,3.551720458984375,1.942764401435852,0.2541869878768921,-0.03863987699151039
1789620291066691300,3.56169140625,2.149341344833374,0.26997026801109314,-0.007564889267086983
1789620291076663600,3.57166357421875,2.2346878051757812,0.5769174695014954,0.04905844107270241
1789620291086634500,3.581634521484375,2.190664291381836,0.9753662347793579,0.06362840533256531
1789620291096605400,3.59160546875,2.0260937213897705,1.2236793041229248,0.002786090597510338
1789620291106577700,3.60157763671875,1.8485718965530396,1.4330207109451294,-0.07750348746776581
1789620291116548600,3.611548583984375,1.723976492881775,1.4758778810501099,-0.15837836265563965
1789620291126520600,3.6215205078125,1.6576238870620728,1.3996151685714722,-0.21627649664878845
1789620291136491500,3.631491455078125,1.6334773302078247,1.3020108938217163,-0.2843479812145233
1789620291146463700,3.641463623046875,1.6369097232818604,1.193439245223999,-0.33884644508361816
1789620291156434400,3.651434326171875,1.5754332542419434,1.0413624048233032,-0.38411885499954224
1789620291166406700,3.66140673828125,1.5552361011505127,0.631115734577179,-0.3580479621887207
1789620291176377600,3.671377685546875,1.6093858480453491,0.17242693901062012,-0.3578175902366638
1789620291186348500,3.6813486328125,1.5539761781692505,-0.0492226742208004,-0.4100622236728668
1789620291196320500,3.691320556640625,1.331958532333374,0.1569185107946396,-0.49005985260009766
1789620291206291500,3.70129150390625,1.1494985818862915,0.6859952807426453,-0.5375884771347046
1789620291216263400,3.711263427734375,1.1601076126098633,1.2169615030288696,-0.6081089973449707
1789620291226234400,3.721234375,1.2283471822738647,1.0460928678512573,-0.6011708378791809
1789620291236206600,3.73120654296875,1.1625255346298218,0.2645503580570221,-0.4566057026386261
1789620291246177500,3.741177490234375,1.0336132049560547,0.06402947008609772,-0.5209769606590271
1789620291256148500,3.7511484375,0.8093724250793457,0.46203917264938354,-0.6619415283203125
1789620291266120400,3.761120361328125,0.6768970489501953,0.7266680598258972,-0.7036108374595642
1789620291276091600,3.771091552734375,0.6192151308059692,0.31935060024261475,-0.656917929649353
1789620291286063400,3.7810634765625,0.5630193948745728,-0.08760666847229004,-0.5954539179801941
1789620291296034600,3.79103466796875,0.5351036190986633,-0.22809693217277527,-0.5944011807441711
1789620291306006500,3.801006591796875,0.5841083526611328,0.015025811269879341,-0.6325680613517761
1789620291315977500,3.8109775390625,0.6402525901794434,0.2201629877090454,-0.5981251001358032
1789620291325949400,3.820949462890625,0.4268048405647278,0.3158642649650574,-0.5575639605522156
1789620291335920600,3.830920654296875,0.24765533208847046,0.1951756477355957,-0.453602135181427
1789620291345891600,3.8408916015625,0.18884147703647614,0.1729949414730072,-0.3401454985141754
1789620291355863600,3.850863525390625,0.1659955531358719,0.1302512139081955,-0.31625133752822876
1789620291365834500,3.86083447265625,0.22506126761436462,-0.010001618415117264,-0.35137778520584106
1789620291375806500,3.870806396484375,0.30407193303108215,-0.3683786690235138,-0.38299325108528137
1789620291385777400,3.88077734375,0.24390992522239685,-0.635166347026825,-0.32437750697135925
1789620291395749600,3.89074951171875,0.14858952164649963,-0.7544962167739868,-0.24082057178020477
1789620291405720600,3.900720458984375,0.08333732932806015,-0.8847808837890625,-0.18566514551639557
1789620291415692500,3.910692626953125,-0.018358401954174042,-0.556747317314148,-0.141379714012146
1789620291425663500,3.92066357421875,-0.08473385125398636,-0.021772896870970726,-0.06792356818914413
1789620291435634700,3.930634765625,-0.10063425451517105,-0.1800173968076706,-0.09160652756690979
1789620291445606400,3.9406064453125,-0.15318536758422852,-0.6309046149253845,-0.05964047834277153
1789620291455577600,3.95057763671875,-0.2807353436946869,-1.0696678161621094,0.13402539491653442
1789620291465549600,3.960549560546875,-0.3602330684661865,-0.9243614077568054,0.3713191747665405
1789620291475520500,3.9705205078125,-0.5217527151107788,-0.4224269390106201,0.41866829991340637
1789620291485492500,3.980492431640625,-0.8108810186386108,-0.051159121096134186,0.35128405690193176
1789620291495463700,3.990463623046875,-1.0589251518249512,0.4535309374332428,0.28904226422309875
1789620291505435400,4.000435302734375,-1.228525161743164,0.5562121868133545,0.20418673753738403
1789620291515406600,4.010406494140625,-1.347109317779541,0.27390697598457336,0.1491117775440216
1789620291525377500,4.02037744140625,-1.4009063243865967,-0.21873831748962402,0.1659395396709442
1789620291535349500,4.030349609375,-1.4120032787322998,-0.7823335528373718,0.1757333129644394
1789620291545320400,4.040320556640625,-1.416873574256897,-1.096819281578064,0.1290501207113266
1789620291555292700,4.050292724609375,-1.448617935180664,-1.2434529066085815,-0.04523194208741188
1789620291565263600,4.060263671875,-1.3588528633117676,-1.1375142335891724,-0.21650207042694092
1789620291575235600,4.070235595703125,-1.1930071115493774,-0.977578341960907,-0.33106914162635803
1789620291585206500,4.08020654296875,-1.0323057174682617,-0.8220223784446716,-0.38734298944473267
1789620291595178500,4.090178466796875,-0.835025429725647,-0.9265477061271667,-0.3552391231060028
1789620291605149400,4.1001494140625,-0.6922245025634766,-1.188169240951538,-0.17636798322200775
1789620291615120400,4.110120361328125,-0.6206725835800171,-1.155387043952942,0.07771062850952148
1789620291625092600,4.120092529296875,-0.7018013000488281,-0.8118870854377747,0.25164711475372314
1789620291635063300,4.130063232421875,-0.8278724551200867,-0.23793911933898926,0.3365987241268158
1789620291645035500,4.140035400390625,-0.7574431896209717,0.09393905103206635,0.36748307943344116
1789620291655006500,4.15000634765625,-0.6553761959075928,0.003677329747006297,0.34460464119911194
1789620291664978400,4.159978515625,-0.753206193447113,-0.1579773873090744,0.28573077917099
1789620291674948600,4.169948486328125,-0.9896416068077087,-0.21181133389472961,0.2646217942237854
1789620291684919800,4.179919921875,-1.2563822269439697,-0.17621776461601257,0.29621976613998413
1789620291694891800,4.189891845703125,-1.416426420211792,-0.18788906931877136,0.2801364064216614
1789620291704862700,4.19986279296875,-1.4544638395309448,-0.14688394963741302,0.17144884169101715
1789620291714834700,4.209834716796875,-1.4932268857955933,-0.056022219359874725,-0.029254436492919922
1789620291724806000,4.219805908203125,-1.5443165302276611,-0.10416099429130554,-0.24620695412158966
1789620291734777600,4.229777587890625,-1.5450359582901,-0.3828094005584717,-0.38188597559928894
1789620291744748800,4.239748779296875,-1.6018153429031372,-0.6406292915344238,-0.35671675205230713
1789620291754720800,4.249720703125,-1.7134870290756226,-0.6151686906814575,-0.2292216271162033
1789620291764691700,4.259691650390625,-1.78729248046875,-0.5021050572395325,-0.15781806409358978
1789620291774663700,4.26966357421875,-1.819952368736267,-0.4069540202617645,-0.19607357680797577
1789620291784635000,4.279634765625,-1.8257017135620117,-0.11086155474185944,-0.27988705039024353
1789620291794605800,4.289605712890625,-1.684533715248108,0.1173524409532547,-0.3614250719547272
1789620291804577800,4.299577880859375,-1.6115524768829346,-0.3469129800796509,-0.4116351306438446
1789620291814548700,4.309548828125,-1.6628249883651733,-1.002353310585022,-0.4928325116634369
1789620291824520700,4.319520751953125,-1.7462207078933716,-1.118188738822937,-0.5376625657081604
1789620291834491600,4.32949169921875,-1.713633418083191,-0.8899635672569275,-0.5875406265258789
1789620291845087700,4.340087646484375,-1.4779713153839111,-0.7666182518005371,-0.7085456848144531
1789620291855058700,4.35005859375,-1.22707200050354,-0.6526549458503723,-0.6843897104263306
1789620291865030000,4.36002978515625,-1.2612823247909546,-0.4393998980522156,-0.6360611915588379
1789620291875001600,4.370001708984375,-1.3392360210418701,-0.2312789410352707,-0.6793862581253052
1789620291884972800,4.379972900390625,-1.3005715608596802,-0.40949687361717224,-0.7203586101531982
1789620291894944800,4.38994482421875,-1.1319167613983154,-0.6237822771072388,-0.65208899974823
1789620291904915700,4.399915771484375,-0.9402616024017334,-0.7731842398643494,-0.524695873260498
1789620291914887700,4.4098876953125,-0.8809375762939453,-0.9141959547996521,-0.43415579199790955
1789620291924859000,4.41985888671875,-0.8908718824386597,-0.8762450218200684,-0.3348907232284546
1789620291934830600,4.42983056640625,-0.8384470343589783,-0.4946683347225189,-0.12366130948066711
1789620291944801800,4.4398017578125,-0.6963356137275696,-0.057342614978551865,0.21499577164649963
1789620291954773800,4.449773681640625,-0.4200499653816223,0.16742710769176483,0.46919530630111694
1789620291964744700,4.45974462890625,-0.25375890731811523,0.2625553607940674,0.49204781651496887
1789620291974715600,4.469715576171875,-0.2114548534154892,0.40105119347572327,0.42495933175086975
1789620291984687900,4.47968798828125,-0.14060376584529877,0.676064670085907,0.41846081614494324
1789620291994658800,4.489658935546875,-0.013623982667922974,0.8919019103050232,0.4255658686161041
1789620292004630800,4.499630859375,0.05292694270610809,0.8083252906799316,0.46363314986228943
1789620292014601700,4.509601806640625,0.05472590774297714,0.4723249077796936,0.5218557119369507
1789620292024573700,4.51957373046875,0.1131560280919075,0.2937222421169281,0.5293974280357361
1789620292034544600,4.529544677734375,0.22150620818138123,0.2218025177717209,0.41103270649909973
1789620292044516900,4.539516845703125,0.30627867579460144,0.1546769142150879,0.41477876901626587
1789620292054487800,4.54948779296875,0.34523698687553406,0.366608589887619,0.5271042585372925
1789620292064458800,4.559458740234375,0.46577689051628113,0.6514194011688232,0.6255043745040894
1789620292074430700,4.5694306640625,0.5532374978065491,0.6181474924087524,0.6908681988716125
1789620292084402000,4.57940185546875,0.5769679546356201,0.40856894850730896,0.6807898283004761
1789620292094373600,4.58937353515625,0.7001268863677979,0.5245304703712463,0.624467134475708
1789620292104344800,4.5993447265625,0.9907327890396118,1.0932163000106812,0.6513285040855408
1789620292114316800,4.60931689453125,1.2122185230255127,1.402705192565918,0.7046114206314087
1789620292124287700,4.619287841796875,1.2732746601104736,1.3432388305664062,0.7367043495178223
1789620292134259700,4.629259765625,1.3069300651550293,1.1302977800369263,0.641246497631073
1789620292144231000,4.63923095703125,1.3627361059188843,0.8551039099693298,0.4557112157344818
1789620292154202600,4.64920263671875,1.4623982906341553,0.7458291053771973,0.35025694966316223
1789620292164173800,4.659173828125,1.6608394384384155,0.9317903518676758,0.311066597700119
1789620292174144800,4.669144775390625,1.796433925628662,1.1463847160339355,0.30023393034935
1789620292184116700,4.67911669921875,1.7568886280059814,1.3640422821044922,0.3253012001514435
1789620292194087700,4.689087646484375,1.7510288953781128,1.2283997535705566,0.24120867252349854
1789620292204060000,4.699059814453125,1.809569001197815,0.7182610034942627,0.06346846371889114
1789620292214030800,4.70903076171875,1.9397752285003662,0.5592841506004333,-0.0418451726436615
1789620292224002800,4.7190029296875,2.050276756286621,0.7769035696983337,-0.11844194680452347
1789620292233973800,4.728973876953125,1.9547855854034424,0.7079668045043945,-0.29302412271499634
1789620292243945700,4.73894580078125,1.8701096773147583,0.5702254772186279,-0.356346070766449
1789620292253916700,4.748916748046875,1.879900574684143,0.7131914496421814,-0.26259535551071167
1789620292263889000,4.758888916015625,1.9302457571029663,0.8557376265525818,-0.09931627660989761
1789620292273859800,4.76885986328125,1.882581114768982,0.8977175354957581,-0.07272248715162277
1789620292283830800,4.778830810546875,1.7817548513412476,0.8104476928710938,-0.15794818103313446
1789620292293802800,4.788802734375,1.714491844177246,0.6607151627540588,-0.17993789911270142
1789620292303774000,4.79877392578125,1.699241280555725,0.653683602809906,-0.19651727378368378
1789620292313745700,4.80874560546875,1.762534499168396,0.6510462760925293,-0.20749881863594055
1789620292323716900,4.818716796875,1.8394501209259033,0.4529018998146057,-0.2022659033536911
1789620292333688800,4.828688720703125,1.877862572669983,0.12193994969129562,-0.209892138838768
1789620292343659800,4.83865966796875,1.9088716506958008,-0.07209450006484985,-0.23198889195919037
1789620292353631700,4.8486318359375,1.8944181203842163,-0.05278445780277252,-0.24283061921596527
1789620292363603000,4.85860302734375,1.8572190999984741,0.2383577972650528,-0.19297754764556885
1789620292373574700,4.86857470703125,1.8144679069519043,0.5205506086349487,-0.09995359927415848
1789620292383545900,4.8785458984375,1.7092082500457764,0.6843611001968384,-0.06922855973243713
1789620292393516800,4.888516845703125,1.6084859371185303,0.7808077335357666,-0.17237624526023865
1789620292403488800,4.89848876953125,1.518703579902649,0.6164044141769409,-0.29681429266929626
1789620292413459700,4.908459716796875,1.3289450407028198,0.49532565474510193,-0.2802014946937561
1789620292423432000,4.918431884765625,1.1341294050216675,0.4829178750514984,-0.26599371433258057
1789620292433403000,4.92840283203125,0.9752393364906311,0.26180440187454224,-0.3630496859550476
1789620292443374800,4.938374755859375,0.7780162692070007,0.0496637262403965,-0.48648813366889954
1789620292453345800,4.948345703125,0.5934363007545471,-0.10160568356513977,-0.5079848766326904
1789620292463317800,4.95831787109375,0.425567090511322,-0.24529223144054413,-0.4755597412586212
1789620292473288700,4.968288818359375,0.3062918186187744,-0.41194939613342285,-0.3846716582775116
1789620292483261000,4.978260986328125,0.1776776760816574,-0.4429178833961487,-0.28919118642807007
1789620292493231900,4.98823193359375,-0.025979844853281975,-0.20496977865695953,-0.2118857502937317
1789620292503202600,4.99820263671875,-0.18286080658435822,-0.254000186920166,-0.1774366945028305
1789620292513174800,5.0081748046875,-0.3491989076137543,-0.3667621314525604,-0.07799213379621506
1789620292523145700,5.018145751953125,-0.4560689330101013,-0.3541888892650604,0.07204928994178772
1789620292533117700,5.02811767578125,-0.5621522068977356,-0.28980642557144165,0.1953541785478592
1789620292543088600,5.038088623046875,-0.6366651654243469,-0.18546442687511444,0.27010276913642883
1789620292553060900,5.048060791015625,-0.6712273955345154,-0.10881252586841583,0.2764778435230255
1789620292563031600,5.058031494140625,-0.6693167686462402,-0.03787663206458092,0.2194693237543106
1789620292573003800,5.068003662109375,-0.5656454563140869,-0.17304828763008118,0.12327462434768677
1789620292582974700,5.077974609375,-0.4643826484680176,-0.6695052981376648,0.03137984871864319
1789620292592946700,5.08794677734375,-0.43544793128967285,-0.974181056022644,0.09537800401449203
1789620292602917600,5.097917724609375,-0.4131161868572235,-0.8306640386581421,0.3168050944805145
1789620292612888800,5.107888916015625,-0.4632219672203064,-0.5116786360740662,0.5608920454978943
1789620292622860500,5.117860595703125,-0.5208843946456909,-0.6538341641426086,0.6600809693336487
1789620355231781000,67.72678100585938,0.6403783559799194,-0.2883501946926117,0.20431816577911377
1789620355241752000,67.736751953125,0.588431715965271,-0.4151223301887512,0.46413061022758484
1789620355251723300,67.74672314453124,0.5407664775848389,-0.464979350566864,0.6641356348991394
1789620355261694200,67.75669409179687,0.49948209524154663,-0.3801220655441284,0.8306119441986084
1789620355271665400,67.76666552734375,0.4507504999637604,-0.11449068039655685,0.987015426158905
1789620355281636400,67.77663623046875,0.36412665247917175,0.176775261759758,1.1195118427276611
1789620355291607300,67.78660717773438,0.265775591135025,0.3622945249080658,1.2025420665740967
1789620355301578200,67.796578125,0.16613848507404327,0.4402741491794586,1.2228809595108032
1789620355311549200,67.80654907226562,0.05796007812023163,0.4794226288795471,1.20134699344635
1789620355321520400,67.81652026367188,-0.0673462375998497,0.5397441387176514,1.1421585083007812
1789620355331491300,67.8264912109375,-0.20304253697395325,0.6190658807754517,1.0355266332626343
1789620355341462300,67.83646215820312,-0.3098299205303192,0.6101503968238831,0.8523670434951782
1789620355351433200,67.84643310546875,-0.3707670271396637,0.39952632784843445,0.5662024021148682
1789620355361404200,67.85640405273438,-0.3913879692554474,0.03451502323150635,0.17045463621616364
1789620355371375400,67.86637524414063,-0.3763280510902405,-0.2703061103820801,-0.2853613793849945
1789620355381346300,67.87634619140626,-0.32770371437072754,-0.31980544328689575,-0.7098685503005981
1789620355391317200,67.88631713867187,-0.2590053379535675,-0.1288067251443863,-1.0503430366516113
1789620355401288200,67.8962880859375,-0.18253467977046967,0.07737675309181213,-1.3131600618362427
1789620355411259100,67.90625903320313,-0.1141393631696701,0.14711377024650574,-1.4843802452087402
1789620355421231400,67.9162314453125,-0.06622068583965302,0.11965122818946838,-1.524191975593567
1789620355431202000,67.9262021484375,-0.01571730151772499,0.10012706369161606,-1.418676733970642
1789620355441173200,67.93617333984375,0.061952099204063416,0.17112670838832855,-1.1922627687454224
1789620355451143200,67.94614306640625,0.14118805527687073,0.2893364429473877,-0.8862192630767822
1789620355461115400,67.95611547851563,0.205628901720047,0.3362811803817749,-0.5465127825737
1789620355471086300,67.96608642578126,0.27705809473991394,0.16700959205627441,-0.1948314607143402
1789620355481057300,67.97605737304687,0.3676682710647583,-0.10678477585315704,0.159091055393219
1789620355491028200,67.9860283203125,0.47146978974342346,-0.25386345386505127,0.5227617025375366
1789620355500999200,67.99599926757813,0.5582439303398132,-0.21358472108840942,0.867107629776001
1789620355510970400,68.00597045898438,0.6124914288520813,-0.069269098341465,1.1388124227523804
1789620355520941300,68.01594140625,0.6278940439224243,0.02880910038948059,1.2889553308486938
1789620355530912300,68.02591235351562,0.6243017315864563,0.00022832141257822514,1.3039648532867432
1789620355540883200,68.03588330078125,0.6017730832099915,-0.11394990235567093,1.2051949501037598
1789620355550854100,68.04585424804688,0.5400646924972534,-0.20073166489601135,1.0593585968017578
1789620355560825300,68.05582543945313,0.4536980986595154,-0.1305760145187378,0.9326015710830688
1789620355570796300,68.06579638671874,0.35819849371910095,0.11323611438274384,0.849881112575531
1789620355580767200,68.07576733398437,0.2526921331882477,0.4159153997898102,0.7872120141983032
1789620355590738200,68.08573828125,0.14587591588497162,0.609098494052887,0.6950615644454956
1789620355600709000,68.09570922851563,0.046608664095401764,0.5562068819999695,0.5305002927780151
1789620355610680300,68.10568041992188,-0.020774634554982185,0.2540757954120636,0.27365759015083313
1789620355620651300,68.1156513671875,-0.05163136124610901,-0.13375096023082733,-0.04766542837023735
1789620355630622200,68.12562231445312,-0.06949451565742493,-0.3434770107269287,-0.35456305742263794
1789620355640593400,68.13559350585938,-0.08538851141929626,-0.18743905425071716,-0.554917573928833
1789620355650564000,68.14556420898438,-0.11865059286355972,0.2290404587984085,-0.6242324709892273
1789620355660535300,68.15553540039062,-0.18719978630542755,0.5873701572418213,-0.6256213188171387
1789620355670506200,68.16550634765625,-0.2642730176448822,0.6129751205444336,-0.6378535032272339
1789620355680477400,68.1754775390625,-0.28369438648223877,0.2755986154079437,-0.7031682133674622
1789620355690448400,68.18544848632813,-0.2039364129304886,-0.1597438007593155,-0.7828747630119324
1789620355700419000,68.19541918945312,-0.04745949059724808,-0.3554871380329132,-0.7928534150123596
1789620355710390300,68.20539038085937,0.12454796582460403,-0.24184659123420715,-0.6973404884338379
1789620355720361200,68.215361328125,0.26171162724494934,-0.042993441224098206,-0.5596749782562256
1789620355730332200,68.22533227539063,0.35105961561203003,-0.02593829296529293,-0.45298317074775696
1789620355740303000,68.23530322265626,0.41515985131263733,-0.22081786394119263,-0.39431536197662354
1789620355750274300,68.2452744140625,0.4715768098831177,-0.4182419776916504,-0.35006800293922424
1789620355760245000,68.25524487304688,0.512135922908783,-0.4302755892276764,-0.2772575914859772
1789620355770216200,68.26521630859375,0.5316153764724731,-0.23879192769527435,-0.15865904092788696
1789620355780187100,68.27518725585938,0.5239706039428711,0.06613574922084808,0.00797748751938343
1789620355790158000,68.28515795898437,0.4839901328086853,0.3754962682723999,0.2152923196554184
1789620355800129300,68.29512939453124,0.4217054843902588,0.5836256742477417,0.4264880418777466
1789620355810100000,68.30509985351563,0.3561938405036926,0.5755462050437927,0.5843959450721741
1789620355820071200,68.3150712890625,0.3089253902435303,0.3407398760318756,0.6660808324813843
1789620355830042000,68.3250419921875,0.2939775884151459,0.018637733533978462,0.6840581893920898
1789620355840013000,68.33501293945312,0.30564019083976746,-0.16962216794490814,0.6838458776473999
1789620355849984300,68.344984375,0.30762770771980286,-0.09628882259130478,0.7189404368400574
1789620355859955200,68.354955078125,0.2652740478515625,0.12795592844486237,0.7553027272224426
1789620355869926100,68.36492602539063,0.19124935567378998,0.2715149521827698,0.7471782565116882
1789620355879897000,68.37489697265624,0.12994129955768585,0.21484503149986267,0.6794524192810059
1789620355889868300,68.38486840820312,0.09301763027906418,0.0969463661313057,0.5927398800849915
1789620355899839200,68.39483911132812,0.08306015282869339,0.1742756962776184,0.5657442212104797
1789620355909810200,68.40481005859375,0.03977605700492859,0.5549594163894653,0.621096134185791
1789620355919781000,68.41478100585938,-0.0664532259106636,1.0085679292678833,0.6989668607711792
1789620355929752000,68.424751953125,-0.1931118369102478,1.2184218168258667,0.709811270236969
1789620355939723300,68.43472314453125,-0.316566526889801,0.9686936140060425,0.574990451335907
1789620355949694200,68.44469409179688,-0.41606250405311584,0.25890955328941345,0.2554556429386139
1789620355959666200,68.45466625976563,-0.4528845548629761,-0.5312985777854919,-0.188720241189003
1789620355969637000,68.46463720703125,-0.42980799078941345,-0.9194114208221436,-0.6547332406044006
1789620355979608000,68.47460815429687,-0.3647071123123169,-0.8274773955345154,-1.1096330881118774
1789620355989579300,68.48457934570312,-0.29257965087890625,-0.5512511134147644,-1.5444279909133911
1789620355999550200,68.49455029296875,-0.20218978822231293,-0.35163262486457825,-1.9183210134506226
1789620356009521200,68.50452124023437,-0.07326855510473251,-0.22092309594154358,-2.171560049057007
1789620356019492000,68.5144921875,0.09550054371356964,-0.0406922921538353,-2.2482142448425293
1789620356029463000,68.52446313476563,0.275750994682312,0.23643945157527924,-2.1189513206481934
1789620356039434200,68.53443432617188,0.4189404249191284,0.5361047387123108,-1.8031699657440186
1789620356049405200,68.5444052734375,0.4624234437942505,0.7747471332550049,-1.3456964492797852
1789620356059376000,68.55437622070312,0.40210404992103577,0.8708444833755493,-0.8290060758590698
1789620356069347000,68.56434716796875,0.2948628067970276,0.725252628326416,-0.3612518906593323
1789620356079318000,68.57431811523438,0.20961309969425201,0.3325900137424469,-0.04518263041973114
1789620356089289200,68.58428930664063,0.15051595866680145,-0.12370643764734268,0.11323071271181107
1789620356099260200,68.59426025390626,0.15680785477161407,-0.34682926535606384,0.21087834239006042
1789620356109231400,68.6042314453125,0.2363428920507431,-0.1668240875005722,0.3208083212375641
1789620356119202000,68.6142021484375,0.3427494466304779,0.2314845770597458,0.44372302293777466
1789620356129173000,68.62417309570313,0.4531715512275696,0.5762861967086792,0.5504822731018066
1789620356139144200,68.63414428710938,0.5107865929603577,0.6843380928039551,0.612363874912262
1789620356149115100,68.644115234375,0.49332955479621887,0.5143969655036926,0.6095126867294312
1789620356159086300,68.65408642578124,0.40448275208473206,0.18028999865055084,0.5409911274909973
1789620356169057000,68.66405712890625,0.26705485582351685,-0.1414496898651123,0.40196213126182556
1789620356179028000,68.67402807617188,0.11653032153844833,-0.27675727009773254,0.22327858209609985
1789620356188999200,68.68399926757813,0.0012604516232386231,-0.1820422261953354,0.02806328423321247
1789620356198970000,68.69397021484374,-0.059411291033029556,0.06536927074193954,-0.15686465799808502
1789620356208941300,68.70394140625,-0.0689864233136177,0.3702434301376343,-0.2997717559337616
1789620356218912000,68.713912109375,-0.03688724339008331,0.6566829681396484,-0.34482482075691223
1789620356228883000,68.72388305664063,0.001287305960431695,0.8495400547981262,-0.2793235778808594
1789620356238854100,68.73385424804688,0.033227041363716125,0.8400757908821106,-0.1433606892824173
1789620356248825000,68.7438251953125,0.06912033259868622,0.6384939551353455,0.030177006497979164
1789620356258796300,68.75379638671875,0.13819150626659393,0.3636534810066223,0.2080519199371338
1789620356268767200,68.76376733398438,0.24443751573562622,0.16708184778690338,0.3892704248428345
1789620356278739200,68.7737392578125,0.3594054579734802,0.16391633450984955,0.5903005003929138
1789620356288710100,68.78371020507812,0.44300130009651184,0.26137977838516235,0.8042974472045898
1789620356298681300,68.79368139648437,0.4822227954864502,0.2575072646141052,0.9778965711593628
1789620356308652300,68.80365234375,0.5065329074859619,0.0002706632949411869,1.0467896461486816
1789620356318623000,68.813623046875,0.5052315592765808,-0.4572106897830963,0.9836442470550537
1789620356328594200,68.82359423828125,0.4989855885505676,-0.8643909692764282,0.8320906758308411
1789620356338565000,68.83356518554687,0.48928600549697876,-0.9614189863204956,0.6441441774368286
1789620356348536300,68.84353637695312,0.4713887572288513,-0.7863515615463257,0.4371664822101593
1789620356358507300,68.85350732421875,0.4170823097229004,-0.49826180934906006,0.21821361780166626
1789620356368478000,68.86347802734375,0.31897544860839844,-0.2210528552532196,0.00991022028028965
1789620356378449200,68.87344921875,0.20039024949073792,-0.033824171870946884,-0.16225287318229675
1789620356388420000,68.88342016601563,0.0916547104716301,0.08465959131717682,-0.27435997128486633
1789620356398391300,68.89339135742188,0.017772184684872627,0.21690359711647034,-0.3241109549999237
1789620356408362200,68.9033623046875,-0.0023413407616317272,0.39492499828338623,-0.2910422384738922
1789620356418333000,68.9133330078125,0.005444223061203957,0.5485824346542358,-0.16784751415252686
1789620356428304100,68.92330419921875,0.018566152080893517,0.630614697933197,0.02425828017294407
1789620356438275000,68.93327514648438,0.0279986672103405,0.6188970804214478,0.25098171830177307
1789620356448246300,68.94324633789063,0.03207995742559433,0.4982050359249115,0.4612596035003662
1789620356458217200,68.95321728515626,0.024774745106697083,0.25697413086891174,0.5951165556907654
1789620356468188200,68.96318823242187,0.026709532365202904,-0.04829179495573044,0.6086848378181458
1789620356478159000,68.9731591796875,0.04788007214665413,-0.333437979221344,0.4754781723022461
1789620356488130000,68.98313012695313,0.09891662746667862,-0.538617730140686,0.21078312397003174
1789620356498101200,68.99310131835938,0.15917488932609558,-0.597881019115448,-0.12232951074838638
1789620356508072200,69.003072265625,0.21308979392051697,-0.4710918962955475,-0.4404560923576355
1789620356518043100,69.01304321289062,0.2628263831138611,-0.191212460398674,-0.6895335912704468
1789620356528015000,69.02301513671875,0.28508827090263367,0.14069169759750366,-0.8363379240036011
1789620356537986000,69.03298608398437,0.27921563386917114,0.4095720052719116,-0.873101532459259
1789620356547957200,69.04295727539062,0.25438833236694336,0.5545915365219116,-0.8151820302009583
1789620356557928200,69.05292822265625,0.22424522042274475,0.5878803730010986,-0.6734931468963623
1789620356567899100,69.06289916992188,0.20524463057518005,0.5353530049324036,-0.4596266746520996
1789620356577870000,69.0728701171875,0.2183256447315216,0.46533679962158203,-0.2030247449874878
1789620356587841000,69.08284106445312,0.26866310834884644,0.4400721788406372,0.08554527163505554
1789620356597812200,69.09281225585937,0.3289010524749756,0.46246689558029175,0.38945603370666504
1789620356607783200,69.102783203125,0.38205960392951965,0.49913251399993896,0.6886547207832336
1789620356617754000,69.11275415039063,0.40571123361587524,0.5054181814193726,0.9296842813491821
1789620356627725000,69.12272509765624,0.4108402132987976,0.41897621750831604,1.070953130722046
1789620356637696000,69.13269604492187,0.40225711464881897,0.21903210878372192,1.080751657485962
1789620356647667200,69.14266723632812,0.3973449170589447,-0.06745264679193497,0.949532687664032
1789620356657638100,69.15263818359375,0.3947245180606842,-0.31167444586753845,0.7165336012840271
1789620356667609000,69.16260913085938,0.37001970410346985,-0.32734981179237366,0.4572829008102417
1789620356677580000,69.172580078125,0.3101983368396759,-0.1333310604095459,0.2131538987159729
1789620356687551200,69.18255126953125,0.23581810295581818,0.17135773599147797,0.009531799703836441
1789620356697522200,69.19252221679687,0.17685092985630035,0.5093001127243042,-0.13276329636573792
1789620356707493000,69.2024931640625,0.12915290892124176,0.8200920820236206,-0.17216689884662628
1789620356717464300,69.21246435546875,0.07081541419029236,1.0600097179412842,-0.10592213273048401
1789620356727436000,69.22243603515625,-0.017296336591243744,1.1779606342315674,0.03372444957494736
1789620356737407000,69.23240698242188,-0.13201092183589935,1.1136085987091064,0.2058163285255432
1789620356747378200,69.24237817382813,-0.22960086166858673,0.7876046895980835,0.3781878352165222
1789620356757349000,69.25234912109374,-0.22093668580055237,0.21759571135044098,0.36325734853744507
1789620356767319800,69.26231982421875,-0.12955911457538605,-0.1848585307598114,0.23925793170928955
1789620356777291000,69.272291015625,-0.040781233459711075,-0.25779783725738525,0.07985237240791321
1789620356787262000,69.28226196289063,0.04198767989873886,-0.09057129919528961,-0.12295106798410416
1789620356797233200,69.29223315429688,0.11267226189374924,0.14514407515525818,-0.3395707905292511
1789620356807204000,69.3022041015625,0.15750791132450104,0.2732096314430237,-0.5479444861412048
1789620356817174800,69.3121748046875,0.17259809374809265,0.3053795099258423,-0.6789625883102417
1789620356827146000,69.32214599609375,0.16124744713306427,0.31479087471961975,-0.7098195552825928
1789620356837117000,69.33211694335938,0.14082635939121246,0.28659552335739136,-0.6752656102180481
