time,seconds_elapsed,z,y,x
1789799130151952600,0.04195263671875,5.625476075744628,6.911910555267333,-0.47749359359741206
1789799130161924900,0.0519248046875,5.7417444938659665,6.844124720764159,-0.70868369140625
1789799130171896800,0.061896728515625,5.925948384094238,6.805069306182861,-0.8310872512817382
1789799130181868800,0.071868896484375,5.993584580993652,6.724713912963867,-0.8921393936157226
1789799130191840800,0.0818408203125,5.81581510772705,6.607398031616211,-0.985064345550537
1789799130201814000,0.09181396484375,5.513247872924804,6.179733760070801,-1.2997522262573242
1789799130211785700,0.10178564453125,5.503970341491699,6.0145338455200195,-1.4401122985839843
1789799130221758000,0.111758056640625,5.553201113128662,6.152200440979003,-1.1656769332885741
1789799130231729700,0.121729736328125,5.3591211410522455,6.077232001495361,-0.9337386474609375
1789799130241702000,0.131701904296875,5.345653756713867,5.978620820617675,-0.8135796516418456
1789799130251673900,0.141673828125,5.879261451721191,5.737405003356933,-0.8800187477111816
1789799130261646800,0.151646728515625,6.707355950927734,5.699097776794433,-1.1215338401794432
1789799130271618800,0.161618896484375,7.161356440734862,5.799354971313476,-0.9153332221984862
1789799130281591000,0.171591064453125,6.973561248016357,5.751022025299072,-0.2289455337524414
1789799130291562800,0.181562744140625,6.987028632354736,5.886444056701659,0.4182371025085449
1789799130301535000,0.191534912109375,7.678803274536133,6.274753638458251,0.4008791404724121
1789799130311506700,0.201506591796875,8.399308336639404,6.556521246337891,0.20994155807495116
1789799130321479700,0.211479736328125,8.916006982421875,6.497863305664062,0.05401917495727539
1789799130331452000,0.221451904296875,9.02808554763794,6.300341668701171,0.10459668502807616
1789799130341423900,0.231423828125,9.537152675628661,6.477811866760254,-0.23702596435546874
1789799130351395800,0.241395751953125,9.734823950195311,6.394912634277343,-0.07631517791748046
1789799130361368000,0.2513681640625,9.680355862426758,6.207267079162597,0.15876549758911132
1789799130371340800,0.2613408203125,9.548824408721924,6.293757614135742,0.03007715835571289
1789799130381312800,0.271312744140625,9.54508346862793,6.609642595672607,-0.6057330200195312
1789799130391285000,0.281284912109375,9.55690483932495,6.775291423034668,-1.2662334030151365
1789799130401256700,0.291256591796875,9.329156406402587,5.834220532989502,-2.1793220611572264
1789799130411229000,0.30122900390625,8.704718685913086,3.662679627227783,-3.507505432128906
1789799130421200600,0.31120068359375,9.067739512634278,4.640411730194091,-3.509301083374023
1789799130431174000,0.321173828125,8.493879302215575,6.829011322784424,-2.580650114440918
1789799130441145900,0.331145751953125,4.987271695709228,6.7191773216247555,-2.5553613594055173
1789799130451117800,0.341117919921875,4.113388089752197,5.623830062103271,-3.672256433868408
1789799130461089800,0.35108984375,6.423792691802978,6.817638864898681,-5.370493598937988
1789799130471062000,0.36106201171875,6.1942486076354975,7.0461354858398435,-5.17132594833374
1789799130481034800,0.37103466796875,4.171297842407227,5.7900774398803705,-3.0337527786254883
1789799130491007000,0.381007080078125,2.408566870117187,3.4926913093566894,-0.4664204109191894
1789799130500978700,0.390978759765625,2.064699656677246,1.2074258247375487,2.238877827453613
1789799130510951000,0.400950927734375,7.168539045715332,2.120813758087158,2.0917840629577635
1789799130520923000,0.4109228515625,9.304915114593506,1.623568000793457,0.4278139091491699
1789799130530894800,0.420894775390625,9.911545960235594,1.3914800773620604,-0.3821744400024414
1789799130540867800,0.430867919921875,10.664372744750976,2.488772625732422,-0.5611410140991211
1789799130550839800,0.44083984375,10.696095916748046,3.7027825050354,-1.387290224456787
1789799130560811800,0.450811767578125,11.65871462173462,6.679523356628418,-7.991695503997803
1789799130570783700,0.46078369140625,12.354828754425048,9.873837284088134,-14.378976620483398
1789799130580755700,0.470755615234375,10.622623853302,7.475894683837891,-5.5449710449218745
1789799130590728700,0.480728759765625,10.454730461883544,5.8916813728332516,1.943493197631836
1789799130600701000,0.490700927734375,10.022726699829102,6.947673942565918,4.630086735534667
1789799130610672600,0.500672607421875,8.807070806884765,7.824849575805664,6.063465341949462
1789799130620644900,0.510644775390625,8.550143041229248,7.8255977638244625,5.783044472503661
1789799130630616800,0.520616943359375,9.127893829345702,7.129333993530273,4.266916271209716
1789799130640589800,0.53058984375,9.541043253326416,6.298546017456054,2.0548235748291015
1789799130650561800,0.540561767578125,9.185803582000732,5.998073709106445,0.5340566078186035
1789799130660534000,0.550533935546875,8.149712813568115,6.208763455200195,0.16026187362670896
1789799130670505700,0.560505615234375,7.241861471557617,6.553528494262695,0.40925884628295894
1789799130680478000,0.57047802734375,7.0555626548767085,6.719326959228515,0.8255506599426269
1789799130690451000,0.580450927734375,6.988824283599853,6.865672535705566,1.3742717529296875
1789799130700422700,0.590422607421875,7.253982117462158,7.084592350006103,1.9342156661987304
1789799130710395000,0.600394775390625,7.663689876556396,7.156568037414551,2.1652561264038086
1789799130720366600,0.61036669921875,8.240542839050292,7.070376777648925,2.162413011932373
1789799130730338800,0.6203388671875,8.608651344299316,6.884077960968018,2.1556793197631836
1789799130740311800,0.630311767578125,8.53009160232544,6.683264296722411,2.139518458557129
1789799130750283800,0.64028369140625,8.434922086334227,6.487687948608398,2.262520568847656
1789799130760255700,0.650255859375,8.731054904174805,6.366481489562988,2.364872689819336
1789799130770228000,0.66022802734375,9.215731102752684,6.232256558990478,2.458545829772949
1789799130780200700,0.67020068359375,9.520542901611327,6.2018801254272455,2.6089316215515135
1789799130790173000,0.6801728515625,9.427617949676513,6.137236680603027,2.7020062110900875
1789799130800145000,0.690144775390625,8.906729450988768,6.106112059020996,2.8302456375122067
1789799130810116900,0.700116943359375,7.879168025970459,6.303932971191406,2.8501474388122556
1789799130820088800,0.7100888671875,7.06139852142334,6.6802715446472165,2.7302877182006835
1789799130830061800,0.720061767578125,6.598569412994385,7.041347082519531,2.3995886138916016
1789799130840033800,0.73003369140625,6.410175669860839,7.187692658996582,2.1197662948608396
1789799130850005800,0.740005859375,6.766013891601562,7.039252156066894,1.6973393394470213
1789799130859977700,0.749977783203125,7.446116800689697,6.564601676940917,1.324143155670166
1789799130869949700,0.75994970703125,8.065167567443847,6.0531403472900385,1.16193599319458
1789799130879923000,0.7699228515625,8.500313719177246,5.756259341430663,1.0784382102966308
1789799130889894700,0.779894775390625,8.688557824707031,5.608716664123535,1.152359186553955
1789799130899867000,0.789866943359375,8.430881871032714,5.659443811798095,1.3037924415588378
1789799130909838800,0.7998388671875,7.554903338623046,6.112845751190185,1.495777487182617
1789799130919811800,0.809811767578125,6.789955908203124,6.617723026275635,1.619677423095703
1789799130929783800,0.81978369140625,6.363937650299072,6.962338427734375,1.4446014266967773
1789799130939756000,0.829756103515625,6.284779357910156,6.917147871398925,1.0021230323791503
1789799130949727700,0.839727783203125,6.559813273620605,6.451924561309814,0.5539584091186524
1789799130959700000,0.849699951171875,7.019499992370605,6.000467910766601,0.06434416961669921
1789799130969673000,0.8596728515625,7.127089429473877,5.644928964233398,-0.10250175857543944
1789799130979644700,0.869644775390625,6.9713166839599605,5.585822110748291,-0.21906945190429686
1789799130989617000,0.879616943359375,6.60799658203125,5.808482865142822,-0.007930792999267577
1789799130999588600,0.889588623046875,6.454019487762451,6.089203009796142,0.45070846252441404
1789799131009561900,0.899561767578125,6.525995175170898,6.292859788513184,0.7930792999267577
1789799131019533800,0.909533935546875,6.820033066558837,6.331466290283203,0.7806593788146973
1789799131029505800,0.919505859375,7.20190823135376,6.145167473602295,0.5527613082885742
1789799131039477800,0.929477783203125,7.483226926422119,5.956025542449951,0.3366846084594726
1789799131049450000,0.939449951171875,7.661594950103759,5.869086094665527,0.2796726814270019
1789799131059422700,0.949422607421875,7.809436902618407,5.86714080581665,0.26007015533447264
1789799131069395000,0.95939501953125,7.827692690277099,5.940912144470214,0.32576106338500976
1789799131079367000,0.969366943359375,7.731774986267089,6.049249769592285,0.37978023834228514
1789799131089339000,0.9793388671875,7.505822204589843,6.151152977752685,0.4132990615844726
1789799131099311900,0.989311767578125,7.353042211151123,6.259789878082275,0.3607762626647949
1789799131109283800,0.999283935546875,7.329698744964599,6.282834069061279,0.2079962692260742
1789799131119255800,1.009255859375,7.375338214111328,6.224924316406249,0.08529343414306641
1789799131129227800,1.019227783203125,7.276727033233642,6.248417420196533,0.04444236831665039
1789799131139201000,1.029200927734375,7.1966709152221675,6.255001474761962,0.07197568740844726
1789799131149172200,1.039172119140625,7.2900447799682615,6.240636264801025,0.11372457885742186
1789799131159144400,1.04914453125,7.34241794128418,6.186617089843749,0.09786299285888671
1789799131169116200,1.0591162109375,7.336282799530029,6.069450846099853,0.13826514587402344
1789799131179088400,1.06908837890625,7.502380539703369,6.028300505065918,0.14769231491088866
1789799131189061400,1.079061279296875,7.659948936462402,6.105064595794677,0.17028759307861327
1789799131199033300,1.089033447265625,7.6838909530639645,6.200832662200927,0.19482816009521484
1789799131209005300,1.09900537109375,7.439682383728027,6.313659415435791,0.2563292152404785
1789799131218977300,1.108977294921875,7.047182949066162,6.504447360229491,0.35793314819335936
1789799131228950300,1.1189501953125,6.787112793731689,6.641665042877197,0.3607762626647949
1789799131238922200,1.128922119140625,6.60799658203125,6.6711436508178705,0.340275910949707
1789799131248894200,1.138894287109375,6.610989334106445,6.636577364349365,0.29239187774658204
1789799131258866400,1.148866455078125,6.871508402252197,6.538115821075439,0.1867477294921875
1789799131268839400,1.15883935546875,7.183053893280029,6.3037833335876465,0.025139117431640625
1789799131278811100,1.16881103515625,7.278373046874999,6.118531980133056,-0.14260463638305662
1789799131288783400,1.178783447265625,7.310395494079589,5.978620820617675,-0.24944588546752927
1789799131298755300,1.18875537109375,7.379677704620361,5.959467207336425,-0.29718028106689454
1789799131308728300,1.198728271484375,7.326406717681884,6.105363871002197,-0.2989759323120117
1789799131318700300,1.2087001953125,7.153724922943115,6.293308701324462,-0.20859481964111326
1789799131328672500,1.218672607421875,6.957400386810303,6.380996337127685,-0.28012159423828126
1789799131338644200,1.228644287109375,6.827514946746826,6.239139888763427,-0.4029740669250488
1789799131348616400,1.238616455078125,6.883329772949218,6.056582012176514,-0.5606921012878417
1789799131358589400,1.24858935546875,7.08668727645874,5.8542719718933105,-0.7332242584228515
1789799131368561200,1.25856103515625,7.295431733703613,5.699397052001952,-0.780809016418457
1789799131378533400,1.268533447265625,7.510311332702636,5.568164873504639,-0.6670844375610351
1789799131388505300,1.27850537109375,7.796568068695068,5.427206250762939,-0.40506899337768554
1789799131398478300,1.288478271484375,8.168267876434326,5.432443566894531,-0.07122749938964844
1789799131408450300,1.2984501953125,8.208520391845703,5.659144536590576,0.2615665313720703
1789799131418422300,1.30842236328125,7.732373536682128,6.045209554290771,0.5187935722351074
1789799131428394200,1.318394287109375,7.20774409790039,6.29510435256958,0.8110358123779297
1789799131438367500,1.328367431640625,6.870012026214599,6.257994226837158,0.6724713912963867
1789799131448339200,1.338339111328125,6.52494771194458,6.083965693664551,0.42227731781005856
1789799131458311400,1.3483115234375,6.400598863220215,5.643133312988281,0.35778351058959956
1789799131468283400,1.358283447265625,6.378452497863769,5.881356378173828,0.4955997436523437
1789799131478256000,1.368256103515625,6.055235273742675,6.364087287902832,0.8369231178283691
1789799131488228400,1.378228271484375,5.619340933990478,6.475118389892578,0.8487444885253905
1789799131498200300,1.388200439453125,5.326649781036377,6.695085667419433,0.7730278610229492
1789799131508173300,1.39817333984375,5.5069630935668945,6.274005450439453,0.222810391998291
1789799131518145300,1.408145263671875,5.675155760192871,5.9576715560913085,-0.008678981018066407
1789799131528117500,1.418117431640625,5.530456197357178,6.176441732788086,0.061650692749023434
1789799131538089200,1.428089111328125,5.1027919258117675,6.238242063140869,0.10489596023559569
1789799131548062200,1.438062255859375,4.986673145294189,6.227767430877686,0.06628945846557617
1789799131558034400,1.448034423828125,5.448604428100586,6.109104811096191,-0.005835866546630859
1789799131568006400,1.45800634765625,5.864447328948974,6.054935998535156,0.1406593475341797
1789799131577978400,1.467978271484375,6.054935998535156,6.142623634338379,0.423923331451416
1789799131587951400,1.477951416015625,6.325331148529052,6.121375094604492,0.476895043182373
1789799131597923300,1.48792333984375,6.831555162048339,6.013037469482422,0.44577042160034175
1789799131607895300,1.497895263671875,7.311442957305908,5.9503393135070795,0.5514145698547362
1789799131617867300,1.5078671875,7.486070040893554,6.10341858215332,0.8464999244689941
1789799131627840300,1.51784033203125,7.472752294158935,6.431124934387206,1.3549685020446776
1789799131637812500,1.5278125,7.495048297119141,6.113593939208984,1.1845312713623046
1789799131647784200,1.5377841796875,7.9004165657043455,6.395361547088623,1.1405378158569335
1789799131657756400,1.54775634765625,8.214954808807372,7.528118207550048,1.772307778930664
1789799131667729400,1.5577294921875,8.689605287933349,6.394912634277343,1.2972083869934081
1789799131677701000,1.567701171875,8.795847986602782,5.89272883605957,1.0205284576416016
1789799131687673300,1.57767333984375,8.603713303375244,6.391470969390869,1.1263222434997557
1789799131697646300,1.587646240234375,8.643367268371582,6.49307490234375,1.6093524284362792
1789799131707618300,1.597618408203125,9.158419900512694,6.4646437576293945,1.9252374099731444
1789799131717590300,1.60759033203125,9.655216744995117,6.471826362609863,2.1715409057617188
1789799131727562500,1.6175625,9.686191728973387,6.528090101623535,2.3747487716674804
1789799131737535200,1.62753515625,9.227402835845947,6.656479165649413,2.301725621032715
1789799131747507500,1.637507568359375,8.741828811645508,6.6394204788208,2.076820302581787
1789799131757479400,1.6474794921875,8.579023098754883,6.50579409866333,1.8914193115234375
1789799131767451400,1.657451416015625,8.578574185943603,6.419752476501465,1.7905635665893553
1789799131777424400,1.66742431640625,8.688707462310791,6.368277140808105,1.868075845336914
1789799131787396400,1.677396240234375,8.706514337158202,6.415263348388671,2.1224597717285154
1789799131797368300,1.687368408203125,8.464550331878662,6.501005695343017,2.261323468017578
1789799131807341300,1.69734130859375,8.130259925079345,6.528838289642334,2.2788310676574706
1789799131817313500,1.7073134765625,7.839364423370361,6.541856761169433,2.2074539306640624
1789799131827285200,1.71728515625,7.727136220550537,6.489333962249756,2.107346373748779
1789799131837257500,1.727257568359375,7.82724377746582,6.412270596313476,2.0720318992614746
1789799131847230500,1.73723046875,7.961917620849609,6.400748500823974,2.180219886779785
1789799131857202200,1.7472021484375,8.024316501617431,6.47975715560913,2.5219921737670896
1789799131867174400,1.75717431640625,7.921365830230712,6.63358461227417,2.713977219390869
1789799131877147400,1.7671474609375,7.71232209777832,6.623858168029785,2.5700258445739745
1789799131887119400,1.777119384765625,7.515548648834228,6.478560054779052,2.283170558166504
1789799131897091300,1.78709130859375,7.372195824432373,6.42903000793457,1.9675848518371581
1789799131907063300,1.797063232421875,7.180061141204834,6.4914288887023925,1.8978537284851074
1789799131917036300,1.807036376953125,7.06094960861206,6.5762734100341795,2.028337718963623
1789799131927008500,1.817008544921875,7.119008998870849,6.6994251579284665,2.1914427070617672
1789799131936980200,1.826980224609375,7.296030284118652,6.7292030410766595,2.271498825073242
1789799131946953200,1.836953125,7.529165670776367,6.605602380371093,2.316689381408691
1789799131956925400,1.846925537109375,7.893233960723877,6.452822386932373,2.4158991127014158
1789799131966897200,1.856897216796875,8.179490696716307,6.316502529907226,2.448969023132324
1789799131976869400,1.866869384765625,8.279598253631592,6.173149705505371,2.4679729988098145
1789799131986842400,1.87684228515625,8.186822939300537,6.093093587493896,2.542193250274658
1789799131996814300,1.886814453125,7.946205672454833,6.0811225791931145,2.5959131500244137
1789799132006786300,1.896786376953125,7.633163805389404,5.98879617767334,2.5950153244018552
1789799132016759300,1.90675927734375,7.3940429145812985,5.875670149230957,2.624643569946289
1789799132026731300,1.916731201171875,7.264007836914062,5.820004960632324,2.6440964584350586
1789799132036703200,1.926703125,7.1781158523559565,5.717952114868163,2.65576819152832
1789799132046676500,1.936676513671875,7.2069959098815914,5.685331117248535,2.7576713996887205
1789799132056648200,1.946648193359375,7.406911748504638,5.642684400177002,2.8317420135498046
1789799132066620400,1.956620361328125,7.382820094299316,5.485116003417969,2.7946318878173826
1789799132076592400,1.96659228515625,7.15641839981079,5.3381718765258785,2.7525837211608883
1789799132086565400,1.9765654296875,6.823923644256592,5.218761068725586,2.752434083557129
1789799132096537300,1.986537353515625,6.363638375091552,5.03081623840332,2.775029361724853
1789799132106509300,1.99650927734375,5.941959607696533,4.845115972137451,2.7659014678955076
1789799132116482300,2.006482421875,5.562478644561767,4.751742107391357,2.8124387626647946
1789799132126454300,2.016454345703125,5.404610972595215,4.688744676208496,2.9984383041381832
1789799132136426200,2.02642626953125,5.494842447662354,4.507084625244141,3.21780703125
1789799132146399700,2.036399658203125,5.627271726989746,4.349516228485107,3.338115664672851
1789799132156371700,2.046371826171875,5.646425340270996,4.299237993621826,3.309684519958496
1789799132166343700,2.05634375,5.503820703887939,4.234594548797607,3.3182138633728027
1789799132176316700,2.066316650390625,5.379920767974853,4.140771771240234,3.375225790405273
1789799132186289000,2.076288818359375,5.372438887786865,4.034229797363281,3.349338484954834
1789799132196260600,2.086260498046875,5.382464607238769,3.794211080932617,3.202394358062744
1789799132206232800,2.09623291015625,5.3579240402221675,3.4467525650024413,3.0494647270202635
1789799132216205800,2.106205810546875,5.26664510192871,3.1893758865356445,2.866009024810791
1789799132226177800,2.116177734375,5.054159704589844,2.9876643966674803,2.7343279335021973
1789799132236149800,2.126149658203125,4.992957924652099,2.7232547508239744,2.6984149085998532
1789799132246122800,2.136122802734375,5.038148480987549,2.3575404472351074,2.6167127769470215
1789799132256094700,2.1460947265625,4.953004684448242,2.032078659057617,2.4678233612060545
1789799132266066700,2.156066650390625,4.848557637023926,1.865382368469238,2.383128477478027
1789799132276040000,2.1660400390625,5.059546658325195,1.7299603370666503,2.356343346405029
1789799132286011600,2.17601171875,5.552452925109863,1.502960092163086,2.2457611572265623
1789799132295983900,2.18598388671875,6.149357326507568,1.2140098793029785,2.4028806411743164
1789799132305956900,2.195956787109375,6.681019732666015,0.9259574920654297,2.5387515853881832
1789799132315928600,2.205928466796875,6.757185272979736,0.6055833824157715,2.501342184448242
1789799132325900800,2.21590087890625,6.598569412994385,0.47420156631469723,2.289455337524414
1789799132335873800,2.225873779296875,6.325181510925293,0.3272574394226074,2.2034137153625486
1789799132345845800,2.235845703125,5.651961931610107,0.01601122360229492,2.3719056571960446
1789799132355817700,2.245817626953125,4.682310259246826,0.08020575561523437,2.140715559387207
1789799132365790700,2.255790771484375,3.9803602600097654,0.44861353607177734,2.2480057212829587
1789799132375762700,2.2657626953125,3.4653076278686523,0.8054992210388183,3.0630817489624023
1789799132385735000,2.27573486328125,3.234716080474853,1.0389338829040526,4.209904344177246
1789799132395708000,2.2857080078125,2.5080758766174314,0.8922890312194823,5.2928316825866695
1789799132405679600,2.2956796875,1.7158944023132323,0.273238264465332,5.974580605316162
1789799132415651800,2.30565185546875,1.3195043899536132,-0.3265092514038086,6.002413199615479
1789799132425624800,2.315624755859375,0.9874585472106933,-0.8379705810546875,5.476586660003662
1789799132435596800,2.3255966796875,0.7719803977966309,-0.9997288307189941,4.7661073173522945
1789799132445568800,2.33556884765625,1.0749965454101562,-0.8916904808044434,4.702062422943115
1789799132455541800,2.345541748046875,1.1133037719726562,-1.215655892944336,5.740697030639648
1789799132465513700,2.355513671875,1.1291653579711913,-1.7708114028930664,7.200711130523681
1789799132475485700,2.365485595703125,1.344493869781494,-1.922992845916748,8.668207110595702
1789799132485459000,2.375458984375,1.1656769332885741,-2.090287686920166,10.525060135650634
1789799132495430700,2.3854306640625,0.7820061172485351,-1.3901333389282227,14.125789794921873
1789799132505403000,2.39540283203125,-3.2098762382507324,1.6683096443176268,24.750508574676513
1789799132515375900,2.4053759765625,-2.0087351928710935,2.8101941986083983,23.45614330215454
1789799132525347600,2.41534765625,7.027131510162353,-4.169801466369629,5.000439804840088
1789799132535319800,2.42531982421875,7.257274144744873,-7.338228088378906,3.4489971290588377
1789799132545292800,2.435292724609375,7.396287478637695,-7.471255918121337,5.018994867706298
1789799132555264800,2.4452646484375,8.022071937561035,-7.04194563293457,8.019528098297119
1789799132565236700,2.45523681640625,7.971943340301514,-7.036558679199218,11.584644007873534
1789799132575210000,2.4652099609375,7.299322311401367,-7.463923675537109,13.489231428527832
1789799132585181700,2.475181640625,7.014262676239014,-7.689876457214355,14.432696520233154
1789799132595154000,2.48515380859375,7.830386167144775,-6.421248852539062,15.29655440673828
1789799132605127000,2.495126953125,7.243357847595214,-4.668094686889648,17.081132469177245
1789799132615098600,2.5050986328125,5.165789356994629,-4.982782567596435,19.334375506591797
1789799132625070800,2.51507080078125,3.2851439529418944,-5.4512979049682615,20.650887144470214
1789799132635043800,2.5250439453125,2.9536966606140136,-4.457554578399658,21.293879927825927
1789799132645015800,2.535015869140625,2.093430076599121,-3.380463106536865,20.890905860900876
1789799132654987800,2.54498779296875,1.174056639099121,-2.803310868835449,18.700660254669188
1789799132664960800,2.554960693359375,2.4200889656066895,-2.448520110321045,17.372626521301267
1789799132674932700,2.5649326171875,2.638110954284668,-3.416974681854248,16.811784782409667
1789799132684905700,2.57490576171875,2.402581365966797,-3.808725928497314,16.168492723846434
1789799132694877700,2.584877685546875,3.7771523941040037,-3.2263363746643066,16.53375811462402
1789799132704849700,2.594849609375,4.162020310974121,-2.7549779228210447,17.175104884338378
1789799132714822700,2.60482275390625,4.321683634185791,-3.1037831771850586,17.482460522460936
1789799132724794600,2.614794677734375,4.02180987625122,-3.53698404006958,16.53375811462402
1789799132734766800,2.624766845703125,4.122964896392822,-3.397222518157959,15.062670832061766
1789799132744739800,2.63473974609375,4.391863670349121,-3.5140894866943357,13.915698599243163
1789799132754711600,2.644711669921875,4.726154077148437,-3.84329221496582,13.274950379943848
1789799132764683800,2.654683837890625,4.215291297912597,-4.762516014862061,13.134889582824707
1789799132774656800,2.66465673828125,3.057395520019531,-4.899434422302246,12.312630950164793
1789799132784628700,2.674628662109375,1.9083283607482908,-4.093336650848388,11.432761840057372
1789799132794600700,2.6846005859375,0.5493196434020996,-3.31357509765625,11.436502780151367
1789799132804573700,2.69457373046875,-1.395071379852295,-4.030039944458007,11.789797162628172
1789799132814545700,2.704545654296875,-2.6075848831176756,-4.395754248046875,11.692383082580566
1789799132824518700,2.7145185546875,0.0234931037902832,-4.147355825805664,11.509825205993652
1789799132834491000,2.724490966796875,1.7673697380065916,-4.131793515014648,10.556783307647704
1789799132844462600,2.734462646484375,2.170194167327881,-4.824615620422363,9.113528619384764
1789799132854435600,2.744435546875,1.9283797996520995,-6.0811225791931145,7.732523174285888
1789799132864407800,2.75440771484375,1.5078981330871581,-7.267748777008056,6.7942953987121575
1789799132874379500,2.764379638671875,1.4095862274169921,-8.108263197326659,5.975328793334961
1789799132884352800,2.774352783203125,1.2870330299377442,-8.263587030029296,5.821650974273681
1789799132894324700,2.78432470703125,1.127519344329834,-8.145672598266602,6.1824272369384765
1789799132904297700,2.794297607421875,0.9686042091369629,-7.720851441192626,6.777386349487304
1789799132914269700,2.804269775390625,0.847248112487793,-7.707683332061767,7.560589567565917
1789799132924241700,2.81424169921875,1.1795932304382324,-8.081178791046142,8.304737371063231
1789799132934215000,2.82421484375,2.1775264099121094,-8.545354637908934,8.506448860931396
1789799132944186600,2.8341865234375,3.3042975662231444,-8.625859668731689,8.265681956481933
1789799132954158800,2.844158935546875,3.8304233810424804,-7.39299545135498,8.524704648590088
1789799132964131800,2.8541318359375,4.312406102752686,-6.854748990631103,9.989207876586914
1789799132974103800,2.864103759765625,3.694552436828613,-7.220014381408691,10.863690032958983
1789799132984076800,2.874076904296875,3.4769793609619137,-6.438756452178954,11.377395926666258
1789799132994048800,2.884048828125,2.899078935241699,-5.712415523529052,10.823587155151367
1789799133004020700,2.894020751953125,1.8468273056030273,-5.511152946472167,10.463409442901611
1789799133013993700,2.90399365234375,1.3881880500793455,-5.378125116729736,10.98130518951416
1789799133023966000,2.913966064453125,1.770362490081787,-5.525667794036865,11.768398985290526
1789799133033937700,2.923937744140625,3.183988932800293,-5.4884080307006835,14.777760834503173
1789799133043910700,2.93391064453125,2.8784289459228516,-3.8156092582702636,15.066262134552002
1789799133053883000,2.9438828125,1.0311527275085448,-4.786906944274902,11.617863555908203
1789799133063855600,2.953855712890625,-0.3163338943481445,-6.191555130767822,7.899668377685546
1789799133073827800,2.963827880859375,-0.02663549346923828,-5.1225440895080565,9.118317022705078
1789799133083799800,2.9737998046875,1.592293741607666,-5.075108969116211,8.628403507995605
1789799133093772500,2.9837724609375,1.0595838722229003,-5.613505067443847,6.75464143371582
1789799133103744800,2.993744873046875,-0.1292868896484375,-6.5786676116943354,3.6860230934143066
1789799133113717800,3.0037177734375,2.099714855957031,-6.0227639137268065,3.3928830276489257
1789799133123689700,3.013689697265625,1.371428638458252,-3.484760516357422,5.94375525894165
1789799133133661700,3.02366162109375,-1.0018237571716309,-3.9713820037841794,3.4362779327392574
1789799133143634700,3.033634765625,0.28042086944580075,-4.2417771537780755,1.7706617652893066
1789799133153606100,3.043606201171875,0.8153753028869628,-7.047781499481201,-3.689464758300781
1789799133163578400,3.053578369140625,2.191741982269287,-8.84253491897583,-7.011419561767577
1789799133173551400,3.06355126953125,1.2758102096557618,-8.461557579803467,-4.165910888671875
1789799133183523000,3.073523193359375,-0.3764882110595703,-6.478859329986572,2.2176292877197263
1789799133193496300,3.083496337890625,-1.250072541809082,-4.274547789001464,5.723638343811035
1789799133203468000,3.093468017578125,-1.051503441619873,-2.6720786903381346,6.302735870361328
1789799133213440300,3.103440185546875,-1.6678607315063476,-2.2301988464355467,6.267421395874023
1789799133223413200,3.113413330078125,-1.336862351989746,-2.742258726501465,5.927444760131835
1789799133233385000,3.123385009765625,-1.1854290969848633,-3.6864720062255856,5.876268699645996
1789799133243358200,3.133358154296875,-1.4028525352478027,-3.5084032577514646,6.842478707122802
1789799133253330200,3.143330078125,-0.8252513847351074,-1.1079168182373047,7.7687354743957515
1789799133263302100,3.15330224609375,3.962254109954834,-1.3756184913635252,9.622595747375488
1789799133273275100,3.163275146484375,7.015609414672851,-5.995829145050048,14.124443056488037
1789799133283247400,3.173247314453125,3.6605847007751464,-4.045751892852783,12.05944412460327
1789799133293220400,3.183220458984375,-2.447023734283447,-3.484610878753662,10.077194787597655
1789799133303192000,3.193192138671875,-1.863586717224121,-3.144334967803955,6.810156984710693
1789799133313164300,3.203164306640625,-1.5198691413879393,-2.4334067123413083,4.806060557556152
1789799133323137300,3.21313720703125,-0.8560767311096191,-4.881178634643555,9.571868599700927
1789799133333109200,3.223109130859375,0.3072060005187988,-3.7208886550903317,11.838878296661376
1789799133343082200,3.233082275390625,0.015263035583496093,-4.746205516052246,12.478429415130615
1789799133353054200,3.24305419921875,-0.7044938385009765,-7.001842755126953,10.958560273742675
1789799133363026200,3.253026123046875,-1.6716016716003417,-7.103446688079834,8.577825997924805
1789799133372999200,3.262999267578125,-1.9352631294250486,-7.76963330001831,7.970297326660156
1789799133382971400,3.272971435546875,-0.37020343170166015,-9.070283351898192,8.676886091613769
1789799133392944000,3.282944091796875,-0.9576806640625,-8.339303657531739,8.321945695495605
1789799133402916000,3.292916015625,-1.5634136840820312,-8.435969549560546,8.032845845031737
1789799133412889300,3.302889404296875,-0.3199251968383789,-7.479336348724365,7.568669998168945
1789799133422861000,3.312861083984375,0.610371785736084,-6.363039824676513,6.637924102783202
1789799133432833300,3.322833251953125,1.4285902030944824,-6.159083770751953,8.112303412628174
1789799133442806300,3.33280615234375,1.890970398712158,-7.01007282333374,11.026795021057127
1789799133453402400,3.34340234375,4.1748891448974605,-6.477512591552734,10.216208121490478
1789799133463375000,3.353375,1.1186907257080076,-7.351845110321045,10.847229896545409
1789799133473347000,3.36334716796875,-0.010773907470703125,-7.135469135284423,10.40669679107666
1789799133483320300,3.3733203125,2.1507412788391114,-7.108983279418945,9.734524674987792
1789799133493292000,3.3832919921875,2.0780174034118652,-7.447613176727295,10.009109677886963
1789799133503264300,3.39326416015625,-0.41419688720703124,-8.906729450988768,10.339808782196044
1789799133513237200,3.4032373046875,-0.5374982727050781,-10.231620794677733,10.422259101867676
1789799133523209200,3.413209228515625,0.6251859085083007,-9.165752143096924,10.672004262542725
1789799133533182200,3.42318212890625,0.9840168823242187,-8.122029856872558,10.893467916107177
1789799133543154200,3.433154296875,0.06883329772949218,-6.561309649658202,11.313949582672118
1789799133553127200,3.443127197265625,0.3612251754760742,-7.232284664916992,9.363273780059814
1789799133563099100,3.45309912109375,0.5877765075683593,-5.791124903106689,11.673079831695556
1789799133573071400,3.4630712890625,0.03142389678955078,-7.235277416992187,13.155988484954833
1789799133583044400,3.47304443359375,0.24091654205322263,-8.77834038696289,9.83134020462036
1789799133593016000,3.48301611328125,0.16205752487182618,-5.658396348571777,6.236296774291992
1789799133602989300,3.4929892578125,-1.0643722755432128,-0.929548794555664,3.137900550842285
1789799133612961300,3.502961181640625,-2.0765210273742674,1.2077250999450684,0.45804070510864253
1789799133622934000,3.51293408203125,-1.9219453826904296,0.7215525253295898,2.4232313552856444
1789799133632906200,3.52290625,-1.257105509185791,-2.229899571228027,6.816741039276122
1789799133642878200,3.532878173828125,-1.1613374427795409,-4.623353043365478,8.67673645401001
1789799133652851200,3.542851318359375,-0.9515455223083495,-5.678896700286865,9.469366841125488
1789799133662823200,3.5528232421875,-0.9201216255187987,-5.840206037139892,9.904213717651366
1789799133672796200,3.562796142578125,-0.9876081848144531,-6.00106646118164,10.027215827941895
1789799133682768100,3.57276806640625,-1.3394061912536621,-6.272359436798095,9.900173502349853
1789799133692741000,3.5827412109375,-1.6445172653198241,-6.478859329986572,9.632022916412353
1789799133702713300,3.59271337890625,-1.517026026916504,-6.478260779571533,9.123404701232909
1789799133712685000,3.60268505859375,-1.1773486663818358,-5.692364084625244,8.605209679412841
1789799133722658000,3.612657958984375,-1.0640730003356933,-5.214720853424072,8.243685228729248
1789799133732630300,3.62263037109375,-1.1777975791931152,-4.971709384918213,8.360552197265624
1789799133742603300,3.632603271484375,-1.3006500518798827,-4.7399207366943354,8.475623514556885
1789799133752575200,3.6425751953125,-1.6600795761108398,-0.18240823898315428,8.864980559539795
1789799133762548200,3.65254833984375,-1.3332710494995117,1.7962497955322265,7.9761331932067865
1789799133772520200,3.662520263671875,-1.307533381652832,-4.92891303024292,8.038681711578368
1789799133782492200,3.6724921875,-1.891120036315918,-4.7884033203125,9.533411735534667
1789799133792465200,3.682465087890625,-2.1742343826293946,-1.8899229354858398,9.490316105651855
1789799133802437400,3.692437255859375,-1.5851111366271973,-1.1225813034057617,9.042001844787597
1789799133812410000,3.70241015625,-0.7152677459716796,-1.4630068519592285,9.537003038024901
1789799133822382300,3.71238232421875,-0.42063130416870115,-2.7178677970886227,10.190021540832518
1789799133832355300,3.722355224609375,-0.5083189399719238,-5.087678527832031,10.025869089508056
1789799133842327000,3.7323271484375,-1.0889128425598145,-5.970690027618408,9.807996738433838
1789799133852300300,3.74230029296875,-0.9121908325195311,-5.321113189697265,9.559448678588867
1789799133862272300,3.752272216796875,-0.8324339897155761,-2.292747364807129,10.192116467285155
1789799133872244200,3.762244140625,-1.0549451065063475,0.5995978782653808,9.872789820861815
1789799133882217200,3.77221728515625,-1.1487678840637205,1.5275006591796874,9.026738809204101
1789799133892189200,3.782189208984375,-1.0854711776733397,-0.22340894241333006,7.725789482116698
1789799133902162400,3.792162353515625,-0.8913912055969238,-2.5637410652160644,6.599616876220702
1789799133912134100,3.802134033203125,-0.9500491462707519,-2.565387078857422,6.890213102722168
1789799133922107100,3.812107177734375,-0.8059481338500976,-0.008828618621826172,7.772775689697265
1789799133932079400,3.822079345703125,-0.2136824981689453,1.1993453941345213,7.770680763244629
1789799133942052000,3.832052001953125,0.08559270935058594,3.1028853515624997,7.7799582946777335
1789799133952024300,3.8420244140625,-1.383399646759033,2.947112606048584,7.877671649932861
1789799133961996300,3.851996337890625,-1.8963573524475097,2.070385885620117,7.078307570648193
1789799133971969000,3.861968994140625,-1.0989385620117187,1.3319243110656738,7.247398062896728
1789799133981941200,3.871941162109375,-0.5517138450622558,1.86433490524292,7.9749360923767085
1789799133991914200,3.881914306640625,-1.290923607635498,0.7857470573425293,7.892186497497558
1789799134001886200,3.89188623046875,-2.063352918243408,0.7577648254394531,8.108861747741699
1789799134011859200,3.901859130859375,-2.2373814514160153,-0.5591957252502441,7.663989151763915
1789799134021831200,3.9118310546875,-1.5637129592895507,-2.0968717414855957,7.327603818511962
1789799134031804200,3.92180419921875,-1.3066355560302734,-3.905242182922363,6.7082537765502925
1789799134041776000,3.931776123046875,-2.805854708099365,-1.0422259101867675,6.4284314575195305
1789799134051749000,3.9417490234375,-2.7410616256713864,3.018340105438232,5.531354022979736
1789799134061721000,3.95172119140625,0.7662941688537597,0.14006079711914063,5.352237811279297
1789799134071693000,3.961693115234375,0.27727847976684566,-5.893626661682129,4.664353746795654
1789799134081666300,3.971666259765625,0.43140521163940426,-14.155866953277586,2.316090830993652
1789799134091638000,3.981637939453125,0.16355390090942382,-18.390311864471435,3.4386721343994138
1789799134101611300,3.991611328125,-1.9029414070129393,-17.720982862854004,8.257900801086425
1789799134111583200,4.001583251953125,-3.545214108276367,-13.129352991485595,11.537957075500488
1789799134121556200,4.01155615234375,-2.267009696960449,-5.889436808776855,9.592817864227294
1789799134131528200,4.021528076171875,0.3935468978881836,-3.099593324279785,8.274959487915039
1789799134141500700,4.031500732421875,-0.11387421646118163,-5.099350260925292,8.134749053192138
1789799134151473000,4.041472900390625,-1.6756418869018554,-6.591087532806396,8.198793947601319
1789799134161446000,4.05144580078125,-1.7281646858215332,-5.639392372894287,7.607426137542724
1789799134171417600,4.06141748046875,-1.3989619575500487,-4.678718956756591,6.8122519111633295
1789799134181390800,4.071390869140625,-0.5814917282104491,-5.505167442321777,6.261585529327392
1789799134191362800,4.08136279296875,-0.6509235763549804,-4.883273561096191,7.070526415252685
1789799134201334800,4.091334716796875,-0.536899722290039,-3.4626141510009765,7.710975359344482
1789799134211307800,4.101307861328125,0.005087678527832031,-2.101660144805908,7.921216192626953
1789799134221279700,4.11127978515625,0.10714052429199218,-2.3612813873291016,7.761253594207763
1789799134231253000,4.1212529296875,0.0757166275024414,-2.9715035354614256,9.195530026245116
1789799134241224700,4.131224609375,-0.08215104446411133,-2.8817209732055664,9.883713365936279
1789799134251197700,4.14119775390625,0.11327566604614257,-3.3635540573120117,10.156053804779052
1789799134261170000,4.151169921875,-0.06913257293701172,-4.473715439605713,11.042656607055664
1789799134271142700,4.161142578125,-0.21054010848999022,-4.7117888671875,11.604096896362304
1789799134281115000,4.171114990234375,0.2498947982788086,-5.805490113067626,11.975946341705322
1789799134291088000,4.181087890625,0.5451297904968262,-6.6805708198547356,11.741613854217528
1789799134301059800,4.191059814453125,0.8086416107177734,-6.50534518585205,11.646145063018798
1789799134311032800,4.20103271484375,1.1975497428894042,-5.481823976135254,11.809250051116942
1789799134321004800,4.2110048828125,1.7137994758605957,-5.395782353973388,10.874912853240966
1789799134330977800,4.220977783203125,1.8445827415466307,-5.331438184356689,10.267683457183837
1789799134340949800,4.23094970703125,1.0437222862243651,-5.5726540016174315,10.683376720428466
1789799134350922800,4.2409228515625,0.9512462471008301,-5.797559320068359,10.589404305267333
1789799134360895000,4.25089501953125,1.4062942001342773,-6.195296070861816,10.075249498748779
1789799134370866700,4.26086669921875,1.511190160369873,-6.2675710334777825,10.005967288208007
1789799134380840000,4.27083984375,1.4158710067749023,-6.587047317504882,10.050559294128417
1789799134390812000,4.28081201171875,1.2870330299377442,-6.982539504241943,10.00342344894409
1789799134400784600,4.29078466796875,0.9947907897949219,-7.415291454315185,9.79378116607666
1789799134410756900,4.3007568359375,0.8017582809448242,-7.589469625091552,9.259574920654297
1789799134420729900,4.310729736328125,0.6591536445617675,-6.909067440795898,8.34439133605957
1789799134430701800,4.320701904296875,-0.8635586112976074,-4.639214629364013,7.025635134124755
1789799134440674800,4.3306748046875,0.2180219886779785,-2.860622071075439,6.730400141906738
1789799134450646800,4.340646728515625,1.7176900535583495,-3.412335916137695,7.341520115661621
1789799134460620000,4.3506201171875,1.2720692695617675,-4.2031706520080565,8.547150289154052
1789799134470591700,4.360591796875,0.0053869537353515625,-5.269937129211425,8.979154051208496
1789799134480564700,4.370564697265625,-0.29553426742553707,-6.279542041778564,8.872911352539061
1789799134490537000,4.380536865234375,0.16130933685302734,-7.171831072998047,8.783727340698242
1789799134500509700,4.390509765625,0.40222587890625,-7.728632596588135,8.776095822906493
1789799134510482000,4.40048193359375,0.5419874008178711,-8.093598712158203,8.462006492614746
1789799134520455000,4.410454833984375,0.3705027069091797,-7.883806791687011,8.54191297302246
1789799134530426600,4.420426513671875,0.35613749694824215,-8.394819208526611,7.687781530761718
1789799134540399900,4.43039990234375,-0.11103110198974608,-7.4699091796875,8.56211404953003
1789799134550371800,4.440371826171875,-0.4736030158996582,-7.423072609710693,8.981847528076171
1789799134560344800,4.4503447265625,-0.5853823059082031,-7.909394821929931,8.552088330078124
1789799134570316800,4.46031689453125,-0.6082768592834472,-7.461230198669433,8.361001110076904
1789799134580289800,4.470289794921875,-0.6212953308105469,-6.986280444335937,8.360103284454345
1789799134590262000,4.480261962890625,-0.45055882492065424,-6.477362953948974,8.084620455932617
1789799134600234800,4.49023486328125,-0.24750059661865234,-5.9591679321289055,7.848941230010986
1789799134610206700,4.500206787109375,0.026186580657958983,-5.6564510597229,7.384466107940673
1789799134620180000,4.510179931640625,0.3259107009887695,-5.552752200317382,6.860135944366455
1789799134630151700,4.520151611328125,0.5976525894165039,-5.600935508728027,6.6510922119140625
1789799134640124700,4.530124755859375,0.8870517150878906,-5.84753827972412,6.725761376190185
1789799134650097000,4.540096923828125,1.370081900024414,-6.322637671661377,6.970119583129883
1789799134660070000,4.55006982421875,1.555782166290283,-6.9442322776794425,7.24021545791626
1789799134670041900,4.560041748046875,1.512536898803711,-7.6990043510437,7.5984478813171386
1789799134680014800,4.570014892578125,1.068113215637207,-8.236951536560058,7.960121969604492
1789799134689987000,4.579987060546875,0.4354454269409179,-8.422502165222168,8.39511848373413
1789799134699959800,4.589959716796875,0.09322422714233398,-8.265532318878174,8.904634524536132
1789799134709931800,4.599931884765625,0.3585316986083984,-8.012794406127929,9.524583116912842
1789799134719905000,4.609905029296875,0.5777507881164551,-7.543830155944824,9.83178911743164
1789799134729876700,4.619876708984375,0.6578069061279297,-7.158064413452148,10.557830770874023
1789799134739849700,4.629849609375,-0.1131260284423828,-6.618321576690674,10.283993955993651
1789799134749822000,4.639822021484375,-1.0371382316589355,-6.206967803955078,9.728539170837402
1789799134759794700,4.649794677734375,-1.2222399475097656,-6.369773516845703,9.20031842956543
1789799134769767000,4.659766845703125,-1.0850222648620604,-6.642113955688476,8.262838842010497
1789799134779740000,4.669739990234375,-0.9479542198181152,-6.785766055297851,8.003666512298583
1789799134789711600,4.679711669921875,-0.6036380935668945,-6.669796912384033,7.658452560424804
1789799134799684900,4.689684814453125,-0.11926117019653319,-6.60754766921997,7.623886273956298
1789799134809656800,4.69965673828125,-0.2041056915283203,-6.358999609374999,7.899668377685546
1789799134819629800,4.7096298828125,-0.4317044868469238,-6.34613077545166,8.012195855712891
1789799134829601800,4.719601806640625,-0.6561608924865723,-6.139481244659423,8.035988234710693
1789799134839574800,4.72957470703125,-0.9706991355895995,-5.79052635269165,8.2100167678833
1789799134849547000,4.739547119140625,-0.9044096771240234,-5.658396348571777,8.700977745819092
1789799134859519700,4.749519775390625,-0.950647696685791,-5.495590635681152,8.775048359680175
1789799134869491700,4.75949169921875,-0.7230489013671875,-5.2910360313415525,8.825176956939696
1789799134879465000,4.76946484375,-0.33922844772338867,-5.070919116210937,8.996960926055907
1789799134889436700,4.779436767578125,-0.033518823242187495,-4.844816696929931,9.39080709915161
1789799134899409700,4.78940966796875,0.00014963760375976562,-4.6636055587768555,9.883713365936279
1789799134909382000,4.7993818359375,0.009576806640625,-4.5611038002014155,10.129418311309815
1789799134919355000,4.80935498046875,-0.054468087768554684,-4.6474446975708,10.114753826141357
1789799134929326800,4.819326904296875,-0.4355950645446777,-4.7007156845092775,9.827898539733885
1789799134939299800,4.8292998046875,-0.8038532073974609,-4.632181661987304,9.376890802001952
1789799134949271800,4.839271728515625,-1.0639233627319336,-4.572625895690917,9.069984076690673
1789799134959244800,4.849244873046875,-1.0060136100769042,-4.508132088470458,8.964938478851318
1789799134969216800,4.859216796875,-0.7523778717041015,-4.436754951477051,8.943241026306152
1789799134979189800,4.869189697265625,-0.7653963432312011,-4.377947373199462,9.057713793182373
1789799134989161700,4.87916162109375,-0.8361749298095703,-4.536413595581054,9.188497058868407
1789799134999134700,4.889134765625,-0.8361749298095703,-4.745906240844726,9.311199893951416
1789799135009107000,4.89910693359375,-0.8532336166381835,-4.824316345214844,9.409960712432861
1789799135019080000,4.909079833984375,-0.8824129493713379,-4.846013797760009,9.45560018157959
1789799135029052000,4.919052001953125,-1.028608888244629,-4.837634091949463,9.420285707092285
1789799135039025000,4.92902490234375,-1.460163737487793,-4.837634091949463,9.389161085510253
1789799135048996900,4.938996826171875,-1.4716858329772948,-4.771793546295166,9.700407301330566
1789799135058969900,4.948969970703125,-1.37262573928833,-4.729146829223633,9.982474184417724
1789799135068941800,4.95894189453125,-1.573140128326416,-4.878335520172119,9.909750308990478
1789799135078914800,4.968914794921875,-1.8245313026428223,-5.125536841583251,9.835978970336914
1789799135088886800,4.97888671875,-1.2906243324279785,-5.377975479125976,9.580547580718994
1789799135098859800,4.98885986328125,-1.00227266998291,-5.197811804199218,9.188497058868407
1789799135108832000,4.99883203125,-1.188122573852539,-5.055207167816162,8.643516905975341
1789799135118805000,5.008804931640625,-0.5295674797058105,-5.004629657745361,8.340351120758056
1789799135128776700,5.018776611328125,-0.1135749412536621,-4.94118331375122,8.253112397766113
1789799135138750000,5.02875,0.08993219985961913,-4.74366167678833,8.467991996765136
1789799135148724000,5.038723876953125,-0.5505167442321777,-4.717175820922852,8.933065669250487
1789799135158697000,5.048697021484375,-0.6690297264099121,-4.448875597381591,9.36536870651245
1789799135168669000,5.0586689453125,-0.6314706878662109,-4.040364939117431,9.683498252105712
1789799135178642000,5.068641845703125,-0.6830956611633301,-3.76682739944458,9.611223289489745
1789799135188614000,5.07861376953125,-1.4022539848327635,-3.7931636177062984,9.170091633605956
1789799135198587000,5.0885869140625,-1.0057143348693847,-3.620481822967529,8.63124662246704
1789799135208558800,5.098558837890625,-0.5410895751953124,-3.106626291656494,7.75721337890625
1789799135218531800,5.10853173828125,0.04967968444824218,-2.6033950302124023,7.055113742065429
1789799135228504000,5.118504150390625,0.5276221908569335,-2.256834339904785,6.2784945785522455
1789799135238476800,5.128476806640625,0.05820902786254883,-1.8722656982421875,5.649118817138672
1789799135248448800,5.13844873046875,-0.36915596847534177,-1.4853028549194336,5.751620575714111
1789799135258422000,5.148422119140625,-0.2533364631652832,-1.4387655601501463,5.806986489105224
1789799135268395000,5.15839501953125,-0.007781155395507812,-1.8338088340759275,5.533299311828613
1789799135278366700,5.16836669921875,-0.7058405769348144,-2.205209366607666,5.33068999633789
1789799135288340000,5.178340087890625,-0.9216180015563964,-2.117072817993164,5.763292308807372
1789799135298312000,5.18831201171875,-0.5376479103088379,-1.975964557647705,6.464494120025634
1789799135308284700,5.19828466796875,-0.9274538681030273,-2.0542250244140625,7.210138299560547
1789799135318257000,5.2082568359375,-1.686116519165039,-1.9009961181640624,7.622090622711181
1789799135328230000,5.21822998046875,-1.4763245986938476,-1.5343839889526367,7.6659344406127925
1789799135338201900,5.228201904296875,-1.412878254699707,-1.2190975578308105,7.4699091796875
1789799135348174800,5.2381748046875,-1.5491981117248534,-1.4254478134155273,7.161356440734862
1789799135358146800,5.248146728515625,-2.0127754081726072,-1.7974468963623045,6.866719998931885
1789799135368120000,5.2581201171875,-1.8248305778503418,-1.9436428352355957,6.706607762908935
1789799135378091800,5.268091796875,-1.4146739059448241,-1.9470845001220702,6.654833152008056
1789799135388064800,5.278064697265625,-1.6232687255859375,-1.740434969329834,6.9156514953613275
1789799135398037000,5.288037109375,-1.5408184059143066,-1.7010802795410156,6.93959351196289
1789799135408009700,5.298009765625,-1.5937901176452636,-1.7989432723999021,6.640318304443359
1789799135417982000,5.30798193359375,-1.6512509574890135,-1.9194015434265135,6.274304725646973
1789799135427955000,5.317954833984375,-1.4948796615600586,-1.9949685333251952,6.260238790893554
1789799135437926700,5.3279267578125,-1.5110405227661132,-2.029534819793701,6.310965938568115
1789799135447900000,5.33789990234375,-1.3130699729919433,-2.0745757385253905,6.4381579017639154
1789799135457872000,5.347871826171875,-1.1914146011352538,-2.1766285842895505,6.81180299835205
1789799135467844900,5.357844970703125,-1.2798504249572753,-2.34287596206665,7.336432437133789
1789799135477816800,5.36781689453125,-1.3494319107055663,-2.577806999969482,7.977031018829345
1789799135487789800,5.377789794921875,-1.5664064361572265,-2.927809355163574,8.677484642028809
1789799135497762800,5.3877626953125,-1.9578584075927734,-3.427748589324951,9.13642317276001
1789799135507734800,5.39773486328125,-1.8867805458068847,-3.9227497825622555,9.261819484710692
1789799135517707800,5.407707763671875,-1.7289128738403319,-4.321085083770751,9.41684404220581
1789799135527680000,5.417679931640625,-1.6335937202453612,-4.544643663787841,9.527725506591796
1789799135537653000,5.427653076171875,-1.3150152618408202,-4.636221877288818,9.350255308532715
1789799135547624700,5.437624755859375,-0.9494505958557128,-4.504989698791504,9.368211820983886
1789799135557598000,5.447597900390625,-0.7902361854553223,-4.37330860748291,9.401880281829833
1789799135567570000,5.45756982421875,-0.7058405769348144,-4.221276802062988,9.36536870651245
1789799135577542700,5.467542724609375,-0.5915174476623535,-4.186411240386962,9.205705383300781
1789799135587515000,5.477514892578125,-0.4423287567138672,-4.295347415924072,8.985738105773926
1789799135597487900,5.48748779296875,-0.39279870986938475,-4.659565343475341,8.96344210281372
1789799135607459800,5.4974599609375,-0.39264907226562495,-5.047575650024414,8.777592198944092
1789799135617432800,5.507432861328125,-0.41584290084838865,-5.180453842163086,8.864830921936035
1789799135627405000,5.517405029296875,-0.3667617668151855,-5.173869787597656,8.998307664489746
1789799135637378000,5.5273779296875,-0.4113537727355957,-5.409848288726806,9.04664061050415
1789799135647349800,5.537349853515625,-0.1949777976989746,-5.753865139770507,9.044695321655272
1789799135657323000,5.547322998046875,0.0025438392639160153,-6.188712016296386,9.038111267089842
1789799135667295000,5.557294921875,-0.07197568740844726,-6.696582043457031,9.121609049987793
1789799135677267700,5.567267822265625,-0.35404257049560545,-7.088034014892577,9.16186156539917
1789799135687241000,5.577240966796875,-0.19303250885009765,-7.287800215911865,8.984391367340088
1789799135697213000,5.587212890625,0.04519055633544922,-7.341071202850341,8.892513878631592
1789799135707186000,5.59718603515625,-0.016160861206054686,-7.249044076538086,8.697386443328856
1789799135717158000,5.607157958984375,-0.40462008056640625,-7.299920861816406,8.884732723236084
1789799135727131000,5.617130859375,-0.29358897857666016,-7.478438523101806,9.285761501312255
1789799135737103000,5.62710302734375,0.117465518951416,-7.681197476196289,9.655516020202636
1789799135747075800,5.637075927734375,0.20694880599975585,-7.942764007568359,10.048165092468262
1789799135757047800,5.6470478515625,0.13542203140258788,-8.051550545501708,10.39951418609619
1789799135767021000,5.65702099609375,0.1092354507446289,-7.926902421569824,10.244639266204834
1789799135776992800,5.66699267578125,-0.026186580657958983,-7.810484365844726,10.016441920471191
1789799135786965800,5.6769658203125,-0.1475426773071289,-7.52692110671997,9.59625952911377
1789799135796938000,5.68693798828125,-0.1518821678161621,-7.3283520065307615,9.254636879730224
1789799135806910700,5.69691064453125,-0.13766659545898435,-7.223007133483886,9.072827191162109
1789799135816883000,5.706883056640625,0.027084406280517576,-7.113173132324218,8.802731316375732
1789799135826856000,5.71685595703125,0.17986439971923826,-7.12529377822876,8.768015392303466
1789799135836829000,5.726828857421875,0.25094226150512694,-7.031770275878906,8.615085761260985
1789799135846801000,5.73680078125,0.08798691101074219,-6.7924997474670405,8.520514795684814
1789799135856774000,5.74677392578125,-0.10354922180175781,-6.675932054138183,8.311022150421142
1789799135866745900,5.756745849609375,-0.10115502014160156,-6.641365767669678,7.6750623344421385
1789799135876718800,5.76671875,-0.12943652725219726,-6.5126774284362785,7.547122183227539
1789799135886690800,5.77669091796875,-0.05282207412719726,-6.228665256500244,7.734318825531005
1789799135896663800,5.786663818359375,-0.03591302490234375,-5.962160684204101,8.0575360496521
1789799135906635800,5.7966357421875,-0.17761983566284179,-5.690568433380126,8.492831838989257
1789799135916608800,5.80660888671875,-0.19617489852905273,-5.529857646942139,8.905382712554932
1789799135926581000,5.8165810546875,-0.020350714111328123,-5.661389100646972,9.229198487091065
1789799135936554000,5.826553955078125,0.19422960968017577,-6.091597211456299,9.401730644226074
1789799135946525700,5.836525634765625,0.16879121704101563,-6.604704554748535,9.554660275268555
1789799135956499000,5.8464990234375,0.2454056701660156,-6.986430081939697,9.879673150634765
1789799135966471000,5.856470947265625,0.49679684448242184,-7.222258945465088,10.060136100769043
1789799135976443600,5.866443603515625,0.5545569595336913,-7.1854480949401855,9.820715934753418
1789799135986417000,5.8764169921875,0.6931213806152343,-6.95231270828247,9.478494734954834
1789799135996388900,5.886388916015625,0.6419453201293945,-6.8970964324951165,9.024045332336426
1789799136006361900,5.89636181640625,0.3865139305114746,-6.81853669052124,8.114847251892089
1789799136016333800,5.906333740234375,0.26665420989990235,-6.712892542266846,7.952789727020263
1789799136026306800,5.916306884765625,-0.0570119270324707,-6.822127993011474,7.834276744842529
1789799136036279000,5.926279052734375,-0.5211877738952636,-7.011120286560058,7.495048297119141
1789799136046251800,5.936251708984375,-0.8921393936157226,-7.116614797210693,7.175123100280762
1789799136056223700,5.9462236328125,-1.0910077690124511,-6.990021384429931,7.1668930320739745
1789799136066197000,5.956197021484375,-1.016338604736328,-6.86267978363037,7.583633758544922
1789799136076168700,5.966168701171875,-0.7818564796447753,-6.745513539886474,8.355165243530273
1789799136086142000,5.976141845703125,-0.9944915145874023,-6.5318310417175285,9.241618408203124
1789799136096114000,5.986114013671875,-1.142183829498291,-6.382343075561523,9.677662385559081
1789799136106087000,5.9960869140625,-1.247528702545166,-6.391171694183349,9.7170170753479
1789799136116060000,6.006059814453125,-1.1616367179870606,-6.453420937347412,9.494356320953369
1789799136126032000,6.016031982421875,-0.7656956184387207,-6.328623175811767,9.107692752838135
1789799136136004900,6.0260048828125,-0.155772745513916,-6.028599780273437,9.220220230865477
1789799136145975600,6.0359755859375,0.445620783996582,-5.6401405609130855,9.430461064147948
1789799136155948500,6.045948486328125,0.6551134292602538,-5.391592501068115,9.354445161437988
1789799136165920800,6.055920654296875,0.49739539489746093,-5.159205302429199,9.209595960998534
1789799136175893500,6.0658935546875,-0.044292730712890624,-4.838681555175781,9.16201120300293
1789799136185865700,6.07586572265625,-0.6138134506225585,-4.4945150665283204,9.294141207122802
1789799136195838700,6.085838623046875,-0.8300397880554199,-4.293551764678955,9.188497058868407
1789799136205810400,6.095810546875,-1.0778396598815918,-4.3540053565979004,9.07836378250122
1789799136215783700,6.10578369140625,-1.0197802696228027,-4.549731342315674,8.974216010284424
1789799136225755600,6.115755615234375,-0.9615712417602539,-4.830601124572754,8.978705138397217
1789799136235728400,6.125728271484375,-0.7909843734741211,-4.989815534973144,9.130736943817139
1789799136245701600,6.13570166015625,-0.6542156036376953,-5.154416899108886,8.942043925476074
1789799136255673600,6.145673583984375,-0.632667788696289,-5.261258148193359,8.818592902374267
1789799136265646600,6.155646484375,-0.9720458740234375,-5.335478399658203,8.820538191223145
1789799136275618600,6.16561865234375,-1.2982558502197266,-5.419275457763671,8.56794991607666
1789799136285591600,6.175591552734375,-1.01514150390625,-5.336974775695801,8.255955512237549
1789799136295563800,6.185563720703125,-0.5828384666442871,-5.20963317489624,8.264784130859374
1789799136305536500,6.19553662109375,-0.4103063095092773,-4.932205057525635,9.132382957458496
1789799136315508500,6.205508544921875,-0.7924807495117187,-5.1422962532043455,9.559598316192627
1789799136325481700,6.215481689453125,-1.2005424949645995,-5.519981565093993,10.000729972076416
1789799136335453400,6.225453369140625,-1.2651859397888183,-5.781548096466064,10.32319900817871
1789799136345426400,6.235426513671875,-1.0562918449401855,-5.597942756652832,10.771513269042968
1789799136355399700,6.245399658203125,-0.928950244140625,-5.138854588317871,10.593594158172607
1789799136365371600,6.25537158203125,-0.865054987335205,-4.511274478149414,10.365546450042723
1789799136375344600,6.2653447265625,-1.6133926437377928,-4.351311879730225,9.658808047485351
1789799136385316600,6.275316650390625,-1.3028946159362793,-4.099471792602539,9.045742784881591
1789799136395289600,6.28528955078125,-1.0666168395996094,-3.7383962547302243,8.715642230987548
1789799136405261600,6.295261474609375,-0.6607996582031249,-3.4337340934753415,8.526500299835204
1789799136415234600,6.305234619140625,-0.14050970993041992,-3.489100006866455,7.290493692779541
1789799136425206800,6.315206787109375,0.19512743530273435,-3.012803514099121,6.867168911743164
1789799136435179800,6.3251796875,0.15517419509887695,-2.704998963165283,6.910863092041015
1789799136445151500,6.3351513671875,0.43978491744995113,-2.764854004669189,6.5758244972229
1789799136455124700,6.345124755859375,0.6636427726745605,-2.7729344352722167,5.980566109466553
1789799136465097700,6.35509765625,0.3275567146301269,-2.788047833251953,5.416581980895995
1789799136475069400,6.3650693359375,0.5596446380615234,-2.613720024871826,5.157110375976562
1789799136485042700,6.375042724609375,0.48243163452148435,-2.1869535789489745,5.536292063903808
1789799136495014700,6.3850146484375,-0.2668038475036621,-1.981052236175537,5.784690486145019
1789799136504987600,6.394987548828125,-1.1309610092163085,-2.041655465698242,5.821501336669922
1789799136514959600,6.404959716796875,-1.632396619415283,-2.148945627593994,5.7411459434509275
1789799136524932600,6.4149326171875,-1.1053729789733886,-1.9147627777099607,6.177189920806884
1789799136534904800,6.42490478515625,-0.49859249572753905,-1.8082208038330077,5.8177603965759275
1789799136544877600,6.434877685546875,-1.0134954902648925,-1.5951368560791015,5.672013370513915
1789799136554849500,6.444849609375,-0.9430161788940429,-1.3730746520996093,5.744138695526122
1789799136564822800,6.45482275390625,-1.1276689819335937,-1.3919289901733398,6.188562378692627
1789799136574795800,6.464795654296875,-1.6099509788513182,-1.7166425903320313,6.894103680419922
1789799136584767500,6.474767578125,-1.973271080780029,-2.074426100921631,7.342717216491699
1789799136594740700,6.48474072265625,-1.8203414497375487,-2.3032219970703123,7.5546040634155265
1789799136604712700,6.494712646484375,-1.4659996040344236,-2.5526678825378415,7.296179921722412
1789799136614685400,6.504685546875,-1.6428712516784667,-2.6984149085998532,7.013813763427734
1789799136624657700,6.51465771484375,-1.7577929313659666,-2.915090158843994,6.598569412994385
1789799136634630700,6.524630615234375,-1.8206407249450682,-3.103334264373779,6.265625744628906
1789799136644602600,6.5346025390625,-1.779340746307373,-3.229778039550781,6.201281575012207
1789799136654575600,6.54457568359375,-1.8254291282653807,-3.2417490478515623,6.248866333007812
1789799136664547600,6.554547607421875,-1.647809292602539,-3.206883486175537,6.434716236877441
1789799136674520800,6.564520751953125,-1.615936483001709,-3.1687258972167966,6.705859574890137
1789799136684493600,6.57449365234375,-1.941398271179199,-3.197755592346191,6.994211237335205
1789799136694465500,6.584465576171875,-2.0603601661682127,-3.2855928657531734,7.224054596710205
1789799136704438800,6.594438720703125,-1.3703811752319335,-3.429095327758789,7.153126372528075
1789799136714410500,6.604410400390625,-1.159392153930664,-3.527856146240234,7.231686114501953
1789799136724383500,6.614383544921875,-1.4170681076049805,-3.634847032928467,7.485920403289795
1789799136734355700,6.624355712890625,-1.1761515655517578,-3.7256770584106444,7.774571340942383
1789799136744328700,6.63432861328125,-0.8059481338500976,-3.851073370361328,8.170662078094482
1789799136754300700,6.64430078125,-0.9106944564819336,-4.057722901153564,8.77115778198242
1789799136764273700,6.654273681640625,-0.778265177154541,-4.393509683990478,9.07821414489746
1789799136774245400,6.664245361328125,-0.2614168937683105,-4.92277788848877,9.149740919494628
1789799136784218600,6.674218505859375,-0.16953940505981444,-5.499481213378906,9.393350938415526
1789799136794191600,6.684191650390625,-0.08783727340698241,-6.07768091430664,9.728239895629882
1789799136804163600,6.69416357421875,0.1833060646057129,-6.682516108703613,10.25286933441162
1789799136814136600,6.704136474609375,0.4516062881469726,-7.043292371368408,10.696993742370605
1789799136824108500,6.714108642578125,0.4079121078491211,-6.979546752166748,10.86608423461914
1789799136834081500,6.72408154296875,0.2715922508239746,-6.93959351196289,10.892570090484618
1789799136844053500,6.734053466796875,0.24615385818481444,-6.730699417114257,10.825233168792725
1789799136854026500,6.744026611328125,0.4875193130493164,-6.493374177551269,10.52206738357544
1789799136863998700,6.753998779296875,0.43200376205444335,-6.278793853759765,10.309581986236571
1789799136873971700,6.7639716796875,0.596305850982666,-6.069450846099853,10.242095426940917
1789799136883943700,6.773943603515625,0.17133505630493162,-6.004957038879394,10.354622904968261
1789799136893916700,6.783916748046875,-0.009576806640625,-6.044012453460693,10.200047260284423
1789799136903889700,6.7938896484375,0.13168109130859373,-6.298994930267334,10.082132828521727
1789799136913861600,6.803861572265625,0.0743698890686035,-6.714089643096924,10.067169068145752
1789799136923834600,6.813834716796875,0.13976152191162108,-7.136965511322021,10.143783521270752
1789799136933806600,6.823806640625,0.10025719451904297,-7.723096005249023,9.893589447784423
1789799136943779600,6.833779541015625,-0.07347206344604491,-8.131157750701904,9.553762449645996
1789799136953751600,6.84375146484375,-0.14425065002441406,-8.160785996246338,9.418190780639648
1789799136963724500,6.853724609375,-0.18914193115234373,-7.775020253753661,9.152284758758544
1789799136973696800,6.86369677734375,-0.1988683753967285,-7.308749480438232,8.810811746978759
1789799136983669500,6.87366943359375,-0.33488895721435546,-6.839635592651367,8.619125976562499
1789799136993642500,6.883642578125,-0.5087678527832031,-6.700921533966064,8.28693049621582
1789799137003614700,6.89361474609375,-0.7206546997070312,-6.767061354827881,8.333318153381347
1789799137013587700,6.903587646484375,-0.3155857063293457,-6.890811653137207,8.18502728805542
1789799137023559700,6.9135595703125,-0.11387421646118163,-6.931961994171142,7.885452805328368
1789799137033532700,6.92353271484375,-0.3012204963684082,-6.786214968109131,7.811382191467285
1789799137043504600,6.933504638671875,-0.4748001167297363,-6.360795260620117,7.879317663574218
1789799137053477600,6.9434775390625,-0.43290158767700193,-5.898564702606201,8.087313932800292
1789799137063449600,6.95344970703125,-0.27308862686157226,-5.758503905487061,8.37521668243408
1789799137073422600,6.963422607421875,-0.035464112091064454,-5.978471183013916,8.569296654510497
1789799137083394600,6.97339453125,0.3107973030090332,-6.500257507324219,8.68840818710327
1789799137093367600,6.983367431640625,0.46582186050415036,-7.146093405151367,8.767416841888426
1789799137103340500,6.993340576171875,0.5916670852661132,-7.7507789619445795,8.628104232788086
1789799137113312800,7.003312744140625,0.8758288948059082,-8.173056279754638,8.476820615386963
1789799137123285500,7.013285400390625,0.8032546569824218,-8.256554062652587,8.24952109527588
1789799137133257700,7.0232578125,0.7025485496520996,-8.1341505027771,8.138789268493651
1789799137143230000,7.03322998046875,0.7817068420410156,-7.462576937103271,8.239345738220214
1789799137153202200,7.0432021484375,0.5799953521728515,-6.739228760528564,8.249670732879638
1789799137163175200,7.053175048828125,0.12000935821533203,-6.225373229217529,8.210465680694579
1789799137173147000,7.06314697265625,-0.10998363876342773,-5.783194110107422,8.238896825408935
1789799137183120100,7.0731201171875,0.15083470458984374,-5.826439377593994,8.479663729858398
1789799137193093000,7.083093017578125,0.11267711563110351,-6.144269647979736,8.850764987182616
1789799137203065000,7.093065185546875,-0.479438882446289,-6.302735870361328,9.008483021545409
1789799137213038000,7.1030380859375,-0.9879074600219726,-6.426486168670654,9.115324270629882
1789799137223010000,7.113010009765625,-0.9157821350097656,-6.602609628295898,9.08539674987793
1789799137232983000,7.122983154296875,-1.1953051788330078,-6.795043586730957,8.77774183654785
1789799137242955000,7.132955078125,-1.7236755577087401,-7.060351058197021,8.284536294555664
1789799137252928000,7.142927978515625,-1.6208745239257811,-7.359476628112793,8.340500758361816
1789799137262900200,7.152900146484375,-1.6326958946228027,-7.537844651794433,8.551190504455565
1789799137272873200,7.162873291015625,-1.1698667861938477,-7.417984931182861,8.751255980682373
1789799137282845000,7.172844970703125,-0.9706991355895995,-7.141454639434814,8.93755479736328
1789799137292818200,7.182818115234375,-1.0149918663024902,-6.74805737915039,8.95715732345581
1789799137302791200,7.192791259765625,-1.0938508834838867,-6.281188055419921,9.00833338394165
1789799137312763000,7.202762939453125,-1.168968960571289,-5.908740059661865,9.027786272430419
1789799137322736000,7.212736083984375,-0.7694365585327148,-5.724835444641113,8.89371097946167
1789799137332708000,7.2227080078125,-0.2510918991088867,-5.729773485565185,9.183409380340576
1789799137342681000,7.23268115234375,-0.16250643768310546,-5.97592734375,9.58952583694458
1789799137352653000,7.242653076171875,-0.4474164352416992,-6.179434484863281,10.1131078125
1789799137362626000,7.2526259765625,-0.37499183502197264,-6.28223551864624,10.504559783935546
1789799137372598300,7.262598388671875,-0.6271311973571777,-6.213402220916747,10.55947678451538
1789799137382571000,7.272571044921875,-0.988356372833252,-5.942707795715331,10.743231761932373
1789799137392544000,7.2825439453125,-1.0453682998657226,-5.77167201461792,11.034276901245116
1789799137402516200,7.29251611328125,-0.931494083404541,-5.595099642181396,11.272051053619384
1789799137412489200,7.3024892578125,-0.5300163925170898,-5.324255579376221,11.666944689941406
1789799137422461000,7.3124609375,-0.04339490509033203,-5.272331330871582,11.655721869659423
1789799137432434200,7.32243408203125,-0.31648353195190426,-5.237016856384277,11.304223138427734
1789799137442406100,7.33240625,-0.03411737365722656,-5.108478154754638,11.205761595153808
1789799137452379000,7.34237890625,0.37933132553100585,-4.909160866546631,10.761936462402343
1789799137462351000,7.35235107421875,-0.021996727752685546,-4.741566750335693,10.011204604339598
1789799137472324000,7.362323974609375,0.19288287124633788,-4.526687151336669,9.20540610809326
1789799137482296000,7.372296142578125,0.1815104133605957,-4.397849174499512,8.139088543701172
1789799137492269000,7.38226904296875,0.18106150054931638,-4.033780884552002,7.135319497680664
1789799137502242000,7.392241943359375,0.21862053909301757,-3.572597789764404,6.670694738006591
1789799137512214300,7.40221435546875,0.3872621185302734,-3.1138088966369626,6.593781009674072
1789799137522187000,7.41218701171875,0.07377133865356444,-2.984073094177246,6.657975541687011
1789799137532159000,7.422158935546875,-0.10429740982055663,-2.977788314819336,6.817788502502441
1789799137542132200,7.43213232421875,0.222810391998291,-2.970605709838867,6.58270782699585
1789799137552104000,7.44210400390625,0.6594529197692871,-2.830694550323486,6.000617548370361
1789799137562077000,7.452076904296875,0.7761702507019043,-2.422932080078125,5.416731618499756
1789799137572049200,7.462049072265625,0.8462006492614745,-2.1048025344848633,5.268740028381347
1789799137582022100,7.472022216796875,0.8834604125976562,-1.6748936988830565,5.242852722930908
1789799137591995000,7.481994873046875,0.9769839149475097,-1.1783961296081542,5.599588770294189
1789799137601967000,7.491967041015625,-0.16849194183349608,-0.9615712417602539,5.76478868484497
1789799137611940000,7.501940185546875,-2.0151696098327636,-1.4443021514892578,5.617096369934082
1789799137621912000,7.511912109375,-2.8675054008483887,-1.9023428565979004,5.289539655303955
1789799137631885000,7.521885009765625,-2.2213702278137206,-2.18321263885498,6.016928047180175
1789799137641857000,7.53185693359375,-1.4909890838623046,-2.6301801612854003,6.673088939666748
1789799137651830000,7.541830078125,-1.2714707191467285,-2.673575066375732,7.0549641044616695
1789799137661802000,7.551802001953125,-1.3159130874633789,-2.365920153045654,7.133374208831786
1789799137671775000,7.56177490234375,-1.8703204093933103,-2.0183119995117185,6.402394514465332
1789799137681747000,7.571746826171875,-1.8183961608886718,-1.4299369415283203,6.610989334106445
1789799137691720000,7.581719970703125,-1.481711552429199,-1.2499229042053221,5.775712229919433
1789799137701693200,7.591693115234375,-1.4104840530395506,-1.2324153045654296,5.251980616760253
1789799137711665200,7.6016650390625,-1.1148001480102538,-1.158793603515625,5.232827003479003
1789799137721638000,7.611637939453125,-0.8500912269592285,-1.0504559783935545,5.387402648162841
1789799137731610000,7.621610107421875,-0.7390601249694824,-0.9549871871948241,5.734412251281738
1789799137741583000,7.6315830078125,-0.8233060958862304,-1.0280103378295897,5.8363154594421385
1789799137751555000,7.64155517578125,-0.8123825508117676,-1.1031284149169922,6.051793608856201
1789799137761528000,7.651528076171875,-0.47809214401245115,-1.1852794593811034,6.33341157913208
1789799137771500000,7.6615,-0.26231471939086914,-1.438915197753906,6.391620606994628
1789799137781473300,7.671473388671875,-0.08140285644531249,-1.817647972869873,6.349572440338134
1789799137791446000,7.681446044921875,0.05955576629638672,-2.1431097610473633,6.447734708404541
1789799137801418000,7.69141796875,0.05686228942871093,-2.4884733505249024,6.673088939666748
1789799137811391200,7.70139111328125,-0.16699556579589842,-2.799121015930176,7.267000588989258
1789799137821363000,7.711363037109375,-0.244507844543457,-3.1178491119384764,8.0958432762146
1789799137831336000,7.7213359375,-0.4091092086791992,-3.6213796485900875,8.66431653289795
1789799137841308200,7.73130810546875,-0.5557540603637695,-4.278139091491699,8.941744650268554
1789799137851281200,7.74128125,-0.37184944534301756,-4.987720608520507,8.935010958099365
1789799137861253000,7.751253173828125,-0.2654571090698242,-5.676203223419189,8.990077596282958
1789799137871226000,7.76122607421875,-0.3128922294616699,-6.165967100524902,9.17443112411499
1789799137881199000,7.77119921875,-0.3806780639648437,-6.5099839515686035,9.402329194641112
1789799137891171000,7.781171142578125,-0.4439747703552246,-6.838588129425048,9.606734161376952
1789799137901144000,7.79114404296875,-0.535702621459961,-7.20759446029663,10.07435167312622
1789799137911116000,7.801115966796875,-0.9072527915954589,-7.6850880538940425,10.696694467163086
1789799137921089300,7.81108935546875,-1.0773907470703123,-8.049605256652832,11.065401522827148
1789799137931061000,7.82106103515625,-0.9111433692932128,-8.259995727539062,11.225064846038817
1789799137941034000,7.831033935546875,-0.8054992210388183,-8.263138117218016,11.301828936767578
1789799137951006200,7.841006103515625,-0.2488473350524902,-7.828590515899657,11.177929000854492
1789799137960979000,7.85097900390625,-0.000748188018798828,-7.179462590789795,10.814459261322021
1789799137970951200,7.860951171875,-0.13991115951538086,-6.579266162109374,10.187477701568604
1789799137980924200,7.870924072265625,-0.47644613037109373,-5.983409223937988,9.701305126953125
1789799137990897200,7.880897216796875,-0.7827543052673339,-5.70119270324707,9.379285003662108
1789799138000869000,7.890869140625,-0.9427169036865234,-5.664830765533447,9.121309774780272
1789799138010842000,7.900842041015625,-0.7465420051574707,-5.625775350952148,9.201964443206787
1789799138020814000,7.91081396484375,-0.5047276374816895,-5.9497407630920405,8.934562045288086
1789799138030787000,7.920787109375,-0.2925415153503418,-6.519411120605469,8.589198455810546
1789799138040759000,7.930759033203125,-0.09771335525512695,-7.000346379089355,8.466495620727539
1789799138050732000,7.94073193359375,-0.2715922508239746,-7.384166832733154,8.651298061370849
1789799138060704000,7.9507041015625,-0.3802291511535644,-7.665036614990234,9.109039491271972
1789799138070677000,7.960677001953125,-0.05491700057983398,-7.7513775123596185,9.471761042785644
1789799138080649200,7.970649169921875,0.18106150054931638,-7.875875998687744,9.764302558135986
1789799138090622200,7.980622314453125,-0.1867477294921875,-7.965658560943603,9.937582903289794
1789799138100595000,7.990594970703125,-0.44532150878906246,-8.081478066253661,9.568277297210694
1789799138110567200,8.000567138671874,-0.6970119583129882,-8.197147933959961,9.009530484771728
1789799138120540200,8.0105400390625,-0.6790554458618163,-8.032247294616699,8.608352069091797
1789799138130512000,8.020511962890625,-0.4332008628845215,-7.519139951324463,8.378807984924316
1789799138140485000,8.030485107421875,-0.5451297904968262,-6.942286988830566,8.20403126373291
1789799138150457300,8.040457275390626,-0.7019499992370605,-6.356904682922363,8.241141389465332
1789799138160430300,8.050430419921875,-0.5823895538330078,-6.102071843719482,8.194753732299803
1789799138170402600,8.060402587890625,-0.3016694091796875,-6.115539228057861,8.048857068634033
1789799138180375300,8.070375244140624,-0.07496843948364257,-6.2778960281372065,7.7142673866271965
1789799138190348300,8.080348388671876,-0.11716624374389648,-6.443694493103027,7.42516753616333
1789799138200320500,8.090320556640625,-0.4373907157897949,-6.583306377410889,7.334636785888671
1789799138210293500,8.10029345703125,-0.6133645378112793,-6.838288854217529,7.345111418151855
1789799138220265500,8.110265380859374,-0.443076944732666,-7.170783609771728,7.500884163665771
1789799138230238500,8.120238525390626,-0.1379658706665039,-7.439532746124267,7.760056493377685
1789799138240210400,8.13021044921875,-0.06374561920166015,-7.419331669616699,8.157045056152343
1789799138250183400,8.140183349609375,-0.09771335525512695,-7.127687979888916,8.512135089874267
1789799138260155400,8.1501552734375,-0.07152677459716797,-6.587795505523681,8.766967929077149
1789799138270128400,8.16012841796875,0.06419453201293945,-6.174047531127929,9.102754711914063
1789799138280100400,8.170100341796875,0.14694412689208983,-6.043563540649414,9.452906704711914
1789799138290073300,8.1800732421875,-0.06584054565429687,-6.013486382293701,9.84465795135498
1789799138300046300,8.19004638671875,-0.2715922508239746,-6.115539228057861,10.066121604919433
1789799138310018600,8.2000185546875,-0.40581718139648437,-6.22477467880249,10.274866062164307
1789799138319991300,8.2099912109375,-0.5562029731750487,-6.1830257873535155,10.257807375335693
1789799138329963500,8.219963623046874,-0.6652887863159179,-6.234351485443115,9.886257205200195
1789799138339936500,8.2299365234375,-0.8340800033569336,-6.449979272460937,9.64025298461914
1789799138349908200,8.239908203125,-0.761655403137207,-6.770802294921874,9.450213227844237
1789799138359881500,8.249881591796875,-0.4299088356018066,-6.810755535125732,9.463231699371338
1789799138369853400,8.259853515625,-0.10714052429199218,-6.666953797912598,9.700706576538085
1789799138379826400,8.269826416015626,0.1375169578552246,-6.514173804473876,9.74200655517578
1789799138389798400,8.27979833984375,-0.1349731185913086,-6.3818941627502435,9.848099616241454
1789799138399771400,8.289771484375,-0.5801449897766113,-6.271461611175536,10.065074141693115
1789799138409744400,8.299744384765624,-0.6194996795654296,-6.139481244659423,10.059387912750244
1789799138419716400,8.30971630859375,-0.3597287994384765,-6.1647699996948235,9.97229882736206
1789799138429689300,8.319689453125,0.24525603256225584,-6.226271054840088,9.930400298309326
1789799138439661600,8.32966162109375,0.8367734802246093,-6.1179334297180175,10.174758505249024
1789799138449634600,8.339634521484374,0.6202478675842285,-5.95018967590332,10.212317543792723
1789799138459606500,8.3496064453125,0.037409400939941405,-5.922656356811523,9.759813430023193
1789799138469579500,8.35957958984375,-0.6407482192993164,-5.687575681304931,9.38571942062378
1789799138479551500,8.369551513671874,-0.8586205703735351,-5.457582684326171,9.138218824005126
1789799138489524500,8.3795244140625,-0.6905775413513183,-5.245246924591064,9.23847601852417
1789799138499497500,8.38949755859375,-0.4730044654846191,-5.146486106109619,9.523086740875243
1789799138509469400,8.399469482421875,-0.26216508178710934,-5.2067900604248045,9.600299744415283
1789799138519442400,8.4094423828125,-0.5205892234802246,-5.339219339752197,9.791985514831543
1789799138529414400,8.419414306640626,-0.6262333717346191,-5.223250196838379,10.128370848083495
1789799138539387400,8.429387451171875,-0.5198410354614258,-5.287145453643799,9.710881933593749
1789799138549359600,8.439359619140625,-0.5532102210998535,-5.286397265624999,9.350554583740234
1789799138559332400,8.449332275390624,-0.37334582138061523,-5.0966567840576165,9.032574675750732
1789799138569304600,8.4593046875,-0.1466448516845703,-4.739022911071777,8.375964870452881
1789799138579277600,8.469277587890625,0.0565630142211914,-4.090493536376953,8.147767524719237
1789799138589249300,8.479249267578124,-0.19168577041625975,-3.726574884033203,7.92286220626831
1789799138599222500,8.489222412109376,-0.4261678955078125,-3.629908992004394,7.573308763885498
1789799138609195500,8.499195556640625,0.143652099609375,-3.531297811126709,7.0847419876098625
1789799138619167500,8.50916748046875,0.8747814315795898,-3.215113554382324,6.779331638336181
1789799138629140500,8.519140380859374,1.2714707191467285,-2.7310359062194824,6.6243070808410645
1789799138639112400,8.529112548828126,1.0600327850341795,-2.3329998802185057,6.325181510925293
1789799138649085400,8.53908544921875,-0.08499415893554688,-2.064101106262207,6.0519432464599605
1789799138659057400,8.549057373046875,-1.3555670524597168,-2.089988411712646,5.496189186096191
1789799138669030400,8.559030517578124,-0.8782230964660644,-1.8420389022827148,4.771943183898926
1789799138679002600,8.569002685546875,-0.9504980590820312,-1.6657658050537107,4.1934442077636715
1789799138688975400,8.578975341796875,-1.4341267944335936,-1.7980454467773437,3.884891468811035
1789799138698947300,8.588947265625,-0.9635165306091308,-1.7007810043334959,4.374356070709228
1789799138708920600,8.598920654296874,-0.7187094108581542,-1.479915901184082,5.058798470306396
1789799138718893600,8.6088935546875,-1.4842553916931152,-1.416619194793701,5.357774402618408
1789799138728865300,8.618865234375,-1.737142942047119,-1.690605647277832,5.372289250183105
1789799138738838500,8.628838623046875,-1.4098855026245116,-1.7221791816711425,5.204096583557129
1789799138748810500,8.638810546875,-1.2000935821533203,-1.6109984420776366,5.20948353729248
1789799138758783200,8.648783203125,-1.1914146011352538,-1.4018050720214843,5.613804342651367
1789799138768755500,8.65875537109375,-1.4472949035644531,-1.2856862915039062,6.054636723327636
1789799138778728400,8.668728515625,-1.6754922492980957,-1.4827590156555175,6.16731383895874
1789799138788700400,8.678700439453126,-1.532887612915039,-1.7522563400268554,5.868936457061767
1789799138798673400,8.68867333984375,-1.3280337333679197,-1.9375076934814452,5.529558371734619
1789799138808645400,8.698645263671875,-1.2575544219970702,-1.9705776039123535,5.599888045501709
1789799138818618600,8.70861865234375,-1.1073182678222655,-1.8894740226745603,5.868487544250488
1789799138828590300,8.71859033203125,-1.0890624801635742,-1.8076222534179687,6.268618496704101
1789799138838563300,8.728563232421875,-1.168968960571289,-1.905036333465576,6.630741497802734
1789799138848536600,8.73853662109375,-1.1367968757629394,-2.2168810997009274,6.849810949707031
1789799138858508300,8.74850830078125,-1.0684124908447266,-2.5622446891784665,7.147290505981445
1789799138868481300,8.758481201171875,-0.9992799179077148,-2.924666965484619,7.560739205169678
1789799138878453500,8.76845361328125,-1.0606313354492187,-3.3174656753540037,7.813626755523681
1789799138888426500,8.778426513671874,-0.9931447761535644,-3.7773020317077632,8.054244022369383
1789799138898398500,8.7883984375,-0.6298246742248534,-4.242974254608154,8.514678929138183
1789799138908371500,8.798371337890625,-0.5168482833862305,-4.765957679748535,8.84163709335327
1789799138918343400,8.808343505859375,-0.5271732780456543,-5.445013125610351,8.806172981262206
1789799138928316400,8.81831640625,-0.1240495735168457,-6.128258424377441,8.79749400024414
1789799138938288400,8.828288330078125,0.07212532501220703,-6.612635347747802,9.128941292572021
1789799138948261400,8.838261474609375,-0.06479308242797852,-6.947075392150879,9.818022457885741
1789799138958234600,8.848234619140625,0.047884033203124995,-7.301866150665282,10.292523299407959
1789799138968206300,8.858206298828126,0.3233668617248535,-7.6282257644653315,10.282647217559814
1789799138978179300,8.868179443359375,0.28221652069091796,-7.799860095977783,10.129717586517334
1789799138988151600,8.878151611328125,-0.3893570449829101,-7.738807953643798,10.356268918609619
1789799138998124300,8.888124267578124,-0.3887584945678711,-7.576151878356933,10.596437272644042
1789799139008096500,8.898096435546876,-0.021398177337646485,-7.128885080718994,10.753856031799316
1789799139018069500,8.908069580078125,-0.014814122772216796,-6.781426564788818,10.705822360992432
1789799139028041500,8.91804150390625,-0.16953940505981444,-6.562357112884521,10.617685812377928
1789799139038014500,8.928014404296874,-0.22505495605468748,-6.455665501403808,10.775254209136962
1789799139047986400,8.937986328125,-0.06045359191894531,-6.5099839515686035,10.774655658721922
1789799139057959700,8.947959716796875,-0.008828618621826172,-6.72291826171875,10.447697494506835
1789799139067931400,8.957931396484375,0.02259527816772461,-6.88183339691162,10.025569814300537
1789799139077904400,8.967904296875,0.003591302490234375,-7.036558679199218,9.675567459106444
1789799139087877600,8.977877685546876,-0.08693944778442382,-7.221361119842529,9.16096373977661
1789799139097849300,8.987849365234375,-0.018555062866210937,-7.3484034454345695,8.639626328277588
1789799139107822300,8.997822265625,0.022146365356445312,-7.4585367218017575,8.06965669555664
1789799139117794600,9.007794677734376,-0.2889502128601074,-7.594258028411865,8.02491505203247
1789799139127767600,9.017767578125,-0.4652233100891113,-7.700201451873779,8.453776424407959
1789799139137739500,9.027739501953125,-0.4677671493530273,-7.639598222351074,8.435520636749267
1789799139147712800,9.037712646484374,-0.7861959701538086,-7.541286316680908,8.488791623687744
1789799139157684700,9.047684814453126,-0.9394248764038086,-7.409904500579834,8.92588306427002
1789799139167657700,9.05765771484375,-0.8113350875854491,-7.153126372528075,8.959102612304687
1789799139177629700,9.067629638671875,-0.5846341178894042,-6.911461642456055,9.068786975860595
1789799139187602700,9.077602783203124,-0.6197989547729492,-6.584054565429687,9.517101236724853
1789799139197575700,9.08757568359375,-0.5600935508728027,-6.244526842498779,9.827150351715087
1789799139207547600,9.097547607421875,-0.4134486991882324,-6.0321910827636716,9.958681805419921
1789799139217520600,9.107520751953125,-0.2563292152404785,-6.074388887023925,10.026168364715575
1789799139227492900,9.117492919921874,-0.1039981346130371,-6.429778195953369,9.827599264526366
1789799139237465600,9.127465576171875,0.037110125732421874,-6.899789909362792,9.598653730773925
1789799139247437800,9.137437744140625,0.3085527389526367,-7.229142275238036,9.42342809677124
1789799139257410800,9.147410888671875,0.744447078704834,-7.321917589569091,9.19328546218872
1789799139267382500,9.157382568359376,0.8553285430908203,-7.251887191009521,8.863184908294677
1789799139277355800,9.167355712890625,0.7248445526123046,-7.072322066497803,8.550741591644286
1789799139287327700,9.17732763671875,0.6528688652038573,-6.880187383270263,8.62451293029785
1789799139297300700,9.18730078125,0.6579565437316894,-6.555024870300293,8.505850310516356
1789799139307272700,9.197272705078126,0.6609492958068848,-6.238092425537109,8.181286347961425
1789799139317245700,9.20724560546875,0.48108489608764643,-5.9305871498107905,7.910891197967529
1789799139327218700,9.21721875,-0.20694880599975585,-5.828235028839111,7.64827720336914
1789799139337190700,9.227190673828124,-0.6953659446716308,-6.0993783668518065,7.483376564025878
1789799139347163600,9.23716357421875,-0.6428431457519531,-6.50534518585205,7.595754404449463
1789799139357136000,9.247135986328125,-0.32830490264892576,-6.7380316596984855,8.28633194580078
1789799139367108600,9.257108642578125,-0.19557634811401367,-6.8302084236145015,9.11607245864868
1789799139377080600,9.26708056640625,-0.16879121704101563,-7.110330017852783,9.707290631103515
1789799139387053800,9.2770537109375,-0.1548749198913574,-7.144297753906249,10.123732082366942
1789799139397025500,9.287025634765625,-0.15218144302368164,-7.152378184509277,10.173561404418944
1789799139406998500,9.29699853515625,-0.23552958831787107,-6.8022261917114255,10.283545043182372
1789799139416970800,9.306970703125,-0.15652093353271485,-6.292859788513184,10.391733030700683
1789799139426943700,9.31694384765625,-0.3491045295715332,-5.922805994415283,10.307337422180176
1789799139436915700,9.326915771484375,-0.7285854927062988,-5.88614478149414,9.702352590179443
1789799139446888700,9.336888671875,-1.1777975791931152,-5.953930615997314,9.117718472290038
1789799139456860700,9.346860595703125,-1.5919944664001464,-5.979219371032714,8.947430879211426
1789799139466833700,9.356833740234375,-1.4767735115051268,-6.132897190093994,8.931868568420409
1789799139476806700,9.366806640625,-0.7682394577026367,-6.0799254783630365,9.050082275390624
1789799139486778600,9.376778564453126,0.15652093353271485,-5.753416226959228,9.167248519134521
1789799139496751900,9.386751953125,0.4103063095092773,-5.503970341491699,9.177723151397705
1789799139506723600,9.3967236328125,-0.0770633659362793,-5.202300932312012,9.67197615661621
1789799139516696600,9.406696533203124,-0.6959644950866699,-5.199308180236816,10.04262850112915
1789799139526668800,9.416668701171876,-0.819116242980957,-5.406107348632812,10.23446390914917
1789799139536641500,9.4266416015625,-0.8731354179382323,-5.646425340270996,10.16398459777832
1789799139546613800,9.43661376953125,-0.7139210075378417,-5.655104321289063,10.219949061584472
1789799139556586800,9.446586669921874,-0.7408557762145995,-5.684134016418457,10.382904412078856
1789799139566558700,9.456558837890626,-0.5346551582336425,-5.450250441741943,10.62307276611328
1789799139576531700,9.46653173828125,-0.2962824554443359,-5.051915140533447,10.858901629638671
1789799139586503700,9.476503662109375,0.2027589530944824,-4.679467144775391,10.89795704421997
1789799139596476700,9.4864765625,0.3064578125,-4.55197590637207,10.679186867523192
1789799139606448600,9.49644873046875,-0.6871358764648438,-4.833893151855468,9.628730889129638
1789799139616421600,9.506421630859375,-0.8126818260192871,-5.034407540893555,8.953865296173095
1789799139626394600,9.51639453125,-0.414346524810791,-4.937143098449707,8.080131327819824
1789799139636366600,9.52636669921875,0.1680430290222168,-4.399195912933349,7.007678621673583
1789799139646339600,9.536339599609375,0.6380547424316406,-3.557484391784668,6.313060865020751
1789799139656311800,9.546311767578125,0.6730699417114258,-2.8612206214904785,5.800402434539794
1789799139666284800,9.556284912109374,0.7164648468017578,-2.218527113342285,5.532850399017334
1789799139676256800,9.5662568359375,0.5886743331909179,-1.786224076080322,5.179855291748047
1789799139686229800,9.576229736328125,0.3295020034790039,-1.6138415565490722,4.671087438964843
1789799139696201700,9.58620166015625,0.27129297561645505,-1.5123872611999511,4.409520907592773
1789799139706174700,9.5961748046875,-0.06494272003173827,-1.3775637802124023,4.38557889099121
1789799139716146700,9.606146728515625,-0.7353191848754882,-1.3476362594604492,4.338143770599365
1789799139726119700,9.61611962890625,-0.6235398948669433,-1.532887612915039,3.9700352653503415
1789799139736091600,9.626091552734374,-0.17028759307861327,-1.7878700897216795,4.064456593322753
1789799139746064600,9.636064697265626,-0.4605845443725586,-1.7956512451171873,3.788973764801025
1789799139756036900,9.646036865234375,-1.1305120964050293,-1.6350900962829589,3.586813362121582
1789799139766009900,9.656009765625,-1.3447931449890136,-1.4149731811523436,3.5428199066162107
1789799139775982600,9.665982666015625,-0.9871592720031738,-1.1908160507202148,3.6586394119262695
1789799139785954800,9.675954833984376,-0.7080851409912109,-0.9292495193481445,4.222773178100586
1789799139795927800,9.685927734375,-0.8017582809448242,-0.809539436340332,5.058199919891357
1789799139805899500,9.6958994140625,-1.229572190093994,-0.9247603912353515,5.701491978454589
1789799139815872800,9.705872802734374,-1.498470964050293,-1.2448352256774902,6.093392862701416
1789799139825844700,9.7158447265625,-1.516277838897705,-1.6015712730407714,6.489483599853515
1789799139835817700,9.725817626953125,-1.613991194152832,-1.9648913749694823,6.992864498901366
1789799139845789700,9.735789794921875,-1.3600561805725098,-2.4191911399841306,7.0850412628173824
1789799139855762700,9.7457626953125,-0.9398737892150878,-2.8685528640747067,6.742221512603759
1789799139865735000,9.75573486328125,-0.8903437423706054,-3.26224939956665,6.9068228767395015
1789799139875707600,9.765707763671875,-1.0172364303588866,-3.465008352661133,7.452401580047607
1789799139885679600,9.7756796875,-1.253214931488037,-3.6520553573608394,7.650222492218017
1789799139895652900,9.78565283203125,-1.4034510856628417,-3.9372646301269527,7.4497081031799315
1789799139905624600,9.79562451171875,-1.3136685234069823,-4.277091628265381,7.304858902740478
1789799139915597600,9.80559765625,-0.9136872085571288,-4.569483506011963,7.62283881072998
1789799139925569800,9.81556982421875,-0.6374561920166015,-4.739771099090576,8.272116373443604
1789799139935542500,9.82554248046875,-0.6908768165588378,-5.153967986297607,8.60580822982788
1789799139945515500,9.835515625,-0.5042787246704101,-5.823745900726318,8.456469901275634
1789799139955487700,9.84548779296875,-0.28012159423828126,-6.503399897003173,8.575880709075927
1789799139965460700,9.855460693359374,-0.23732523956298826,-7.070077502441406,9.26930136489868
1789799139975432700,9.8654326171875,-0.2410661796569824,-7.614010192108154,9.643545011901855
1789799139985405700,9.87540576171875,-0.24405893173217771,-8.217648285675049,9.827449626922608
1789799139995377700,9.885377685546874,0.0570119270324707,-8.47173293685913,9.753678288269043
1789799140005350700,9.8953505859375,0.09636661682128905,-8.549544490814208,9.872939458465575
1789799140015322600,9.905322509765625,-0.0565630142211914,-8.29306563796997,9.99833577041626
1789799140025295600,9.915295654296875,-0.29343934097290036,-7.806294512939453,10.09290673599243
1789799140035267600,9.925267578125,-0.17462708358764648,-7.34181939086914,10.21486138305664
1789799140045240600,9.935240478515626,0.05087678527832031,-7.063643085479736,10.231770432281493
1789799140055212800,9.945212890625,0.002992752075195312,-7.068431488800049,10.33546929168701
1789799140065185800,9.955185791015625,-0.18809446792602538,-7.122301026153564,10.495282252502442
1789799140075157800,9.96515771484375,-0.2193687271118164,-7.031919913482666,10.599579662322997
1789799140085130800,9.975130859375,-0.430956298828125,-6.9524623458862305,10.705373448181152
1789799140095102700,9.985102783203125,-0.41898529052734373,-6.807613145446777,10.506654710388183
1789799140105075700,9.99507568359375,-0.13257891693115234,-6.547842265319824,10.356867469024657
1789799140115047700,10.005047607421876,0.00239420166015625,-6.459107166290283,10.011653517150878
1789799140125020700,10.015020751953125,0.001197100830078125,-6.533626692962646,9.592668226623534
1789799140134993700,10.02499365234375,0.054767362976074214,-6.789058082580566,9.272144479370116
1789799140144965600,10.034965576171874,0.1304839904785156,-7.058405769348144,9.098714496612548
1789799140154939100,10.044939208984376,0.06479308242797852,-7.4214265960693355,9.25718071899414
1789799140164911000,10.0549111328125,0.27144261322021485,-7.786841624450683,9.108141665649413
1789799140174884000,10.064884033203125,0.19288287124633788,-7.92286220626831,9.14809490585327
1789799140184856000,10.07485595703125,0.15472528228759766,-7.682843489837646,9.086893125915527
1789799140194829000,10.0848291015625,0.12599486236572266,-7.160009702301025,9.155576786041259
1789799140204801000,10.094801025390625,-0.0848445213317871,-6.3712698928833005,9.681552963256836
1789799140214774000,10.10477392578125,-0.4216787673950195,-5.612307966613769,10.24703346786499
1789799140224746000,10.11474609375,-0.5078700271606446,-5.346551582336425,10.152013589477539
1789799140234719000,10.124718994140625,-0.390703783416748,-5.5440732192993165,9.881618439483642
1789799140244691200,10.134691162109375,-0.26815058593749996,-5.876119062042236,9.782857621002197
1789799140254664200,10.144664306640625,0.011522095489501952,-6.272658712005615,9.767295310211182
1789799140264636200,10.15463623046875,0.3699041564941406,-6.684012484741211,9.833285493469237
1789799140274609200,10.164609130859375,0.5952583877563477,-6.947075392150879,9.834332956695556
1789799140284581000,10.1745810546875,0.7507318580627441,-6.863278334045409,9.641898998260498
1789799140294554000,10.18455419921875,0.840215145111084,-6.604255641937256,9.120262311553955
1789799140304526000,10.194526123046876,0.6091746849060058,-6.392219157409667,8.311620700836182
1789799140314499000,10.2044990234375,0.19737199935913086,-6.47362201385498,7.729829697418213
1789799140324471000,10.214470947265625,-0.025139117431640625,-6.714987468719482,7.6231380859375
1789799140334444000,10.224444091796874,0.04159925384521484,-6.696282768249511,7.9752353675842285
1789799140344416300,10.234416259765625,0.08259995727539061,-6.357652870941162,8.135497241210937
1789799140354389200,10.24438916015625,0.060603229522705075,-5.965751986694335,8.377760521697997
1789799140364362000,10.254362060546875,-0.2647089210510254,-5.750423474884033,8.735693669891356
1789799140374334200,10.264334228515626,-0.8409633331298828,-5.800851347351074,8.942642475891112
1789799140384307200,10.27430712890625,-1.1707646118164061,-6.172102242279053,9.35878465194702
1789799140394279000,10.28427880859375,-1.140238540649414,-6.7930982978820795,9.785102185058593
1789799140404252200,10.294252197265624,-0.8634089736938476,-7.237671618652343,10.192266104888915
1789799140414224100,10.30422412109375,-0.841412245941162,-7.393893276977539,10.786776304626464
1789799140424196900,10.31419677734375,-0.7610568527221679,-7.301716513061523,11.099518896484375
1789799140434169000,10.324169189453125,-0.8090905235290526,-6.973561248016357,10.981604464721679
1789799140444142000,10.33414208984375,-0.6168062026977539,-6.78007982635498,10.237157386016845
1789799140454114000,10.344114013671875,-0.4423287567138672,-6.696582043457031,9.415048390960694
1789799140464087000,10.354087158203125,-0.471807364654541,-6.631788961029052,8.848071510314941
1789799140474059000,10.36405908203125,-0.2914940521240234,-6.565798777770996,8.568698104095459
1789799140484032300,10.3740322265625,0.05686228942871093,-6.2952539901733395,8.697835356140136
1789799140494004000,10.38400390625,0.21083938369750976,-5.8265890151977535,9.287706790161133
1789799140503977000,10.39397705078125,0.1710357810974121,-5.508010556793213,9.603442134094237
1789799140513949200,10.40394921875,-0.29777883148193357,-5.410147563934326,10.041880313110351
1789799140523922000,10.413921875,-0.6777087074279785,-5.568763423919678,10.076895512390136
1789799140533894100,10.42389404296875,-0.7451952667236328,-5.77795679397583,9.913341611480712
1789799140543867100,10.4338671875,-0.7525275093078613,-5.839158573913574,9.869348155975342
1789799140553838800,10.4438388671875,-0.5747580360412597,-5.606621737670898,10.117896215820313
1789799140563812000,10.45381201171875,-0.6878840644836426,-5.544372494506836,10.102034629821777
1789799140573784000,10.4637841796875,-0.6145616386413574,-5.50935729522705,10.101735354614258
1789799140583757000,10.473757080078125,-0.34925416717529295,-5.423764585876465,9.971401001739501
1789799140593729000,10.48372900390625,0.04967968444824218,-5.13331799697876,9.431508527374268
1789799140603702000,10.493701904296875,-0.5045779998779296,-4.852747489929199,8.651746974182128
1789799140613674200,10.50367431640625,-0.14006079711914063,-4.37959338684082,8.317905480194092
1789799140623647000,10.51364697265625,0.13422493057250975,-3.8064813644409177,7.75721337890625
1789799140633619000,10.523618896484376,0.615459464263916,-3.1521161231994625,7.267150226593017
1789799140643592200,10.53359228515625,0.604535919189453,-2.93693724899292,6.4752680274963375
1789799140653564000,10.54356396484375,0.8466495620727539,-2.7418098136901854,6.039074412536621
1789799140663537200,10.553537109375,0.8530839790344238,-2.43235924911499,5.605723912048339
1789799140673510100,10.56351025390625,0.5472247169494628,-2.1402666465759275,5.179556016540527
1789799140683482000,10.573482177734375,0.4739022911071777,-1.9783587593078613,4.740818562316894
1789799140693455000,10.583455078125,0.3854664672851562,-1.8174983352661132,4.291905751037597
1789799140703427000,10.593427001953126,-0.19153613281249998,-1.740434969329834,4.078073615264892
1789799140713400000,10.603400146484375,-0.7818564796447753,-1.5352818145751952,4.114585190582275
1789799140723372000,10.6133720703125,-0.9834183319091796,-1.482459740447998,4.282328944396973
1789799140733345000,10.623344970703124,-0.7709329345703124,-1.7082628845214842,4.7685015190124505
1789799140743317200,10.633317138671876,-0.9404723396301269,-1.882141780090332,4.863371759796142
1789799140753290200,10.643290283203125,-1.7425298957824706,-1.7559972801208494,4.749198268127441
1789799140763262000,10.653261962890625,-1.8570026626586913,-1.5583260055541992,4.587739293670654
1789799140773235200,10.663235107421874,-1.333719962310791,-1.2559084083557128,4.924872814941406
1789799140783207200,10.673207275390626,-1.0965443603515623,-1.303642803955078,5.334730211639404
1789799140793180000,10.683179931640625,-1.4113818786621093,-1.6953940505981444,5.142745166015625
1789799140803152100,10.693152099609375,-1.4938321983337401,-2.046144593811035,4.575618647766113
1789799140813125000,10.703125,-1.3970166687011718,-2.0082862800598145,4.688894313812256
1789799140823097000,10.71309716796875,-1.4079402137756347,-1.765274811553955,5.242104534912109
1789799140833070000,10.723070068359375,-1.5026608169555664,-1.7227777320861815,5.6283191902160645
1789799140843042000,10.7330419921875,-1.1864765602111815,-1.914014589691162,5.7317187744140625
1789799140853015300,10.743015380859376,-1.0986392868041992,-2.1658546768188476,5.9588686569213865
1789799140862987000,10.752987060546875,-1.0845733520507812,-2.382529927062988,6.676081691741943
1789799140872960000,10.7629599609375,-1.1698667861938477,-2.6562171043395995,7.379677704620361
1789799140882932200,10.77293212890625,-1.3804068946838377,-3.1720179244995115,7.5978493309021
1789799140892905000,10.782905029296876,-1.240495735168457,-3.7789480453491207,7.454496506500243
1789799140902877200,10.792877197265625,-1.0601824226379395,-4.3525089805603026,7.320421213531493
1789799140912850200,10.80285009765625,-1.031003089904785,-5.039345581817627,7.630470328521728
1789799140922822000,10.81282177734375,-0.8988730857849121,-5.756857891845703,8.01877991027832
1789799140932795100,10.822795166015625,-0.7483376564025879,-6.428281819915771,8.246677980804442
1789799140942767000,10.83276708984375,-0.8001122673034667,-7.1395093505859375,8.228721468353271
1789799140952740000,10.842739990234374,-0.6440402465820312,-7.701697827911376,8.062025177764893
1789799140962712000,10.852712158203126,-0.16265607528686524,-7.946205672454833,8.214206620788573
1789799140972685000,10.86268505859375,0.10205284576416015,-8.027009978485108,8.819490727996826
1789799140982657300,10.8726572265625,0.0053869537353515625,-8.278850065612792,9.664943189239501
1789799140992630000,10.882630126953124,0.2554313896179199,-8.500762631988525,10.065523054504395
1789799141002602000,10.89260205078125,0.4128501487731933,-8.48400322036743,10.409988818359375
1789799141012575200,10.9025751953125,0.17941548690795897,-8.045415403747558,11.093683029937743
1789799141022547000,10.912546875,0.35583822174072266,-7.586476873016357,11.337741961669922
1789799141032520000,10.92252001953125,0.4629787460327148,-7.109432192230225,11.192743123626709
1789799141042492200,10.9324921875,0.24316110610961914,-6.736086370849609,11.220276442718506
1789799141052465000,10.94246484375,-0.232387198638916,-6.458957528686523,11.492766519165038
1789799141062437000,10.95243701171875,-0.4791396072387695,-6.168211664581299,11.867159803771973
1789799141072410000,10.96241015625,-0.4103063095092773,-6.1632736236572265,12.14294190750122
1789799141082382000,10.972382080078125,-0.47016135101318357,-6.351368091583252,11.96996083755493
1789799141092355000,10.98235498046875,-0.40057986526489253,-6.375908658599853,11.508478467559813
1789799141102327000,10.9923271484375,-0.4418798439025879,-6.460753179931641,11.148300755310059
1789799141112300000,11.002300048828126,-0.4830301849365234,-6.738630210113525,10.632799210357666
1789799141122272000,11.01227197265625,-0.0022445640563964844,-6.964134078979492,10.017489383697509
1789799141132245000,11.022244873046875,0.23986907882690428,-7.216123803710937,9.528772969818114
1789799141142218200,11.03221826171875,0.07092822418212891,-7.331943309020995,9.297732509613036
1789799141152189700,11.042189697265625,-0.2518400871276855,-7.385064658355712,9.449913952636718
1789799141162161700,11.05216162109375,-0.3387795349121094,-7.351545835113525,9.3852705078125
1789799141172134700,11.062134765625,-0.09950900650024413,-7.259668346405029,8.965836304473877
1789799141182107600,11.072107666015626,0.1379658706665039,-7.059153957366943,8.879046494293213
1789799141192080000,11.082079833984375,0.2747346405029297,-6.688800888061523,8.932766394042968
1789799141202052600,11.092052490234375,0.18405425262451172,-6.288819573211669,8.990376871490477
1789799141212024600,11.102024658203124,-0.13108254089355467,-6.112696113586425,9.067589875030517
1789799141221997800,11.111997802734376,-0.20635025558471679,-6.244975755310058,9.003395343017578
1789799141231969500,11.121969482421875,0.3408744613647461,-6.546794802093506,8.640673791503906
1789799141241942500,11.131942626953125,0.5936123741149902,-6.858938843536377,8.226177629089355
1789799141251914800,11.141914794921876,0.5425859512329101,-6.927921778869629,8.271667460632324
1789799141261887700,11.1518876953125,-0.011671733093261718,-6.847416748046874,8.240542839050292
1789799141271859700,11.161859619140625,-0.6389525680541992,-6.822277630615234,8.33122322692871
1789799141281832700,11.171832763671874,-0.5939116493225097,-6.932710182189941,8.699930282592772
1789799141291804700,11.1818046875,-0.4215291297912597,-7.198915479278564,8.88607946166992
1789799141301777700,11.191777587890625,-0.30885201416015623,-7.343615042114258,9.14869345626831
1789799141311749600,11.20174951171875,-0.20530279235839843,-7.281964349365234,9.291747005462646
1789799141321722600,11.21172265625,-0.22834698333740233,-7.004236956787109,9.063848934936523
1789799141331694600,11.221694580078125,-0.45295302658081055,-6.776638161468505,8.717886795043945
1789799141341667600,11.23166748046875,-0.7567173622131347,-6.6419643180847165,8.28034644165039
1789799141351639800,11.241639892578124,-1.0363900436401368,-6.57552522201538,7.927650609588623
1789799141361612800,11.25161279296875,-1.0733505317687988,-6.592583908843994,7.9557824790954585
1789799141371584800,11.261584716796875,-1.0957961723327636,-6.719925509643554,8.183680549621581
1789799141381557800,11.271557861328125,-0.7236474517822266,-6.667701985931396,8.786420817565917
1789799141391529700,11.28152978515625,-0.25902269210815426,-6.618620851898193,9.400084630584717
1789799141401502700,11.291502685546876,0.21996727752685546,-6.655282064819335,9.92172131729126
1789799141411474700,11.301474609375,0.5122095176696777,-6.709001964569091,10.369586665344238
1789799141421447700,11.31144775390625,-0.042048166656494135,-6.7639189651489255,10.685920559692383
1789799141431419600,11.321419677734376,-0.7498340324401855,-6.6072483940124505,10.602572414398193
1789799141441392600,11.331392578125,-1.0862193656921386,-6.382791988372802,10.169820464324951
1789799141451364900,11.34136474609375,-0.9282020561218262,-6.374412282562256,9.497049797821044
1789799141461337900,11.351337890625,-0.7094318794250488,-6.502202796173095,9.064746760559082
1789799141471309600,11.3613095703125,-0.567575431060791,-6.382193437957763,9.062053283691405
1789799141481282800,11.37128271484375,-0.2171241630554199,-6.207715991973877,9.472958143615722
1789799141491254800,11.3812548828125,-0.031573534393310544,-5.909188972473144,10.41911671218872
1789799141501227500,11.3912275390625,-0.1771709228515625,-5.711667335510254,11.202918480682373
1789799141511199700,11.40119970703125,-0.6171054779052734,-5.728127471923828,11.680711349487304
1789799141521172700,11.4111728515625,-0.7769184387207031,-5.838111110687255,11.562497642517089
1789799141531144700,11.421144775390625,-1.1260229682922362,-6.0790276527404785,10.855310327148437
1789799141541117700,11.43111767578125,-1.2550105827331541,-6.088005908966064,10.634145948791502
1789799141551089700,11.441089599609375,-0.9090484428405761,-5.9311857002258295,10.479719941711425
1789799141561061600,11.4510615234375,-0.36586394119262694,-5.613505067443847,10.257358462524413
1789799141571034600,11.46103466796875,-0.24525603256225584,-5.497685562133789,9.288155702972412
1789799141581006800,11.4710068359375,-0.3350385948181152,-5.205742597198486,8.630199159240723
1789799141590979800,11.480979736328125,-0.05880757827758789,-4.725555526733398,7.781005757904052
1789799141600952600,11.49095263671875,0.30047230834960936,-4.311209001922607,7.302614338684082
1789799141610924800,11.5009248046875,0.3829226280212402,-3.6851252677917476,6.930764893341064
1789799141620896800,11.510896728515625,0.19422960968017577,-3.0104093124389646,6.541707123565674
1789799141630869500,11.520869384765625,0.46402620925903315,-2.6780641944885253,6.219088449859619
1789799141640841700,11.530841796875,0.43080666122436523,-2.5028385604858396,5.756558616638183
1789799141650814700,11.540814697265626,0.6461351730346679,-2.454056701660156,5.447257689666747
1789799141660786700,11.55078662109375,1.0408791717529295,-2.1953332847595215,4.931007956695557
1789799141670759700,11.560759765625,0.7849988693237304,-1.6747440612792968,4.4391491531372065
1789799141680731600,11.570731689453124,-0.053420624542236325,-1.1233294914245604,3.971681278991699
1789799141690704600,11.58070458984375,-0.5047276374816895,-1.1145008728027344,3.39003991317749
1789799141700676600,11.590676513671875,-0.31977555923461914,-1.1531073745727538,3.0180408302307127
1789799141710649900,11.60064990234375,-0.3366846084594726,-0.9383774131774901,3.174412126159668
1789799141720621600,11.61062158203125,-0.6756137809753417,-0.9159317726135253,3.395875779724121
1789799141730594600,11.620594482421875,-0.6907271789550781,-1.029207438659668,3.54311918182373
1789799141740566800,11.63056689453125,-0.27742811737060546,-1.0673650276184081,4.159775746917725
1789799141750539800,11.640539794921875,-0.2241571304321289,-1.16837041015625,4.818929391479492
1789799141760511700,11.65051171875,-0.7411550514221191,-1.3019967903137206,5.1231426399230955
1789799141770484700,11.660484619140625,-1.0999860252380371,-1.5792752700805663,4.842572132873535
1789799141780456700,11.670456787109375,-1.357362703704834,-1.9138649520874023,4.238335488891601
1789799141790429700,11.6804296875,-1.4577695358276366,-1.9946692581176757,4.282777857208251
1789799141800401700,11.690401611328125,-1.1550526634216307,-1.9776105712890624,4.991311911010742
1789799141810374700,11.700374755859375,-1.0688614036560058,-2.05587103805542,5.5832782714843745
1789799141820346600,11.7103466796875,-1.1608885299682616,-2.27927998046875,5.7597010063171385
1789799141830319600,11.720319580078124,-1.106420442199707,-2.5192986968994138,5.9199628799438475
1789799141840291800,11.730291748046875,-0.9853636207580566,-2.714126856994629,6.277746390533447
1789799141850264800,11.740264892578125,-1.024119760131836,-2.961477816009521,6.686855599212646
1789799141860236500,11.750236572265624,-1.2189479202270508,-3.262847949981689,6.9168485961914055
1789799141870209800,11.760209716796876,-1.2825439018249511,-3.6545991966247557,7.213579964447021
1789799141880181800,11.770181640625,-1.215506255340576,-4.197334785461425,7.706486231231689
1789799141890154500,11.780154541015625,-1.1635820068359375,-4.790348609161376,8.326584461212157
1789799141900126700,11.790126708984374,-1.0990881996154784,-5.473893183135986,8.722974473571776
1789799141910099700,11.800099609375,-1.1251251426696776,-6.265027194213867,8.898200107574462
1789799141920071700,11.81007177734375,-0.9409212524414062,-7.000944929504394,9.023596419525147
1789799141930044700,11.820044677734375,-0.7001543479919433,-7.762301057434081,9.478794010162353
1789799141940016600,11.8300166015625,-0.4376899909973144,-8.24173993988037,10.219649786376953
1789799141949990000,11.839989990234375,-0.16983868026733398,-8.7087589012146,10.85261685028076
1789799141959961600,11.849961669921875,-0.06868366012573242,-8.94488703994751,11.002853004455567
1789799141969934600,11.8599345703125,0.01092354507446289,-9.051578651428223,10.830021572113036
1789799141979906800,11.86990673828125,-0.44502223358154297,-8.843582382202149,10.895413204956053
1789799141989879600,11.879879638671875,-0.6120177993774414,-8.39616594696045,10.84034656677246
1789799141999851800,11.889851806640625,-0.23074118499755858,-7.725190931701659,10.482263780975341
1789799142009824800,11.89982470703125,-0.14245499877929688,-7.102848137664795,10.178798720550537
1789799142019796700,11.909796630859375,-0.39444472351074217,-6.8770449935913085,10.271125122070313
1789799142029769700,11.919769775390625,-0.6820481979370117,-6.945429378509521,10.387842453002929
1789799142039741700,11.92974169921875,-0.8737339683532714,-6.99750326461792,10.65524485092163
1789799142049714700,11.939714599609376,-0.5452794281005859,-7.154024198150634,10.89122335205078
1789799142059686700,11.949686767578125,-0.20290859069824219,-7.23333212814331,10.844835694885253
1789799142069659600,11.95965966796875,0.06000467910766601,-7.115417696380614,10.494683702087402
1789799142079632000,11.9696318359375,-0.06404489440917968,-7.025186221313477,9.990105702209473
1789799142089603600,11.979603515625,-0.3507505432128906,-7.023989120483398,9.671227968597412
1789799142099576800,11.989576904296875,-0.35299510726928707,-7.055113742065429,9.49959363708496
1789799142109548800,11.999548828125,-0.12734160079956053,-6.994360874938964,9.316137934875488
1789799142119521500,12.009521484375,0.09217676391601562,-6.829310597991943,9.000552228546143
1789799142129493800,12.01949365234375,-0.0939724151611328,-6.581211450958252,8.789413569641113
1789799142139466800,12.029466796875,-0.6655880615234374,-6.436811163330078,8.616582137298584
1789799142149439000,12.03943896484375,-0.8572738319396972,-6.523002423095702,8.942792113494873
1789799142159412000,12.049411865234376,-0.5678747062683105,-6.459107166290283,9.254636879730224
1789799142169384000,12.059384033203125,-0.3076549133300781,-6.181230136108398,10.141538957214355
1789799142179357000,12.06935693359375,-0.3917512466430664,-6.056881287384033,10.54032317123413
1789799142189329000,12.079328857421874,-0.31528643112182614,-6.185419989013671,10.54077208404541
1789799142199302000,12.089302001953126,-0.014963760375976562,-6.411522408294678,10.294169313049316
1789799142209274000,12.099274169921875,0.20739771881103514,-6.642413230895996,9.786149648284912
1789799142219246800,12.109246826171875,0.263661457824707,-6.7368345588684075,9.25762963180542
1789799142229219000,12.119218994140626,0.10220248336791991,-6.82512074508667,8.962544277191162
1789799142239192000,12.129192138671876,-0.05835866546630859,-6.885275061798096,8.933514582061767
1789799142249163800,12.139163818359375,0.1666962905883789,-6.7842696792602535,8.863035270690917
1789799142259137000,12.149136962890625,0.28954876327514645,-6.543203499603271,8.467393446350098
1789799142269109000,12.15910888671875,0.12524667434692383,-6.436511888122558,8.352621404266356
1789799142279082000,12.16908203125,-0.35224691925048823,-6.492476351928711,8.039280261993408
1789799142289054000,12.179053955078125,-0.5536591339111328,-6.561010374450683,8.045265766143798
1789799142299027000,12.18902685546875,-0.5496189186096191,-6.533925968170165,8.227524367523193
1789799142308999200,12.198999267578126,-0.5241805259704589,-6.46060354232788,8.447790920257567
1789799142318972000,12.208971923828125,-0.6670844375610351,-6.357652870941162,8.930072917175293
1789799142328943900,12.21894384765625,-0.876577082824707,-6.372167718505859,9.239673119354247
1789799142338917000,12.228917236328124,-1.3956699302673339,-6.6524389503479,9.423727371978758
1789799142348888800,12.238888916015625,-1.9083283607482908,-6.881234846496581,9.640851535034178
1789799142358861800,12.24886181640625,-1.8971055404663084,-6.883329772949218,10.005518375396727
1789799142368834000,12.258833984375,-1.7836802368164062,-6.817189952087402,10.359261670684814
1789799142378805800,12.2688056640625,-0.9639654434204101,-6.657825904083252,10.580874961853027
1789799142388779000,12.278779052734375,-0.19093758239746092,-6.441150653839111,10.992378372192382
1789799142398751000,12.2887509765625,-0.06389525680541992,-6.441599566650391,11.300332560729979
1789799142408724000,12.298723876953124,-0.5466261665344238,-6.791003371429443,11.345972029876709
1789799142418696000,12.308696044921875,-0.5702689079284667,-7.595754404449463,10.452635535430908
1789799142428669000,12.3186689453125,-0.26560674667358397,-7.735067013549804,9.470713579559325
1789799142438641000,12.328640869140624,-0.49111061553955077,-6.912359468078613,9.073725016784667
1789799142448614000,12.33861376953125,-0.6420949577331543,-6.11628741607666,9.25134485244751
1789799142458585900,12.3485859375,-0.8277952239990234,-5.798157870483398,9.58339069519043
1789799142468559000,12.35855908203125,-0.9171288734436035,-5.8919806480407715,9.713874685668944
1789799142478530800,12.36853076171875,-1.113453409576416,-5.963357785034179,10.13181251296997
1789799142488503800,12.37850390625,-1.0507552536010742,-5.870133557891846,10.51473514099121
1789799142498476000,12.38847607421875,-0.8849567886352538,-5.827486840820312,10.549002152252196
1789799142508448800,12.39844873046875,-0.5702689079284667,-5.8366147346496575,10.408193167114257
1789799142518421000,12.4084208984375,-0.32620997619628905,-5.851578495025635,9.617956981658935
1789799142528394000,12.41839404296875,0.044891281127929686,-5.603778623199463,8.732252005004883
1789799142538366000,12.428365966796875,-0.2654571090698242,-5.072116217041016,7.816918782806396
1789799142548339000,12.4383388671875,-0.06479308242797852,-4.476708191680908,7.232583940124512
1789799142558311000,12.448310791015626,-0.0032920272827148436,-4.097376866149902,6.526294450378417
1789799142568283000,12.458282958984375,0.060303954315185544,-3.5652655471801755,6.089951197814941
1789799142578256000,12.468255859375,0.22056582794189453,-2.919728924560547,5.888688620758057
1789799142588228000,12.47822802734375,0.04025251541137695,-2.415150924682617,5.943156708526611
1789799142598201000,12.488201171875,0.49470191802978514,-2.274192301940918,6.21819062423706
1789799142608172800,12.4981728515625,0.8219593574523926,-2.3505074798583983,5.8551697975158685
1789799142618146000,12.50814599609375,0.9849147079467773,-2.179172423553467,5.587318486785889
1789799142628118000,12.518117919921876,0.38576574249267576,-1.8507178833007811,5.278167197418212
1789799142638090800,12.5280908203125,-0.5568015235900878,-1.68551796875,4.80112251663208
1789799142648063000,12.53806298828125,-0.4333505004882812,-1.7687164764404295,4.222773178100586
1789799142658036000,12.548035888671874,-0.7829039428710937,-1.7553987297058105,3.8721722724914547
1789799142668008000,12.558008056640626,-1.1385925270080566,-1.5881038887023924,3.587561550140381
1789799142677981000,12.56798095703125,-0.8777741836547851,-1.4199112220764158,3.653252458190918
1789799142687953000,12.577952880859375,-0.5443816024780274,-1.3606547309875487,3.538330778503418
1789799142697926100,12.587926025390624,-0.6832452987670898,-1.215506255340576,3.208828775024414
1789799142707897900,12.59789794921875,-0.8159738533020019,-1.0178349807739258,3.394529041290283
1789799142717870800,12.607870849609375,-0.8773252708435058,-0.8773252708435058,3.979911347198486
1789799142727843000,12.617843017578124,-1.0351929428100586,-0.9232640151977538,4.429422708892822
1789799142737815800,12.62781591796875,-1.322197866821289,-1.179293955230713,4.678120406341552
1789799142747788000,12.6377880859375,-1.4736311218261717,-1.4671967048645018,5.163844068145751
1789799142757760000,12.647760009765625,-1.3052888175964354,-1.7884686401367187,5.6118590538024895
1789799142767732700,12.657732666015624,-1.2792518745422363,-2.0355203239440915,5.95632481765747
1789799142777705000,12.667705078125,-1.2541127571105957,-2.2723966506958004,6.1541457298278806
1789799142787678000,12.677677978515625,-1.239148996734619,-2.5751135231018063,6.4071829177856445
1789799142797650000,12.68764990234375,-1.1315595596313477,-2.897881834411621,6.8028247421264645
1789799142807623000,12.697622802734376,-1.1094131942749024,-3.2918776451110836,7.056011567687988
1789799142817595000,12.707594970703125,-1.21296241607666,-3.692607147979736,7.315483172607421
1789799142827568000,12.717568115234375,-1.2063783615112305,-4.074631950378418,7.559542104339599
1789799142837539800,12.727539794921874,-1.1541548377990722,-4.612429498291015,7.802104660034179
1789799142847513000,12.73751318359375,-1.017685343170166,-5.236268668365478,8.136095791625976
1789799142857485000,12.747485107421875,-0.7339724464416504,-5.9850552375793455,8.291120349121094
