time,seconds_elapsed,z,y,x
1789799130168157700,0.05815771484375,-0.8248597550690173,-0.36106560100018975,0.538483557415381
1789799130178130000,0.0681298828125,-0.6644955901116132,-0.3880149827241897,0.3901342399004847
1789799130188102000,0.078101806640625,-0.5491606534481048,-0.44780689586400985,0.32902364537753165
1789799130198073900,0.088073974609375,-0.7291571551144123,-0.4980325237572193,0.2627013806208968
1789799130208045800,0.0980458984375,-1.0588076271533966,-0.7759206598550081,0.045584816350042814
1789799130218017800,0.108017822265625,-1.2810656459659338,-1.0187859978884457,-0.16071867748349905
1789799130227990800,0.11799072265625,-1.2521879265278577,-0.7641524806499481,0.11145678005591034
1789799130237962800,0.127962646484375,-1.5093635294646024,-0.6979027696728706,0.43388533801734447
1789799130247934700,0.137934814453125,-1.7349211743444204,-0.6568535509258508,0.6374488854929804
1789799130257907000,0.147906982421875,-1.4322247602045535,-0.7630512414097785,0.6798581405468285
1789799130267878700,0.157878662109375,-0.7257686817198992,-0.7519196065425873,0.4671824813328683
1789799130277851000,0.167850830078125,-0.22516192356050013,-0.5321668485492468,0.5578212220266461
1789799130287824000,0.177823974609375,-0.35762218254804606,-0.42002749305665493,1.1379328940555453
1789799130297795800,0.1877958984375,-0.6223223357707262,-0.2865630254626274,1.9420614112630485
1789799130307767800,0.197767822265625,-0.10391922415792941,0.20679215413331983,2.103076295214146
1789799130317739800,0.20773974609375,0.5528150843024253,0.6433534333616495,2.013560567200929
1789799130327711700,0.217711669921875,1.1024445243060588,0.8332388763576746,1.8631445264145732
1789799130337684000,0.22768408203125,1.1470973205029964,0.6675012016683817,2.060343215033412
1789799130347656700,0.23765673828125,1.5600474225193262,0.9478267940461635,1.8261901757657526
1789799130357629000,0.24762890625,1.8204519243746995,1.029102809241414,2.0027407747618855
1789799130367601000,0.257600830078125,1.803156506180763,0.9267144479125737,2.4130771871484815
1789799130377572900,0.26757275390625,1.6695108368009328,0.9791711958587169,2.591448279570043
1789799130387544800,0.277544921875,1.658160006225109,1.3286112409949302,2.2249103846386076
1789799130397516800,0.287516845703125,1.7245231144487856,1.5729285314023493,1.7082888957455753
1789799130407489800,0.29748974609375,1.6997089911878107,1.0673726264029741,1.0659116139397025
1789799130417461800,0.307461669921875,1.1043909821987152,-1.296522158294916,-0.2618266436129808
1789799130427433700,0.317433837890625,1.367961254608631,-1.330133335995674,-0.5850818616569042
1789799130437406000,0.327406005859375,1.418943253827095,0.87023034414649,0.197875272706151
1789799130447378000,0.3373779296875,-1.5930968746840952,1.410679283350706,0.45349809324294327
1789799130457350700,0.3473505859375,-3.679341423693299,-0.06799100168645382,-0.6787447724774479
1789799130467323000,0.357322998046875,-1.6130290711224078,0.6188754101872443,-2.679797886413336
1789799130477294800,0.367294921875,-0.9667021749079227,1.1867530390650034,-3.63351666110754
1789799130487266800,0.377266845703125,-2.8949358440876005,0.045806642407178876,-2.254732106928527
1789799130497238800,0.38723876953125,-4.700847786456346,-1.873732263663411,-0.4963161482933908
1789799130507212000,0.3972119140625,-6.1003767302393905,-4.768105213171244,1.950286072642356
1789799130517183700,0.407183837890625,-1.8091952018231152,-4.079259025657176,2.2082620321765543
1789799130527156000,0.417156005859375,1.3468278656870125,-4.19760483457446,0.3177683110654354
1789799130537127700,0.427127685546875,1.8559166209876536,-4.504079598209262,-0.9135404204975813
1789799130547100000,0.437099853515625,2.6790391770005226,-3.61749608515501,-1.2444181693091987
1789799130557072000,0.44707177734375,2.6838416088461874,-2.300947622397542,-1.815364830368757
1789799130567044600,0.457044677734375,3.3217022900104523,0.03215864080488682,-6.328930049803852
1789799130577016800,0.467016845703125,4.419509217643737,4.060454371944069,-15.460107138603925
1789799130586988800,0.47698876953125,3.0164766496539115,2.8244553636729717,-9.592945874521135
1789799130596960800,0.486960693359375,2.30965992116332,0.4871837974846363,-0.46112376581579445
1789799130606933000,0.49693310546875,2.230278341412544,1.1715952174216508,2.832320690220594
1789799130616906000,0.506906005859375,0.9531862752526998,2.282700602567196,4.641624905376136
1789799130626877700,0.516877685546875,0.43414545025825496,2.4964251863121985,4.733948384286463
1789799130636850000,0.526849853515625,0.8784358624339104,1.9332938751786946,3.4787069154068826
1789799130646821600,0.536821533203125,1.4645885681927204,1.0186790303826332,1.3004324636064468
1789799130656793900,0.5467939453125,1.3405202899754047,0.5118213951349259,-0.5444257338806987
1789799130666766800,0.556766845703125,0.47747781150639057,0.5903671085834503,-1.2450874468728899
1789799130676738800,0.56673876953125,-0.5278659364849329,0.901993263632059,-1.1784304702691732
1789799130686710800,0.576710693359375,-0.8186427802503109,1.0886527303189037,-0.8814863360457121
1789799130696683000,0.58668310546875,-0.8641630069315434,1.1878747365713118,-0.4612158280134201
1789799130706654700,0.59665478515625,-0.6640946080952882,1.3985434398770331,0.06289338628649711
1789799130716627700,0.606627685546875,-0.2746773573577404,1.5043576840013264,0.32960838646292684
1789799130726600000,0.616599853515625,0.299131999656558,1.4575848269104956,0.33210619462803004
1789799130736572000,0.626572021484375,0.7337199329853057,1.2817080355226993,0.3330687560498714
1789799130746543900,0.6365439453125,0.7806745763838291,1.0979092189639805,0.3221943108141422
1789799130756515800,0.646515869140625,0.592482493302226,0.8976490969479084,0.43266354113742705
1789799130766488800,0.65648876953125,0.8095628172159195,0.7447007612049579,0.5945892563231289
1789799130776460800,0.666460693359375,1.270109952187538,0.6078583416104316,0.7033943528264761
1789799130786432800,0.676432861328125,1.6524433821439741,0.5137298591047526,0.9104976187355815
1789799130796404700,0.68640478515625,1.6728513794004916,0.45526013447940344,1.099082792787999
1789799130806378000,0.6963779296875,1.2791454915583134,0.36059272279143334,1.2783537566587329
1789799130816349700,0.706349609375,0.3445259696096182,0.4731821601390838,1.4345204699262977
1789799130826322000,0.716322021484375,-0.5994757131904364,0.8040238877892494,1.4347196457602083
1789799130836294000,0.7262939453125,-1.115176580107212,1.1745301018297671,1.2180563782148062
1789799130846265900,0.736265869140625,-1.4122984089851378,1.3853928664028643,0.9995978978157043
1789799130856238800,0.74623876953125,-1.217253975790739,1.319279349026084,0.7012739266064018
1789799130866210800,0.7562109375,-0.5829308211028575,0.9223895704507827,0.3839513865470886
1789799130876182800,0.766182861328125,0.05562251850068569,0.3818716576635837,0.27521307166963815
1789799130886155000,0.776155029296875,0.5253577530562877,0.0394487978130579,0.29743513261079785
1789799130896126700,0.786126708984375,0.7690747394829988,-0.14567922152280807,0.45063181709162886
1789799130906099700,0.796099609375,0.6700479635417461,-0.18149989196658134,0.7072304238580167
1789799130916072000,0.806072021484375,-0.07854512892663479,0.15380641387701033,0.9726838796660303
1789799130926043600,0.816043701171875,-0.9259095612704753,0.6633446665108204,1.1940947801299393
1789799130936016000,0.826015869140625,-1.3749024520486592,0.9984668479591607,1.1501488170281051
1789799130945988900,0.83598876953125,-1.5202888281047344,1.0400386292755603,0.7136096035011112
1789799130955960800,0.8459609375,-1.2973124318897724,0.5726075800091028,0.27360457702707497
1789799130965932800,0.855932861328125,-0.7727695023477077,0.057523968207836146,-0.2727199396796524
1789799130975905000,0.865905029296875,-0.5412380437552928,-0.38066637352705,-0.5135391223056242
1789799130985876700,0.875876708984375,-0.6092705464959144,-0.5469283643513918,-0.6496173891272395
1789799130995849700,0.885849609375,-0.9434475560486316,-0.3970744874924421,-0.5432566535687073
1789799131005822000,0.895822021484375,-1.171108310687542,-0.12048340546786784,-0.10818312868010252
1789799131015794000,0.9057939453125,-1.1376058540582656,0.10505787279903889,0.3159812815181911
1789799131025766000,0.915765869140625,-0.9010112668573855,0.1990302879601717,0.38156478367149826
1789799131035739000,0.92573876953125,-0.5099813202261925,0.043375615867972374,0.19876966426260767
1789799131045710800,0.9357109375,-0.18555998101234436,-0.16244272479712962,-0.03925948578603566
1789799131055682800,0.945682861328125,-0.0016354922473430632,-0.2888461679637432,-0.1206464870750904
1789799131065654800,0.95565478515625,0.1813479162752628,-0.31123861703574657,-0.14653167363367975
1789799131075627800,0.965627685546875,0.23736031087636947,-0.2728296836644411,-0.0826997278554365
1789799131085600000,0.97560009765625,0.1865250266522169,-0.18614859455525873,-0.012372501773759722
1789799131095571700,0.98557177734375,-0.010441314515471457,-0.0897989288687706,0.037620632537826895
1789799131105544000,0.9955439453125,-0.17782909449934958,-0.001726093140244484,0.02236683970671147
1789799131115515600,1.005515625,-0.2250765833646059,0.04182487929463386,-0.09783577605839817
1789799131125488600,1.015488525390625,-0.16274083096086978,-0.03189151430130005,-0.2267670937348157
1789799131135460900,1.0254609375,-0.22128478986620903,-0.037030046233534814,-0.27665724259596314
1789799131145432300,1.035432373046875,-0.3281681245267391,-0.019174656069278716,-0.25860337071754036
1789799131155404300,1.045404296875,-0.25928455791473387,-0.04490414060950279,-0.18286504283994434
1789799131165377300,1.055377197265625,-0.18317396265864372,-0.08576338974237442,-0.16956897821417077
1789799131175349200,1.065349365234375,-0.19381576818227766,-0.18609131141006946,-0.11752161478651686
1789799131185321200,1.0753212890625,-0.05837912373244762,-0.2710907310426235,-0.07667871400024741
1789799131195293400,1.08529345703125,0.12083178051412105,-0.21927578813135623,-0.0373081325225532
1789799131205266200,1.09526611328125,0.19759879385232923,-0.14167173944711683,0.004510280498676002
1789799131215238400,1.10523828125,0.03872223710417747,-0.05522153648436069,0.07100377363637089
1789799131225210400,1.11521044921875,-0.33563422262370585,0.11453531071841716,0.17671762612611056
1789799131235182300,1.125182373046875,-0.6257341900408268,0.25606968752145765,0.21978275127280503
1789799131245154300,1.135154296875,-0.8202455392718314,0.2996381956130266,0.20003626839863134
1789799131255127600,1.14512744140625,-0.8671446530908345,0.28492636417150496,0.168070830344595
1789799131265099300,1.155099365234375,-0.6683966892033815,0.21067396400272845,0.08346746995807625
1789799131275071500,1.165071533203125,-0.3405038744866848,-0.0037584757506847377,-0.06059911960316822
1789799131285043200,1.175043212890625,-0.19124153378009795,-0.21410803010463714,-0.21933363753212615
1789799131295016200,1.18501611328125,-0.17515607589781285,-0.3407961354315281,-0.33665224055983123
1789799131304988400,1.194988525390625,-0.1066430961638689,-0.4055710976809263,-0.3760118622520938
1789799131314960100,1.204960205078125,-0.1171785187035799,-0.2805500487834215,-0.38813133911285547
1789799131324932400,1.214932373046875,-0.27562603638470173,-0.08849895218610764,-0.2959603108178824
1789799131334905300,1.2249052734375,-0.482764227476716,0.05216448700129986,-0.30902492304164914
1789799131344877300,1.234877197265625,-0.6483370669931173,-0.04334171359837055,-0.4336839702263474
1789799131354849300,1.244849365234375,-0.6516156502723693,-0.22303251031637192,-0.5812986898563802
1789799131364821500,1.254821533203125,-0.4722030859738588,-0.40592590246796606,-0.7586516182113439
1789799131374794200,1.264794189453125,-0.26340368367135525,-0.5814917282104491,-0.8638239111702889
1789799131384766500,1.274766357421875,-0.05993161387145519,-0.7008160267710686,-0.8006555803999305
1789799131394738400,1.284738525390625,0.20531448279619216,-0.8556389242142438,-0.5743599766343832
1789799131404710400,1.29471044921875,0.583278611627221,-0.8923089049637317,-0.2575079036310315
1789799131414683400,1.304683349609375,0.7596884869784116,-0.7449982828468084,0.09665938922278583
1789799131424655400,1.3146552734375,0.40695583003759384,-0.39852351725697516,0.3575148497160524
1789799131434627300,1.32462744140625,-0.1454167711943388,-0.0806359637260437,0.6705731564596294
1789799131444599300,1.334599365234375,-0.49538873125016686,-0.10798106676936149,0.6414277990613132
1789799131454572500,1.344572509765625,-0.8414373803824186,-0.2275818441838026,0.35329869332574304
1789799131464544300,1.354544189453125,-1.031917282140255,-0.6559738454818725,0.24798078135102986
1789799131474516500,1.3645166015625,-1.0282926619023085,-0.6573907265424728,0.29192877201316875
1789799131484488200,1.37448828125,-1.2692039432585238,-0.09072364249825476,0.6279977510586381
1789799131494461200,1.384461181640625,-1.6991805833995342,0.02424830607175827,0.655404594226554
1789799131504433400,1.394433349609375,-2.062077491480112,0.2618061853468418,0.5702182006545364
1789799131514405400,1.4044052734375,-1.9751181699514389,0.00651332741677761,0.07411052574636415
1789799131524377300,1.41437744140625,-1.7519313458561896,-0.44588557241261,-0.3671560268297791
1789799131534350300,1.424350341796875,-1.8226748611211776,-0.27329437856674194,-0.3709618853861466
1789799131544322300,1.434322265625,-2.2297511026680468,-0.1263625266343355,-0.3655219593545422
1789799131554294300,1.444294189453125,-2.5205063191235064,-0.10834347034096717,-0.4432917565271258
1789799131564266500,1.4542666015625,-2.177741513967514,-0.15059505061507225,-0.5912176609981805
1789799131574239200,1.4642392578125,-1.7307506106615065,-0.2078051305681467,-0.5862252595383673
1789799131584211500,1.47421142578125,-1.5356377884060144,-0.09423778809905052,-0.36624051942005753
1789799131594183400,1.484183349609375,-1.3367097917765378,-0.025189970836043355,-0.33498649930469687
1789799131604156200,1.49415625,-0.9071756347060203,-0.10486731866300106,-0.445194156082347
1789799131614128400,1.50412841796875,-0.4115308828681707,-0.13402970026135444,-0.4730287962082773
1789799131624100000,1.51410009765625,-0.15743980194330215,-0.026468320208787918,-0.2894614503178745
1789799131634072300,1.524072265625,-0.17674071474075317,0.34273908619284627,0.11674779913611709
1789799131644045300,1.53404541015625,-0.15651625735759733,0.29936171675920487,0.08196107484996318
1789799131654017300,1.544017333984375,0.12529109801054,0.06845745015442371,-0.3673042031288147
1789799131663989200,1.5539892578125,0.5058037422806024,1.4766811570465563,0.28281390206217766
1789799131673961500,1.56396142578125,0.9465104507505893,0.7917857529848814,-0.10505831119045615
1789799131683934200,1.573934326171875,1.1886544887721537,-0.09809797065854071,-0.5770807799004017
1789799131693906400,1.583906494140625,1.0207394700437784,0.3609562954068184,-0.6469355296321213
1789799131703878400,1.59387841796875,0.9441939905017613,0.6137725340902805,-0.2835594597324729
1789799131713850400,1.603850341796875,1.3460393456578255,0.6074889237761497,0.06349062152728438
1789799131723823400,1.6138232421875,1.9111825811356304,0.626515111285448,0.25362287889122964
1789799131733795300,1.62379541015625,2.0535575004160402,0.694735245552659,0.48691287158876656
1789799131743767300,1.633767333984375,1.6890391286134718,0.8454618135929107,0.45012189480811354
1789799131753740300,1.643740234375,1.1255787316560744,0.902987535366416,0.2383057750329375
1789799131763712500,1.65371240234375,0.8879477871447801,0.7981202167034148,0.004983925892412662
1789799131773684200,1.663684326171875,0.8412520869433879,0.720502139493823,-0.14144947499856353
1789799131783656400,1.673656494140625,0.9382926575034857,0.6603811405301093,-0.14381313538998364
1789799131793629400,1.68362939453125,0.9910369902193545,0.7003530854344368,0.07796615999490022
1789799131803601200,1.69360107421875,0.8144073346376418,0.7922387574493884,0.23552242792472242
1789799131813573400,1.703573486328125,0.4749439091145992,0.8375356967687606,0.27262466261163354
1789799131823546400,1.71354638671875,0.1613186892032623,0.874932238227129,0.20894319468736647
1789799131833518300,1.723518310546875,-0.014487959557771681,0.8539134155958891,0.09181699069291353
1789799131843490300,1.733490234375,0.05871639286279678,0.7764712794750929,0.03135726129412651
1789799131853462300,1.743462158203125,0.1760194147288799,0.751696319180727,0.07469400645643472
1789799131863435300,1.753435302734375,0.2741103711247444,0.8006915284961461,0.3658792848922312
1789799131873407500,1.763407470703125,0.2283341238558292,0.9392775768876075,0.62781684153378
1789799131883379200,1.773379150390625,0.03534077797234058,0.9828583599388598,0.5486572339706123
1789799131893352200,1.783352294921875,-0.17198329108059404,0.8340367487370968,0.28593685638830063
1789799131903324400,1.793324462890625,-0.2974731265336275,0.7364490656882524,-0.053351504828780885
1789799131913296100,1.803296142578125,-0.4769242692768573,0.7748831335008144,-0.20943565437942743
1789799131923268400,1.813268310546875,-0.6289122355550527,0.8438976330161094,-0.12126534962579608
1789799131933241300,1.823241455078125,-0.5969412262767553,0.9561854570686816,0.04065831973329186
1789799131943213300,1.83321337890625,-0.43619361495971676,1.021055111864209,0.12715309249013662
1789799131953185300,1.843185302734375,-0.21340894192457197,0.9153156865417956,0.1626153048850596
1789799131963158300,1.853158203125,0.12880991978645323,0.7529004342734813,0.2563812376886606
1789799131973130200,1.863130126953125,0.4759802664250135,0.5946826336950063,0.3119265992999077
1789799131983102200,1.873102294921875,0.6539461390465497,0.4265244538605213,0.31058176056221126
1789799131993074400,1.883074462890625,0.6218406897336244,0.30208851137459275,0.3712348205760121
1789799132003047200,1.893047119140625,0.42906595503687855,0.24944588546752927,0.4371215434595942
1789799132013019400,1.903019287109375,0.150078917786479,0.1623521239042282,0.4358084150344133
1789799132022991400,1.912991455078125,-0.10136837063133716,0.006309329277276993,0.44920244187563657
1789799132032964400,1.92296435546875,-0.2317851410925388,-0.06710486650168895,0.48095323253199457
1789799132042936300,1.932936279296875,-0.31277298699617384,-0.18640695323050022,0.47377764181420207
1789799132052908500,1.942908447265625,-0.30843583457469936,-0.2716793445855379,0.562212588853389
1789799132062881300,1.95288134765625,-0.10827800388932228,-0.30470892300605773,0.6599475714184343
1789799132072853200,1.962853271484375,-0.02995557780265808,-0.4772410801410675,0.627598814868927
1789799132082825500,1.972825439453125,-0.18848083689510822,-0.6672919428318739,0.569550530526042
1789799132092797200,1.982797119140625,-0.46312195389568805,-0.8035878344595432,0.5267566600687802
1789799132102770400,1.9927705078125,-0.8651414965748786,-1.015053825622797,0.5204305257871746
1789799132112742400,2.002742431640625,-1.266497606909275,-1.230068449178338,0.47551615604460234
1789799132122714400,2.01271435546875,-1.627471437972784,-1.3741945960402489,0.4451312469139695
1789799132132687400,2.022687255859375,-1.8394541464865206,-1.4357956044286488,0.5485705786004662
1789799132142659300,2.032659423828125,-1.7764339189499616,-1.5886510011911392,0.729554922260344
1789799132152631800,2.0426318359375,-1.6349813752114772,-1.7708125719368457,0.8503577689409255
1789799132162604800,2.052604736328125,-1.5655927816867827,-1.8256290347516535,0.7984238758251071
1789799132172576800,2.06257666015625,-1.6798095279753207,-1.8589725014269352,0.7515440512284636
1789799132182548700,2.072548828125,-1.8165987560778856,-1.9348183082669972,0.74487407194525
1789799132192521700,2.082521728515625,-1.837629853668809,-2.022919785568118,0.6957049673676491
1789799132202493700,2.09249365234375,-1.802377338501811,-2.1927871074080465,0.4895367903515696
1789799132212465700,2.102465576171875,-1.8067238432735204,-2.5194091715365645,0.2576522805377841
1789799132222438000,2.11243798828125,-1.8475731555342674,-2.787726930734515,-0.03140139269679785
1789799132232410600,2.12241064453125,-2.012109637740254,-2.976010199230909,-0.30565643298923967
1789799132242382800,2.1323828125,-2.105147986921668,-3.189837074306607,-0.4754691020324826
1789799132252354800,2.142354736328125,-2.0073755949556826,-3.5124510718375443,-0.6788552471145987
1789799132262327600,2.15232763671875,-1.9935358701735735,-3.833877905410528,-0.9698270289301871
1789799132272299800,2.1622998046875,-2.0638164441019295,-4.013433677572012,-1.268424483318627
1789799132282271700,2.172271728515625,-1.8907681541383266,-4.106940228787065,-1.4539017544835806
1789799132292244700,2.18224462890625,-1.3628887736499309,-4.264813745972514,-1.7652435396328567
1789799132302216700,2.192216796875,-0.7119786412984133,-4.4960126116096975,-1.8684215900346635
1789799132312188700,2.202188720703125,-0.03524374733865261,-4.726038341814279,-1.890806440322101
1789799132322161700,2.21216162109375,0.232465524572134,-4.992447637042403,-2.0851561692506073
1789799132332134000,2.2221337890625,0.22795243106186389,-5.118326179552078,-2.4939018053144215
1789799132342105600,2.232105712890625,0.11034838042259215,-5.159303502106666,-2.87112008421421
1789799132352078600,2.24207861328125,-0.2680763516575098,-5.39052048792243,-2.9787516068935393
1789799132362050800,2.25205078125,-1.094657523691654,-5.349465423956513,-3.389280619242787
1789799132372022500,2.2620224609375,-1.638433561491966,-4.913136784440279,-3.7805133949697014
1789799132381995800,2.271995849609375,-2.0291233163833615,-4.388302178475261,-3.4030683215767144
1789799132391967700,2.2819677734375,-2.0223522148132322,-3.9775872881650924,-2.6313211480140684
1789799132401939700,2.291939697265625,-2.3767519281834364,-3.825502291253209,-1.804833499482274
1789799132411912700,2.30191259765625,-2.976564325982332,-4.185610737659037,-1.294946287280321
1789799132421884700,2.311884765625,-3.2060210241273044,-4.607968427228927,-1.393386787766218
1789799132431856600,2.321856689453125,-3.2049221229746934,-4.917905314016342,-2.112570245876908
1789799132441829600,2.33182958984375,-3.2077062007352706,-4.939368957805633,-3.1255437580943104
1789799132451801900,2.3418017578125,-2.587787711235881,-4.532248877117038,-3.7704713089048862
1789799132461773600,2.351773681640625,-2.0803537374049426,-4.36533485212475,-3.2407161976724863
1789799132471746600,2.36174658203125,-1.6951935595899819,-4.606310430888831,-2.111706907045841
1789799132481718800,2.37171875,-1.089350795585662,-4.374694508883357,-0.8556225576013327
1789799132491690800,2.381690673828125,-0.770010559028387,-4.197502543243766,0.5746504840135574
1789799132501663700,2.391663818359375,-0.5808833870537579,-3.30004429269284,3.322335911738872
1789799132511635700,2.4016357421875,-3.0732360632300377,-0.9024173342630266,11.898324172842502
1789799132521607700,2.411607666015625,-4.884650110146403,2.5163082829117775,17.180850734513996
1789799132531580700,2.42158056640625,4.2830806395471095,-3.0015076285809275,-1.1633002672851085
1789799132541553000,2.431552978515625,6.632974371421337,-7.288577630025148,-7.00225835019052
1789799132551524600,2.441524658203125,6.068433193489909,-7.066662725561857,-4.9677019028425216
1789799132561497600,2.45149755859375,7.026528283572197,-6.24312749709487,-2.731146380856633
1789799132571469800,2.4614697265625,7.152974981358647,-5.405149901777506,1.2417886975884438
1789799132581441500,2.471441650390625,6.816406692755222,-5.41295619161427,3.5007162103801965
1789799132591414800,2.481414794921875,6.316612420022487,-5.101950214290619,4.864467153817415
1789799132601386800,2.49138671875,7.08491500608921,-3.958770067231357,5.659295343238115
1789799132611358700,2.501358642578125,6.927168914675712,-1.4430886840462684,7.419726806414127
1789799132621331700,2.511331787109375,4.947745156484842,-0.8809533982127904,9.831132114827632
1789799132631303700,2.5213037109375,2.6020763488292693,-1.1977996259972452,11.672055749344825
1789799132641275600,2.531275634765625,1.7660159853100776,-0.20972353141009806,12.579417262011766
1789799132651248600,2.54124853515625,0.9627950844667852,1.3250620240807534,12.823697143018245
1789799132661220900,2.551220947265625,-0.3708564887829125,2.201817970603704,11.11049387948513
1789799132671192600,2.561192626953125,0.17997297466024756,2.993332505431771,9.593872926238179
1789799132681165600,2.57116552734375,0.8673658946260809,2.538061265036464,9.234123668533563
1789799132691137800,2.5811376953125,0.1383230135411024,2.0504431677877903,8.690134280243516
1789799132701110800,2.59111083984375,1.238490532825887,2.712063494724035,9.02974325171709
1789799132711082800,2.601082763671875,1.805124299122393,3.48508083435297,9.879221899735928
1789799132721054700,2.6110546875,1.8454691689923404,3.5185271768808364,10.523265653449297
1789799132731028000,2.621028076171875,1.649250723582506,3.095061526069045,10.1003102902472
1789799132740999700,2.630999755859375,1.4968945085138081,3.3058658384531734,8.703937180146575
1789799132750972000,2.640971923828125,1.799943389353156,3.3654584296286103,7.632301635602116
1789799132760945000,2.65094482421875,2.0663193668335675,3.2233670034646984,6.892417334768176
1789799132770916600,2.66091650390625,1.9306793087661265,2.481698157301545,6.8748407615453
1789799132780888800,2.670888916015625,0.6776029089659452,2.09070912720263,6.283564136901497
1789799132790861800,2.68086181640625,-0.24840017580687998,2.815164972758293,5.451521192330122
1789799132800833800,2.690833740234375,-1.872234718582034,3.880141643935442,5.2546109652638435
1789799132810806800,2.700806884765625,-3.3085213213980196,3.5542958248764274,5.833190605419873
1789799132820778800,2.71077880859375,-5.393780951023102,3.018769729027152,5.862137298440933
1789799132830750700,2.720750732421875,-3.3199358648598194,3.2918244536191223,5.857800146019459
1789799132840723700,2.7307236328125,-1.0935092304393648,3.447539915987849,5.163976170092821
1789799132850696000,2.740696044921875,-0.44852848813682794,2.9968881520867345,3.8281022446185347
1789799132860667600,2.750667724609375,-0.5468968001693487,1.821424568799138,2.369749355944991
1789799132870640600,2.760640625,-0.9563780570313334,0.6141916362851858,1.3672118975460528
1789799132880612900,2.77061279296875,-1.1126081909239292,-0.36676644299030303,0.4896399584650993
1789799132890585600,2.780585693359375,-1.1570984900355339,-0.6312333719789981,0.14134382266700268
1789799132900557800,2.790557861328125,-1.3129647590517997,-0.5848141506314277,0.4216846126139164
1789799132910529800,2.80052978515625,-1.400020818953216,-0.15895722076892851,0.9724024323761462
1789799132920502800,2.810502685546875,-1.5002391427665949,-0.009750409641861916,1.6989041045457123
1789799132930474800,2.820474853515625,-1.2394447648108005,-0.2947270426958799,2.4663129566431046
1789799132940447000,2.830447021484375,-0.30475626927912236,-0.7758207066118716,2.804143228006363
1789799132950419700,2.840419677734375,1.0318212744198738,-1.0286270084232092,2.611765383672714
1789799132960391700,2.8503916015625,1.6103645280882715,-0.09340893605947494,2.5340707340955735
1789799132970364000,2.860364013671875,2.3860076861761508,0.8530506612867117,3.8507004453957077
1789799132980336600,2.870336669921875,1.9686340686291455,0.4377472741425037,4.828224458569288
1789799132990308900,2.880308837890625,1.654709573510289,0.8914987576246262,5.422208004084229
1789799133000281900,2.89028173828125,1.3370881235696375,1.7136673739135264,4.99955893035233
1789799133010253600,2.900253662109375,0.3813366740040481,1.8954864148318766,4.308548258280754
1789799133020225800,2.910225830078125,-0.254895967566967,1.9420839153558014,4.580355613160133
1789799133030198800,2.92019873046875,-0.013052519927173852,1.7518319771349429,4.904480015254021
1789799133040170800,2.930170654296875,1.3315513861000536,1.3443144215613603,7.311813544183969
1789799133050143700,2.940143798828125,1.755188886347413,2.5208389120787382,8.490483814558386
1789799133060115700,2.95011572265625,0.13052359183654189,2.3438953682422636,5.595771257832646
1789799133070087700,2.960087646484375,-1.3039292196810244,0.08070259922146797,0.7595429410278797
1789799133080060700,2.970060791015625,-1.5298239875607191,0.5769488240838051,1.06301618475914
1789799133090033000,2.980032958984375,0.36665180363468824,0.781349699166417,1.1432049892395735
1789799133100004600,2.990004638671875,0.5839660824347287,-0.09379296694099902,-0.8620248258590698
1789799133109977600,2.9999775390625,-0.7468249868173151,-1.1573930890679358,-3.8499037420600652
1789799133119949800,3.00994970703125,0.9777841984797269,-1.6803166007146237,-5.7287225152075285
1789799133129922600,3.019922607421875,1.697289655086398,0.781053346568346,-2.6815795091331003
1789799133139894800,3.029894775390625,-1.0388158094823359,0.5002022690117359,-4.923248428609967
1789799133149866000,3.039865966796875,0.04439502204358577,0.23507103089541195,-6.30416794899106
1789799133159839200,3.049839111328125,0.6862392198860645,-2.168772902353108,-11.169205596172809
1789799133169811200,3.059811279296875,2.390292377758026,-4.53410093472451,-15.582114392638205
1789799133179784200,3.0697841796875,2.122411840933561,-4.655539448960125,-14.354058452326058
1789799133189756200,3.079756103515625,0.6710556792795658,-2.956451804541051,-8.19093621983826
1789799133199728000,3.08972802734375,-0.505474729521945,-0.7115773670211434,-3.6511259675562378
1789799133209701400,3.099701416015625,-0.2115431480526924,1.1345739390164613,-2.6241385430335997
1789799133219673000,3.109673095703125,-0.6594857260603457,1.8526365764036774,-2.5203683719575403
1789799133229646000,3.11964599609375,-0.5837212408281862,1.648952325157821,-2.8595477198421952
1789799133239618300,3.129618408203125,-0.21752857913784682,0.7459791105777025,-2.9362849225640297
1789799133249590300,3.13959033203125,-0.5194621922116727,0.6101157651484013,-2.2969202665776014
1789799133259563300,3.149563232421875,-0.7463455327372998,2.3963784196734426,-0.7462053205490112
1789799133269535200,3.15953515625,3.7465129256904124,4.383890207251906,-0.3293354147404432
1789799133279508200,3.16950830078125,7.031593750268221,-0.8020058259651064,4.96604478328526
1789799133289480200,3.179480224609375,5.880764842021465,-0.2405941782310605,4.271311875820159
1789799133299452400,3.189452392578125,-0.927771921076253,1.7693690951302647,1.9161469255447388
1789799133309425200,3.199425048828125,-1.7183821274757385,1.2183178056299686,-0.5303396331220865
1789799133319397000,3.209397216796875,-0.7626608538527041,3.0696722332686184,-3.7661382481366394
1789799133329370400,3.219370361328125,-0.7333423318445682,0.646039895966649,0.018448095360398292
1789799133339342000,3.229342041015625,0.8566086460292339,1.3483762641727923,3.409238534644246
1789799133349314300,3.239314208984375,0.5571743754904717,1.2950766356617212,4.25340797033906
1789799133359287300,3.249287353515625,-0.12402031088974326,-1.1349638151168822,3.481470242640376
1789799133369259000,3.259259033203125,-1.0117091913700103,-1.5536352173894643,0.9883791691869497
1789799133379232300,3.269232177734375,-1.8746879569530486,-1.7622399739027022,-0.06369418127536773
1789799133389204200,3.279204345703125,-0.45602874423172324,-3.207966605237126,0.5892004028916359
1789799133399176200,3.28917626953125,-0.3523673307597637,-2.723155382102728,0.5481897625893354
1789799133409149200,3.299149169921875,-1.5886965938985347,-2.5962919202089307,0.24588497811555862
1789799133419121200,3.30912109375,-0.535167199409008,-1.7890970011681318,-0.06700491325855255
1789799133429094400,3.319094482421875,0.34813889940977094,-0.6025076282322407,-0.9013923751294612
1789799133439066000,3.329066162109375,1.1797919678807258,0.1614806017667055,-0.27326281438469885
1789799133449662200,3.339662109375,3.7273756790220736,-0.1607879433274269,2.771955945628881
1789799133459635200,3.34963525390625,1.831098406073451,-0.8028349702656269,3.2352672846168278
1789799133469607200,3.359607177734375,-0.7021101582348346,-0.8018938900232314,3.2716467579871416
1789799133479579100,3.3695791015625,1.269392159307003,-0.5344792171448469,2.5119436579614876
1789799133489552400,3.379552490234375,2.024182352849841,-0.698599519765377,2.6396061612784862
1789799133499524000,3.389524169921875,-0.34802670773956923,-1.8562842852562664,3.0418513294070957
1789799133509497000,3.3994970703125,-1.152504732504487,-3.469889694961905,3.176753720849752
1789799133519469300,3.40946923828125,0.0577174084207043,-2.9113106403052806,3.402403135666251
1789799133529441000,3.41944091796875,0.7743366055339574,-1.9229718031287193,3.362949077156186
1789799133539414300,3.429414306640625,0.14499123925864696,-0.2086930193185806,4.2456852671325205
1789799133549386200,3.43938623046875,0.15991934379935263,-0.7421329565435647,2.1509481995880604
1789799133559359200,3.449359130859375,0.7462813083946704,-0.06657061349451542,3.2108237482339144
1789799133569331200,3.459331298828125,0.4490203633069992,-0.4064993184417486,5.479847707626223
1789799133579304200,3.46930419921875,0.5271347361335531,-3.228943342292309,2.9401059421569107
1789799133589276400,3.4792763671875,1.2993547513723374,-1.3941542650073766,-1.1451543697416782
1789799133599248100,3.489248046875,0.09611892567053437,3.3058155695706604,-4.286035982221365
1789799133609221000,3.49922119140625,-0.5846959310792387,6.002051965087652,-7.346568631222843
1789799133619193300,3.509193359375,-0.6930078372381627,6.217922913211583,-6.972347780573368
1789799133629166000,3.519166015625,0.17799641389027238,3.5695115141868587,-2.298566280218959
1789799133639138300,3.52913818359375,0.3848294845558703,0.851662421798706,0.06687865653038025
1789799133649111300,3.539111328125,0.5754921955347061,-0.5718745895594358,0.9895528891414404
1789799133659083000,3.5490830078125,0.619376783838123,-0.9087140963196754,1.4940046322911977
1789799133669055200,3.55905517578125,0.5314494940601289,-1.0655684995904564,1.6301321816146372
1789799133679028200,3.5690283203125,0.20431728845238684,-1.373336517906189,1.5362404304742812
1789799133689000200,3.579000244140625,-0.18573080753460525,-1.6654101234838365,1.26865157007277
1789799133698973200,3.58897314453125,-0.1910534638620913,-1.8201757377818226,0.780514417386055
1789799133708945200,3.598945068359375,0.1849662529028952,-1.2712766578793524,0.2283966676980257
1789799133718918100,3.608918212890625,0.44930911712050436,-0.6837804285570979,-0.25866847184300423
1789799133728890000,3.61889013671875,0.44912557724714275,-0.529445314630866,-0.2392676058024168
1789799133738862300,3.6288623046875,0.41027357628345484,-0.36521336832940576,-0.1323708271384239
1789799133748835000,3.6388349609375,0.18240005567669867,2.194416169914603,0.15056933165192604
1789799133758807300,3.648807373046875,0.36396073791980743,7.08683574501872,-0.3260901492089033
1789799133768780300,3.6587802734375,0.6310828575924039,0.46954205007106065,-0.9030816433906554
1789799133778752000,3.668751953125,0.16313889036774634,-1.4122002093076704,0.4527279856532812
1789799133788725200,3.678725341796875,-0.2830278370738029,1.3661907378047704,0.8378788111180067
1789799133798697200,3.688697265625,0.10431260738968849,2.4934488008499143,0.14573241301476955
1789799133808670200,3.698670166015625,1.0051903109952807,2.1300372212454675,0.3939589858204126
1789799133818642200,3.70864208984375,1.4599489256933331,1.0510524829819798,1.035921257084608
1789799133828614100,3.7186142578125,1.4011588830724357,-1.5276964740127323,0.9846189398705959
1789799133838587400,3.72858740234375,0.8797136272847652,-3.0516727584585546,0.645668724566698
1789799133848559000,3.73855908203125,0.8053392081715166,-2.9783406880050896,0.3109229752153158
1789799133858532000,3.748531982421875,0.9781484286822378,-0.723736006848514,0.680238518166542
1789799133868504300,3.75850439453125,0.7815548663496971,2.4158434369914232,0.7720669070363044
1789799133878477000,3.76847705078125,0.6256919583342969,3.695484749242663,-0.18903788625597953
1789799133888449300,3.77844921875,0.625002660895884,2.468445584757626,-1.3201438569009303
1789799133898422300,3.78842236328125,0.8167747944213449,-0.1833048955619335,-2.687555660933256
1789799133908394000,3.79839404296875,0.7652537198901176,-1.1191491369999944,-2.8083097000360486
1789799133918366200,3.8083662109375,0.8116894539810716,1.1154859383173286,-1.8736001617163418
1789799133928339200,3.818339111328125,1.2500342556253075,2.581645262958109,-1.7032985401123761
1789799133938311200,3.828311279296875,1.9395162568248807,4.117894168999791,-1.8429419886022804
1789799133948284200,3.8382841796875,0.4971184776522219,4.817598142875731,-1.5669383510768413
1789799133958256000,3.848256103515625,-0.26514365920647975,3.686602062346041,-2.3064240079820153
1789799133968229400,3.8582294921875,0.10673968840613961,2.9783862807124852,-2.4823867240875956
1789799133978201000,3.868201171875,0.9285716200865805,3.1764076838910578,-1.7527987763404844
1789799133988174000,3.878174072265625,0.24501988571882247,2.866298070885241,-1.602127737879753
1789799133998146300,3.888146240234375,-0.41823125728964805,2.28405859304741,-1.5136252785623072
1789799134008119000,3.898119140625,-1.1808921842075883,1.634299238166213,-1.7670441593140362
1789799134018091300,3.90809130859375,-0.40265038792863483,0.1835484950594604,-2.085068490967154
1789799134028063200,3.918063232421875,0.009069587770849466,-1.7340310936369001,-2.749919470387697
1789799134038036200,3.9280361328125,-1.1317397385038435,-0.24884601987823843,-2.8985037657022477
1789799134048008200,3.93800830078125,-1.9480232422769068,4.665609299814701,-3.816928524175286
1789799134057981200,3.947981201171875,1.3921183752655981,3.726626906481385,-4.045953552904725
1789799134067953200,3.957953125,1.8989736724257469,-1.9261966103941202,-4.4944794106930495
1789799134077926100,3.967926025390625,1.283483813023567,-9.524300208318232,-6.494282524567842
1789799134087898400,3.9778984375,1.4063045753978192,-15.228475142246484,-6.774203627797961
1789799134097871400,3.987871337890625,-0.4548107102114707,-15.270654241806268,-2.347066984015703
1789799134107843000,3.997843017578125,-2.443587914615869,-11.793657345187663,1.9095266306221483
1789799134117816300,4.00781640625,-2.043250041413307,-4.470715965528786,0.999180549186468
1789799134127788300,4.017788330078125,0.7096095740795135,-0.14364771569520235,-0.879641146570444
1789799134137761000,4.027760986328125,1.014355906486511,-1.277010525356233,-1.1360416734814642
1789799134147732700,4.037732666015625,-0.8926315610468387,-3.273644946067035,-1.0232014762431383
1789799134157704700,4.04770458984375,-1.308736327701807,-2.75920167799592,-1.4476245739102362
1789799134167678000,4.057677978515625,-1.1850912433326244,-1.4166495899319649,-2.1754110251933336
1789799134177649700,4.067649658203125,-0.5289432103276253,-2.02498665497005,-2.982157615944743
1789799134187623000,4.077622802734375,-0.42681788384914393,-1.7911793604001403,-2.3499726423293352
1789799134197595000,4.087594970703125,-0.6796773771524429,-0.4459858179166913,-1.6300240450650452
1789799134207568000,4.09756787109375,-0.2378320017750375,1.1750149627372621,-1.1903864271312952
1789799134217539800,4.107539794921875,-0.24454346384610978,1.4610057412698865,-1.4484960960477589
1789799134227512800,4.117512939453125,-0.43453485143464055,0.8424152855038642,-0.24878654477596282
1789799134237485000,4.127485107421875,-0.7980313693761825,0.9476187042534351,0.8790285676300525
1789799134247457800,4.137457763671875,-0.8130074777770787,0.911915230448544,1.0641466500937937
1789799134257429800,4.1474296875,-0.9654923607267438,-0.198804077988863,2.0602228035241366
1789799134267403000,4.157403076171875,-1.3065617601417003,-0.32524317699074745,2.633151286050677
1789799134277374700,4.167374755859375,-1.026341673965007,-1.0770742284670471,3.2410189800113436
1789799134287347000,4.177346923828125,-0.5836171228665858,-2.0918255640119314,3.1884944275259968
1789799134297320000,4.18731982421875,-0.32546251882985233,-2.114983152237534,2.9871961946338415
1789799134307291600,4.197291748046875,0.014035466549918055,-0.9259992853805422,3.340992681413889
1789799134317265000,4.207264892578125,0.4775006078600883,-0.5009969265207648,2.6510581141412257
1789799134327236900,4.21723681640625,1.039976085433364,-0.36601124070882796,1.9282599726647138
1789799134337209900,4.2272099609375,0.1788615062870085,-0.4186462678313255,2.242971234247088
1789799134347181800,4.237181884765625,-0.04321969465389847,-0.5079635506629944,2.417145897892117
1789799134357154800,4.24715478515625,0.3948128992360085,-0.8068652486950159,2.0063070889413357
1789799134367127000,4.257126953125,0.6499141070514917,-0.8095423589497804,1.8646300887972116
1789799134377099800,4.267099853515625,0.6063438453942537,-0.9149041831314563,2.0346558160692454
1789799134387071700,4.27707177734375,0.5490290629576892,-1.2051602178931236,2.0519681853979823
1789799134397045000,4.287044921875,0.28778116908073426,-1.4923007509827613,2.040094792252779
1789799134407016700,4.2970166015625,0.15945589100606739,-1.6988783855825662,1.613620022752881
1789799134416989700,4.30698974609375,0.07747026623673736,-1.1260299825549125,0.9295359350740909
1789799134426962000,4.3169619140625,-0.8496135995101183,0.7700251720756291,-0.25559154861569405
1789799134436934700,4.3269345703125,-0.8199450950205326,3.2930712388098238,-0.85570205257833
1789799134446907000,4.336906982421875,1.37644909696877,3.2051591466009617,-0.2996294277846813
1789799134456879900,4.3468798828125,1.3316782273501158,2.5019489181697367,0.8919804036617278
1789799134466851600,4.3568515625,0.1545446650236845,1.585450743845105,1.727539831921458
1789799134476824800,4.366824951171875,-0.46656303426027296,0.5987631810069084,1.6740958265036343
1789799134486796800,4.376796875,-0.04011981980926357,-0.21487842995524406,1.6618594452649353
1789799134496769800,4.386769775390625,0.2960013004153967,-0.8846621896028518,1.681472492751479
1789799134506741800,4.39674169921875,0.49227030696868895,-1.2444319055736064,1.4687065249055624
1789799134516714000,4.4067138671875,0.40843700850605963,-1.0563690018296241,1.5355647231698035
1789799134526687000,4.41668701171875,0.3924795609176159,-1.4374229133695364,0.8602572316646575
1789799134536658700,4.42665869140625,0.04174421527385711,-0.8289139988958835,1.3135323298066854
1789799134546632000,4.4366318359375,-0.3839689222037792,-0.3403425464451313,2.048572697740793
1789799134556604000,4.44660400390625,-0.533995817542076,-0.9176917680233716,1.811634996190667
1789799134566576600,4.45657666015625,-0.5564695151567459,-0.6330173327863216,1.441103063187003
1789799134576548900,4.466548828125,-0.5776946740150452,-0.09749357502460479,1.5319564695447683
1789799134586521900,4.47652197265625,-0.4565653718590736,0.37986090236306186,1.2757710466891525
1789799134596493800,4.486493896484375,-0.22390695506334304,0.924061887577176,1.0365005182772875
1789799134606466800,4.496466796875,0.010072472069924697,1.2751432701796293,0.645922407066822
1789799134616438800,4.506438720703125,0.3332359293103218,1.4101380160808563,0.0731762953698635
1789799134626412000,4.516412109375,0.6129542034447193,1.3857576080620289,-0.2525397598296404
1789799134636383700,4.5263837890625,0.8731716582953929,1.1707394773751496,-0.24198446354568004
1789799134646356700,4.536356689453125,1.335859312427044,0.7267395725786685,-0.048121933612227434
1789799134656329000,4.546328857421875,1.5788801332831381,0.12219663912653922,0.1783551642000675
1789799134666301700,4.5563017578125,1.5749264272212982,-0.6591542290836572,0.5002911163389683
1789799134676274000,4.56627392578125,1.1956383563101292,-1.2933522960871457,0.8330746257066726
1789799134686247000,4.576246826171875,0.5354384175658226,-1.6026421171426772,1.2272925547242164
1789799134696218600,4.586218505859375,0.034886029075318944,-1.5222738644421099,1.6497744551956652
1789799134706192000,4.59619189453125,0.18232172974348068,-1.3503396732002495,2.3077876975506544
1789799134716163800,4.606163818359375,0.41248365354835986,-0.9588836101114749,2.5932372088134286
1789799134726136800,4.61613671875,0.5453121613264084,-0.5717015710800886,3.2081992449492214
1789799134736108800,4.62610888671875,0.03797465187357738,-0.14629939924776553,3.241136468911171
1789799134746081800,4.636081787109375,-1.0250421356737613,0.3435930726736784,2.5361931330770253
1789799134756054000,4.646053955078125,-1.3311375446021556,0.23282734362185,2.0797072561949492
1789799134766026800,4.65602685546875,-1.2087684715181588,-0.10874386783540248,1.1089566826790571
1789799134775998700,4.665998779296875,-1.029992451557517,-0.3677852646440267,0.6101297936737538
1789799134785972000,4.675971923828125,-0.739187550741434,-0.33234102629721163,0.30247780295312404
1789799134795943700,4.685943603515625,-0.1368552790760994,-0.3187707661062479,0.06168401049673557
1789799134805916700,4.695916748046875,-0.0630149577063974,-0.16160919658243655,0.29353227995336056
1789799134815889000,4.705888916015625,-0.25236496951831505,-0.13805997869074343,0.3913450039297342
1789799134825862000,4.71586181640625,-0.4163187016665935,-0.06910977658331394,0.3959539590299129
1789799134835833900,4.725833740234375,-0.7516787835240364,0.22094226003885267,0.43288872819542884
1789799134845806800,4.735806884765625,-0.6471499030351638,0.3404191188126802,0.8664718683958053
1789799134855778800,4.74577880859375,-0.6773287681996822,0.4178109860509634,0.9948474884182215
1789799134865751800,4.755751708984375,-0.48401331422235816,0.5405670126259327,0.971045172548294
1789799134875723800,4.765723876953125,-0.050842809943482274,0.6981880163550377,1.0441881501704453
1789799134885696800,4.77569677734375,0.30616325000021605,0.8355261105120182,1.3377683609187603
1789799134895668700,4.785668701171875,0.4897112701356411,0.9721557641386985,1.7628811944156884
1789799134905641700,4.795641845703125,0.446247391462326,1.0006161349475384,2.06312553922832
1789799134915614000,4.805614013671875,0.5192565866369754,0.8667378258556127,2.0180495491832495
1789799134925587000,4.8155869140625,0.20768647262454032,0.6885112564712762,1.757482550242543
1789799134935559000,4.825558837890625,-0.13984693517275154,0.6505114884227514,1.2546300589829682
1789799134945532000,4.835531982421875,-0.41008536023497577,0.6222498550564051,0.8261854507148265
1789799134955503900,4.84550390625,-0.4077625433105975,0.58835343067348,0.6455734474986792
1789799134965476900,4.855476806640625,-0.10000124699659645,0.5659148043721914,0.5293938767045736
1789799134975448800,4.86544873046875,-0.0017337649900466203,0.5402104542732239,0.5817834046334028
1789799134985421800,4.875421875,-0.03321837899088859,0.3473679150372743,0.6516261716663837
1789799134995393800,4.885393798828125,-0.021730185770988463,0.008156418448686599,0.7184159808695316
1789799135005366800,4.89536669921875,0.009264598886296152,-0.19628157377392053,0.7744073326826095
1789799135015339000,4.905339111328125,0.01160977377295494,-0.34565614268332717,0.7887935854315757
1789799135025311700,4.915311767578125,0.010965484520047902,-0.4121344017192721,0.7538917833983898
1789799135035283700,4.92528369140625,-0.3835983353257179,-0.5618213975787163,0.5633429080575705
1789799135045257000,4.935257080078125,-0.4465489316921681,-0.5692974325478076,0.8530839790344238
1789799135055228700,4.945228759765625,-0.2811888581436127,-0.6831874311000108,1.0642542021214962
1789799135065201700,4.95520166015625,-0.2562253164745867,-0.8157081881031394,1.0935995390713213
1789799135075174000,4.965173828125,-0.6435200221002102,-1.2082260352045298,0.9046756345838308
1789799135085147000,4.97514697265625,-0.18437457062005996,-1.5962725821107624,0.7061456973612308
1789799135095118800,4.985118896484375,0.2908415795646608,-1.6107690172359346,0.2854080102086067
1789799135105091800,4.995091796875,0.04497179901823401,-1.5693421973481774,-0.2911713960409164
1789799135115063800,5.005063720703125,0.5829844509862363,-1.6029250257372856,-0.7097375843733549
1789799135125036800,5.015036865234375,1.1515328187324105,-1.679600269138813,-0.9013765930384396
1789799135135009800,5.025009765625,1.4069303060807288,-1.6362337133601308,-0.7888187198728323
1789799135144983800,5.03498388671875,1.086661410371214,-1.6665096091583371,-0.4051175086945295
1789799135154956800,5.044956787109375,0.7120916001535952,-1.6294412767410278,0.012725041538476943
1789799135164929000,5.054928955078125,0.8778361429750919,-1.3253697748556732,0.3267401375502348
1789799135174902000,5.064902099609375,0.8665164381898939,-1.1217501132786274,0.4308160135746002
1789799135184873700,5.074873779296875,0.23307474251165985,-1.2310279418602585,-0.1415694481164217
1789799135194847000,5.084846923828125,0.3976711382113397,-1.2455150246351956,-0.5151765507817269
1789799135204819000,5.09481884765625,0.9527228955246507,-0.9148594672068953,-1.4269377597123383
1789799135214791700,5.104791748046875,1.5049125414051114,-0.44895533524677156,-2.1745009246110913
1789799135224764000,5.114763916015625,2.162947411070019,-0.18640856066569686,-2.935067947989702
1789799135234737000,5.12473681640625,1.9633527672253548,0.13135916587784885,-3.6712598240464924
1789799135244708900,5.134708984375,1.411190155482292,0.461211297968775,-3.758313838121295
1789799135254681900,5.144681884765625,1.4509611709870398,0.5611509509712458,-3.6137989842027425
1789799135264653800,5.15465380859375,1.782123070502281,0.24672157507017253,-3.804707340505719
1789799135274627000,5.164626953125,1.1318996052406727,-0.293592047316581,-4.182515401992202
1789799135284598800,5.174598876953125,0.7904337538540362,-0.2998436550572514,-3.8179631279200312
1789799135294571800,5.18457177734375,0.9286568141520023,-0.19021116781905292,-3.2805075253129004
1789799135304544000,5.1945439453125,1.0298398913443088,-0.23691110580414532,-2.425527941790223
1789799135314516700,5.204516845703125,-0.13977788852453232,-0.17042714767977593,-1.9467051454156636
1789799135324489000,5.214489013671875,0.021146540664136407,0.1312958913832903,-1.8618606240838764
1789799135334462000,5.2244619140625,0.030490999853610992,0.5137272287562489,-1.9834353319197893
1789799135344433700,5.23443359375,-0.017855974686145783,0.44956440705582495,-2.3019021466434
1789799135354407000,5.244406982421875,-0.5446364540219306,0.08379632745310664,-2.610492294996977
1789799135364379000,5.25437890625,-0.6140143800221384,-0.08130494902878999,-2.785616222190857
1789799135374352000,5.264351806640625,-0.13974164816737175,-0.11195420818403362,-2.9286048894554373
1789799135384323800,5.27432373046875,-0.3366518752336502,0.14849910124912857,-2.65230022315681
1789799135394296800,5.284296875,-0.39321488945484157,0.2668229905955493,-2.5867005005210637
1789799135404269800,5.294269775390625,-0.42980230648741125,0.2590815826885402,-2.766149305176735
1789799135414241800,5.30424169921875,-0.6271813931744545,0.199855925129354,-3.1940088070333004
1789799135424214800,5.31421484375,-0.5304487925849855,0.19791092854142187,-3.2588334536433217
1789799135434187000,5.32418701171875,-0.6102301122430711,0.23726430315598845,-3.2138428037941456
1789799135444160000,5.334159912109375,-0.5378079962413758,0.31158173138499257,-3.0870564987897873
1789799135454132000,5.344132080078125,-0.4562485609948635,0.32338995033949614,-2.7689602709442376
1789799135464105000,5.35410498046875,-0.5895804151851683,0.30005583650320766,-2.238091060990095
1789799135474077000,5.364076904296875,-0.7736849366921931,0.19854455026984213,-1.5980296549111603
1789799135484050000,5.3740498046875,-0.9772703306734561,0.015216858354210853,-0.856994430476427
1789799135494022000,5.38402197265625,-1.4678385098993778,-0.3168099874272942,-0.2819453025341034
1789799135503995000,5.393994873046875,-1.597939054018259,-0.6729284874141216,-0.031902035695314405
1789799135513966800,5.403966796875,-1.4606126502990722,-0.9708762457221746,0.12560732435286046
1789799135523939800,5.41393994140625,-1.444493874669075,-1.0822308805778622,0.34280864429771896
1789799135533912000,5.423912109375,-1.218124913406372,-1.0504416576072573,0.2741594709634781
1789799135543884800,5.433884765625,-0.8705483240544796,-0.7918141022965312,0.27934944082200525
1789799135553856800,5.443856689453125,-0.696760613900423,-0.48509004007577894,0.407371425101161
1789799135563830000,5.453830078125,-0.6408312214076519,-0.1758349980726838,0.46634150046408174
1789799135573801700,5.4638017578125,-0.5769990929663181,0.060036243289709086,0.4099105881899595
1789799135583774700,5.473774658203125,-0.4482780205070972,0.15015695145875216,0.25108196223676205
1789799135593748000,5.483748046875,-0.42057811267673967,0.0013528759136795998,0.2844891417980194
1789799135603720000,5.493719970703125,-0.4232219051837921,-0.268889129345119,0.2082236482411623
1789799135613692700,5.503692626953125,-0.49164194593727584,-0.3153656338378787,0.282805718755722
1789799135623665000,5.513664794921875,-0.4818564649820328,-0.16122516570091247,0.5483353085398673
1789799135633638000,5.523637939453125,-0.5560726247936487,-0.18617489804029463,0.700205201396346
1789799135643609900,5.53360986328125,-0.4406359813213348,-0.36869594974815845,0.8032967425584793
1789799135653582800,5.543582763671875,-0.2308341422443278,-0.635866292476654,0.880930017337203
1789799135663554800,5.553554931640625,-0.22464580899821593,-0.9852245045483112,1.0170184036940335
1789799135673528000,5.563528076171875,-0.5609423131892457,-1.3126146304398774,1.2056149759232997
1789799135683499800,5.573499755859375,-0.5260691161960364,-1.4139005834847689,1.153601295569539
1789799135693472800,5.58347265625,-0.25148528234064577,-1.3852420597553252,1.116938913604617
1789799135703445000,5.593445068359375,-0.25173896484076974,-1.2069582072257994,1.04358258549273
1789799135713417700,5.603417724609375,-0.5911871927946806,-1.0813888767957687,1.181671205756068
1789799135723390000,5.613389892578125,-0.6362707816243172,-1.1464356417238712,1.6710452067613601
1789799135733363000,5.623363037109375,-0.2237456452880986,-1.2532692920237778,2.120373613104224
1789799135743334700,5.633334716796875,-0.012870587489008902,-1.396805656298995,2.571541509833932
1789799135753308000,5.643307861328125,-0.05250349143100902,-1.5079144997000693,3.066657269361615
1789799135763281000,5.653281005859375,-0.07893266693949699,-1.3036498182177543,3.1046295648813245
1789799135773252900,5.6632529296875,-0.1408534088015556,-1.153957853922248,2.918140778586268
1789799135783225900,5.673225830078125,-0.27195056274235246,-0.8344599425852298,2.6077380278527733
1789799135793197800,5.68319775390625,-0.26359014615416526,-0.5309849452883005,2.2856138596653937
1789799135803170800,5.6931708984375,-0.23601649505198,-0.3862023803442716,2.1196482214391232
1789799135813142800,5.703142822265625,-0.05421207174744922,-0.20074352161884307,1.8972177686691283
1789799135823115800,5.71311572265625,0.12795008808672428,-0.1561386562168598,1.8754864138543605
1789799135833088000,5.723087890625,0.24238018486499785,-0.07953063283264636,1.786726180383563
1789799135843061000,5.73306103515625,0.1745265458226204,0.18173720785379407,1.681381307336688
1789799135853032700,5.74303271484375,-0.0401648325613467,0.3660813833355903,1.6144973901093005
1789799135863006000,5.753005859375,-0.03839490941253025,0.41511926274895666,1.0246429072231054
1789799135872978000,5.76297802734375,-0.05738251391053199,0.5246656791388988,0.7489093188107013
1789799135882950700,5.77295068359375,0.011248539245128631,0.8044219471961259,0.9196335497409105
1789799135892923000,5.7829228515625,0.0632370760244783,1.091153314962983,1.214208616745472
1789799135902895900,5.792895751953125,-0.04535422246456146,1.359259477236867,1.6330582981944084
1789799135912868900,5.802868896484375,-0.11797522203922271,1.5518150162249802,2.0539877085268494
1789799135922840800,5.8128408203125,0.032148703932762146,1.492984057071805,2.387604746109247
1789799135932813800,5.822813720703125,0.2658966695308685,1.0921130999058484,2.5667344018131493
1789799135942786000,5.8327861328125,0.28805355628132817,0.5493512075841427,2.6589953368812798
1789799135952758800,5.8427587890625,0.3154150259375572,0.09322773427367209,2.9300913286209105
1789799135962731000,5.85273095703125,0.5265256277918815,-0.2294470535337925,3.13680983299613
1789799135972704000,5.8627041015625,0.6337772112429142,-0.32343583530783654,2.955308771985769
1789799135982675700,5.87267578125,0.6816659206211566,-0.15258067147433757,2.5275199972778557
1789799135992649000,5.88264892578125,0.7263771690070628,-0.10424421832859515,2.1309972984492775
1789799136002621000,5.892620849609375,0.4547650444388389,-0.13564531876444816,1.177861292079091
1789799136012594000,5.902593994140625,0.3037339404940605,-0.04803776246011257,0.7539280237555503
1789799136022566000,5.91256591796875,0.059360535985231395,-0.19358137490451335,0.6403565896332264
1789799136032539000,5.922538818359375,-0.3940449105381965,-0.42869186102747914,0.2740758843332529
1789799136042512000,5.932511962890625,-0.7667641244530677,-0.6619535044133663,-0.1396826114565134
1789799136052483800,5.94248388671875,-0.9837900878310203,-0.6354822615951299,-0.3014765169560909
1789799136062456800,5.952456787109375,-0.9424725735366344,-0.5687386296212673,-0.04509001857042312
1789799136072429000,5.962428955078125,-0.6264777018845081,-0.5099287132561207,0.5797340708881616
1789799136082401800,5.97240185546875,-0.7012006421744823,-0.39692894154191016,1.45026602832973
1789799136092373800,5.982373779296875,-0.8467430855751037,-0.2730728447705507,1.9677631310135124
1789799136102347000,5.992346923828125,-0.9111012837171554,-0.3271569016575813,2.0257102930694817
1789799136112318700,6.002318603515625,-0.8690320742726325,-0.4603080655187368,1.824761019745469
1789799136122291700,6.012291748046875,-0.48504444736838337,-0.4772632919728756,1.3482009076058863
1789799136132264000,6.022263916015625,0.136240325515531,-0.29025545023977756,1.2737287272065878
1789799136142237000,6.03223681640625,0.8275298510611057,0.009048398852348326,1.467328806811571
1789799136152207600,6.04220751953125,1.1944996346037835,0.2186573639720678,1.3998182821184395
1789799136162180600,6.0521806640625,1.1820026296675203,0.33893677130043504,1.1859072358906269
1789799136172153600,6.062153564453125,0.7519803237538785,0.551228691893816,1.05357907885015
1789799136182125600,6.07212548828125,0.16870112760476766,0.7988152132302522,1.0754133095175027
1789799136192098600,6.0820986328125,-0.05473579879403114,0.9730828158557414,1.0226292293131352
1789799136202070800,6.09207080078125,-0.24898878934979438,0.8486246615380049,0.7968161483675241
1789799136212043500,6.10204345703125,-0.21993330219201743,0.5989584113180637,0.6629355011880398
1789799136222015700,6.112015625,-0.07729607871361076,0.19798574734330177,0.5465986940056086
1789799136231988700,6.12198876953125,0.09605462826266885,-0.09998013114333153,0.6468564730465411
1789799136241960400,6.13196044921875,0.3221674228072166,-0.3821779471337795,0.4836527007490396
1789799136251933700,6.14193359375,0.39698257142528887,-0.62933689070791,0.20842998446822164
1789799136261905700,6.15190576171875,0.18500826541371643,-0.8307572886750102,0.18619652535021303
1789799136271878700,6.161878662109375,-0.20002565567307173,-1.053407813936472,-0.07898585843145847
1789799136281850600,6.1718505859375,-0.06727138217501342,-1.1354150660157203,-0.4403180014133453
1789799136291823600,6.18182373046875,0.43245135969147086,-1.1670116890236735,-0.6909627412766218
1789799136301796600,6.191796630859375,0.6650538815815001,-1.0041343722015619,0.020477555361390114
1789799136311768600,6.2017685546875,0.44901685617566106,-1.2135653504058719,0.5302344191819429
1789799136321741600,6.211741455078125,-0.03135375416278839,-1.722433448693156,0.8757932389706373
1789799136331713800,6.2217138671875,-0.13693477405309676,-2.1846274740889666,1.1666443170160055
1789799136341686800,6.231686767578125,0.024790596254914997,-2.252625490038097,1.5877935075789689
1789799136351658500,6.241658447265625,0.2205142438851297,-1.9617004699736833,1.5199474673211573
1789799136361631700,6.2516318359375,0.40776488139815625,-1.4807228336527942,1.217871230906248
1789799136371603700,6.261603759765625,-0.27664032799378035,-1.340833009186387,0.6415501833319663
1789799136381576400,6.271576416015625,-0.1164940435707569,-1.2722960640549659,-0.12271335647702217
1789799136391548700,6.281548583984375,0.25526903866305944,-1.0491770444989204,-0.5397434212833643
1789799136401521700,6.291521728515625,0.6000244331143796,-0.8281096967756748,-0.7197825930476188
1789799136411494700,6.30149462890625,1.2981284244477749,-0.9375754491448401,-1.679391010302305
1789799136421466600,6.311466552734375,1.7154443204581737,-0.73672408323735,-2.553776136040687
1789799136431439600,6.321439697265625,1.8211176948070524,-0.37458486165627836,-2.4129268188923594
1789799136441411800,6.331411865234375,2.0439058749735355,-0.48617111331075424,-2.710784560829401
1789799136451384600,6.341384521484375,2.4445129205062983,-0.5835708725720644,-3.2163375432193275
1789799136461356500,6.3513564453125,2.2174702977657317,-0.6571290068663657,-3.8991859516233203
1789799136471329800,6.361329833984375,2.2788987260662017,-0.6182356509789824,-4.219294103813171
1789799136481301500,6.371301513671875,2.4216658595345915,-0.25870237411260605,-4.022264049759507
1789799136491274500,6.3812744140625,1.7339992371939121,-0.006622048488259315,-3.6703684281647204
1789799136501246700,6.391246826171875,0.8565876032412052,-0.048757455036789174,-3.5915754619568583
1789799136511219500,6.401219482421875,0.16273907739520072,-0.21648586515188215,-3.771979959902167
1789799136521192400,6.4111923828125,0.3571031271100044,-0.07938713270872831,-3.3280297394663094
1789799136531164700,6.42116455078125,1.1911268702350557,0.08204685343727469,-3.5562551422506568
1789799136541137700,6.4311376953125,0.6882464680552483,0.22578268580734728,-3.7876393013268705
1789799136551109600,6.441109619140625,0.6245324130356311,0.48555473497807977,-3.8033974269509314
1789799136561082600,6.45108251953125,0.4752667113281786,0.556740587183088,-3.4498026002228257
1789799136571054600,6.4610546875,-0.009357026410102843,0.3169556795082986,-2.7817712372004983
1789799136581027600,6.471027587890625,-0.5343057602740824,-0.02653685540035367,-2.251004318577051
1789799136590999600,6.48099951171875,-0.5708488997735083,-0.22176175972819326,-1.9673913750916718
1789799136600972500,6.49097265625,-0.2398082885503769,-0.4213946897566318,-2.118939196386933
1789799136610944500,6.500944580078125,-0.37362281169109046,-0.5154825479909777,-2.4086978030204773
1789799136620917500,6.51091748046875,-0.5896328760247678,-0.6419706007011234,-2.765369552975893
1789799136630890500,6.520890380859375,-0.7379366008322685,-0.7636182276427745,-3.160446729171276
1789799136640862700,6.53086279296875,-0.7432674404662102,-0.8042391379751265,-3.2529350432544946
1789799136650835500,6.54083544921875,-0.8541839031003415,-0.727641489854455,-3.2006670958787202
1789799136660807700,6.5508076171875,-0.795480442784354,-0.5745514075532555,-3.0295746161580084
1789799136670780700,6.56078076171875,-0.7401788998663426,-0.3940817354172468,-2.7306676574289797
1789799136680752600,6.570752685546875,-1.1017127759654075,-0.2622662040740251,-2.411965280383825
1789799136690725600,6.5807255859375,-1.397542884532362,-0.1874389266267419,-2.0990181058645248
1789799136700697600,6.590697509765625,-0.9418681779026985,-0.16876549807786942,-2.0652602131694553
1789799136710670600,6.600670654296875,-0.5606967774629592,-0.11649813522398471,-2.0013719706267117
1789799136720642600,6.610642578125,-0.8821335479080676,-0.04507277517467737,-1.7127502590686081
1789799136730615600,6.620615478515625,-0.862179139637947,0.038705578230321405,-1.3509803091913462
1789799136740588500,6.630588623046875,-0.4834790612151846,0.10532353799790144,-0.9435480938136577
1789799136750560500,6.640560546875,-0.5684826455662026,0.11013649123758076,-0.2763759779691696
1789799136760533500,6.650533447265625,-0.6161573834002018,-0.013388181622326373,0.22194179247021673
1789799136770505700,6.660505615234375,-0.1716132704581134,-0.2941802224680781,0.3959896148651838
1789799136780478700,6.670478759765625,0.005534271517861634,-0.7057493915200233,0.6820540431559086
1789799136790450700,6.68045068359375,-0.04354571173787117,-1.1032494109481572,1.1090209800869226
1789799136800423700,6.690423583984375,0.2022796451449394,-1.514506153050065,1.6931208449691533
1789799136810395600,6.700395751953125,0.4650526296973228,-1.810987930458784,2.2758318858414888
1789799136820368600,6.71036865234375,0.4492822291135788,-1.6306676036655903,2.65451906825006
1789799136830340600,6.720340576171875,0.3254629572212696,-1.4120868120610712,2.7699954592108726
1789799136840313600,6.730313720703125,0.1802905161768198,-1.1079548121601344,2.8921611186772584
1789799136850286800,6.740286865234375,0.43594577767848963,-0.6924217079132795,2.722234175604582
1789799136860258600,6.750258544921875,0.38431905081570145,-0.3515788107305765,2.587962483280897
1789799136870231600,6.7602314453125,0.5632248346358537,0.01017243444621563,2.5711416968613863
1789799136880203800,6.770203857421875,0.26273615967333314,0.23904373391866682,2.7876953665524717
1789799136890176500,6.780176513671875,-0.01955050364434719,0.33764673148989677,2.78631823298037
1789799136900148700,6.790148681640625,0.10166355418562889,0.2698199804544449,2.7338725909501314
1789799136910121700,6.800121826171875,0.12320318582057953,-0.05251403109133243,2.781639135253429
1789799136920093400,6.810093505859375,0.14662147080898283,-0.35256080750524993,2.943231380701065
1789799136930066700,6.820066650390625,0.19513328052163123,-0.8313263207346201,2.8579303477734324
1789799136940038700,6.83003857421875,-0.006304657668736763,-1.252263914373517,2.573889534264803
1789799136950011600,6.84001171875,-0.03884382679038681,-1.31628425886333,2.452285015812516
1789799136959984600,6.849984619140625,-0.11525601707524619,-0.9667588735312223,2.3141584016263486
1789799136969956600,6.85995654296875,-0.07184708345956169,-0.4216998101830482,2.0063152722477913
1789799136979929600,6.8699296875,-0.1747579982246272,0.08643208278417587,1.844656975826621
1789799136989901600,6.879901611328125,-0.28153847529888154,0.36605157271921634,1.5734680451065302
1789799136999874600,6.88987451171875,-0.551739564025402,0.3675345047533512,1.543081674671173
1789799137009846800,6.8998466796875,-0.2579997605348937,0.2749661111712456,1.5409721351712942
1789799137019819800,6.90981982421875,0.06845452754497527,0.21701894911527633,1.2454022119104862
1789799137029791500,6.91979150390625,-0.05027704755319282,0.33428046992719174,1.1281108804821967
1789799137039764700,6.9297646484375,-0.2684194842730649,0.6977408571094275,1.1761264311105013
1789799137049737700,6.93973779296875,-0.2688519939388148,1.1948784778535366,1.34532213729918
1789799137059709400,6.94970947265625,-0.11765375326620414,1.4194833520531653,1.6312047792822122
1789799137069682700,6.9596826171875,0.08465162910819053,1.262685355144739,1.817569646936655
1789799137079654700,6.969654541015625,0.43575756163001056,0.7787099983125925,1.9309774149298666
1789799137089627400,6.97962744140625,0.6470072796940803,0.09994389078617096,1.9886457600444554
1789799137099599600,6.989599609375,0.7283785719573498,-0.5449544339299202,1.877411828958988
1789799137109572600,6.999572509765625,0.9660147771656513,-1.0975047298163174,1.6527818203181028
1789799137119544600,7.009544677734375,0.9651672204256058,-1.287713997939229,1.4062223039418458
1789799137129517600,7.019517578125,0.7662146738767623,-1.3061714456498623,1.1824380984753369
1789799137139489500,7.029489501953125,0.8036649913489818,-0.7942699710160493,1.1972504676818847
1789799137149462000,7.0394619140625,0.6295026026636362,-0.07794131781458855,1.210172493097186
1789799137159435000,7.04943505859375,0.2072901667833328,0.41365971159040926,1.1231126338034867
1789799137169407200,7.0594072265625,-0.1867471449702978,0.8370634030818939,1.0755629471212624
1789799137179380200,7.069380126953125,-0.03383621862828731,0.8850964893668889,1.1633914526998996
1789799137189352000,7.07935205078125,0.10082827240526676,0.5133288770884276,1.5148177032172678
1789799137199325200,7.0893251953125,-0.4173562280207872,0.23036358385682104,1.624769193276763
1789799137209297200,7.099297119140625,-0.9888140534728765,0.033948446831107135,1.7021861949563026
1789799137219270000,7.109269775390625,-1.0558651439607143,-0.22387071470618247,1.6070447360157967
1789799137229242000,7.1192421875,-1.0979857913315296,-0.5009487034648656,1.3371277249276636
1789799137239215000,7.129215087890625,-1.7034551919788121,-0.8319260401934385,0.7285965986222028
1789799137249188000,7.13918798828125,-1.6310674166381358,-1.2484744589626788,0.5569651897192001
1789799137259160000,7.14916015625,-1.6159341449141502,-1.5758102243185041,0.6955097370564938
1789799137269133000,7.159133056640625,-1.2339818232297897,-1.6250667149186133,0.8295891216784715
1789799137279105300,7.169105224609375,-0.8681997151017189,-1.4743009839117527,0.9428203640609979
1789799137289078000,7.179078125,-0.9133505239486693,-1.218811142104864,0.940904885828495
1789799137299050000,7.189050048828125,-0.9479729245185852,-0.877761324173212,0.8858300643384456
1789799137309023200,7.199023193359375,-1.052048216021061,-0.5706102687120437,0.86982000977993
1789799137318995000,7.208994873046875,-0.7702841152727603,-0.4748088845580816,0.6450222433567047
1789799137328968000,7.218968017578125,-0.174243618961703,-0.5389683452576398,0.7443745979905128
1789799137338941200,7.228941162109375,0.08637363059520721,-0.8598889828741549,1.078521796926856
1789799137348913200,7.2389130859375,-0.16085107169151305,-1.2161229259341955,1.4983938071608542
1789799137358886000,7.248885986328125,-0.18873042774200438,-1.4640180748283862,1.904713677382469
1789799137368858000,7.258858154296875,-0.2903647558331489,-1.5828838159665464,1.9074843111395834
1789799137378831000,7.2688310546875,-0.6978793887972832,-1.469993934367597,2.0084797568053006
1789799137388803000,7.278802978515625,-0.8090344094276428,-1.3975146813511847,2.1901766326487064
1789799137398776000,7.288776123046875,-0.6535211916327476,-1.3840700933665036,2.391394201520085
1789799137408748000,7.298748046875,-0.28530984706375745,-1.2807976426795125,2.646422271034121
1789799137418721000,7.308720947265625,0.4134766831737011,-1.2887234672427177,2.8080975185900927
1789799137428693000,7.31869287109375,0.24545118980817496,-1.4677990546718238,2.325079024091363
1789799137438666000,7.328666015625,0.48588959295563394,-1.495975347842276,2.1337825452536343
1789799137448639200,7.33863916015625,1.0875696843225509,-1.434894856196642,1.8456886569619178
1789799137458611000,7.34861083984375,0.8010989402532577,-1.4499641227737068,0.9853039995253086
1789799137468584000,7.358583984375,1.0519780733942985,-1.3578802978381515,0.2127624607145786
1789799137478556200,7.36855615234375,1.1871873388290404,-1.3924687961384654,-0.8391600831001996
1789799137488529000,7.37852880859375,1.2851578837156294,-1.2499693736955522,-1.9607827706068752
1789799137498501000,7.388501220703125,1.4237478776298462,-0.9189251092106103,-2.588016259294748
1789799137508474000,7.39847412109375,1.6320178492307662,-0.6142752229154109,-2.7577012103050946
1789799137518446000,7.408446044921875,1.6457330708503721,-0.5081958981141448,-2.7666590082645413
1789799137528419000,7.418419189453125,1.3867534872315823,-0.6328169879086315,-2.605335058364272
1789799137538392000,7.42839208984375,1.7173007619798182,-0.7506865576162934,-2.714577523371577
1789799137548364300,7.4383642578125,2.238495550137758,-0.7996355897024273,-3.3038884009003637
1789799137558337000,7.4483369140625,2.483564535695314,-0.545468667062372,-3.859490485572815
1789799137568309000,7.45830908203125,2.6386054598033426,-0.284515006891638,-4.213967355832457
1789799137578282200,7.4682822265625,2.5652012008965013,0.022564152377098797,-4.246888797703385
1789799137588254000,7.47825390625,2.864202852171659,0.45350861463695763,-3.99038539493978
1789799137598227000,7.48822705078125,2.0000667332470417,0.748385879458487,-3.7492613476157186
1789799137608199200,7.49819921875,0.1851822337411344,0.3660620941132307,-3.7854350692808625
1789799137618172200,7.508172119140625,-1.0945780287146567,-0.2161399743236601,-4.2441316079497335
1789799137628144000,7.51814404296875,-0.7379667767748236,-0.4690124732390046,-3.7307980546861885
1789799137638117000,7.5281171875,0.056875148910284036,-0.93248908579126,-2.976141716656089
1789799137648090000,7.538090087890625,0.4240132016919553,-1.1090469913110137,-2.554823014745116
1789799137658062000,7.54806201171875,0.3056254533290863,-0.8445305240921676,-2.314524896851182
1789799137668035000,7.55803515625,-0.01949278210774064,-0.505252538138628,-3.043978989085555
1789799137678007000,7.568007080078125,-0.3016905980981886,0.0973795932561159,-2.906218285602331
1789799137687980300,7.577980224609375,0.112760117739439,0.44809477289468047,-3.474178332066536
1789799137697952000,7.587951904296875,0.18325097341760993,0.5117907077357172,-4.217192163097859
1789799137707925000,7.597925048828125,0.40172070586308833,0.6648639850325883,-4.255795742258429
1789799137717897200,7.607897216796875,0.6940412719391286,0.8364842880196869,-4.1747313239872454
1789799137727870000,7.617869873046875,0.7941362616337835,1.0559729882493614,-3.802422444438934
1789799137737843000,7.627843017578125,0.714731008746475,1.1150935779988764,-3.6342823847830292
1789799137747815200,7.637815185546875,0.6006419804908335,1.1446411595225334,-3.466136479908228
1789799137757788200,7.6477880859375,0.8352725741423666,1.1922244562134146,-3.132299662095308
1789799137767760100,7.657760009765625,1.0361273010507226,1.122289626982808,-2.9919425123780963
1789799137777733000,7.667733154296875,1.1477858872890472,0.8879109622657299,-3.021833792772889
1789799137787705000,7.677705078125,1.2157375798784196,0.7148547812566161,-2.9092051924586295
1789799137797678000,7.687677978515625,1.1918470012031495,0.5353597993716597,-2.7019600338608023
1789799137807650000,7.697650146484375,0.8987094196557999,0.3775800979495048,-2.162906932929158
1789799137817623000,7.707623046875,0.6751672793168574,0.2531947166070342,-1.3004700191378593
1789799137827595000,7.717594970703125,0.47415831169486045,-0.005387245996296405,-0.5813765773981809
1789799137837568000,7.727568115234375,0.18611060063242912,-0.4648454166874289,-0.17877543543875216
1789799137847541000,7.737541015625,0.23169636683054268,-0.9706260703533888,-0.04711830952763557
1789799137857513200,7.74751318359375,0.3086918551623821,-1.4916510549023747,0.03696341073811054
1789799137867486000,7.75748583984375,0.20676058995127677,-1.8428510954484343,0.2809633057594299
1789799137877458200,7.767458251953125,0.062383573600836094,-2.0032710822463033,0.607117167854309
1789799137887431200,7.77743115234375,-0.07512622386123985,-2.1433122978821397,0.8967734831571579
1789799137897403000,7.78740283203125,-0.1981797720780596,-2.2797242171049117,1.381228732460737
1789799137907376000,7.797376220703125,-0.5562123255252838,-2.564707279899716,2.1301339596182105
1789799137917348000,7.80734814453125,-0.9038742550730705,-2.78935950037241,2.6833921115130184
1789799137927321000,7.817321044921875,-0.7541828752994537,-2.8352392080157993,2.9767537110745903
1789799137937294000,7.827294189453125,-0.7640566190600395,-2.775919588562846,3.2066783189922567
1789799137947266000,7.83726611328125,-0.2800654801368713,-2.270391740614176,3.248763895049691
1789799137957239000,7.847239013671875,0.08072948722839356,-1.5037714085459708,3.046969987595081
1789799137967211000,7.8572109375,0.032991575364535675,-0.7353846513271332,2.581097858208418
1789799137977184000,7.86718408203125,-0.30590134766101834,-0.027134090641140935,2.1308523370206354
1789799137987156200,7.87715625,-0.6037737026453018,0.5148100555568933,1.8861860870450733
1789799137997129000,7.88712890625,-0.8093687559485435,0.6346545785993337,1.6650445050418377
1789799138007101200,7.89710107421875,-0.6680325320661068,0.837773597177863,1.7999504036158323
1789799138017074200,7.90707421875,-0.4050280768454075,0.6750345197826624,1.7126538129568099
1789799138027046000,7.9170458984375,-0.15720365509986878,0.23748832117021082,1.4261895716935395
1789799138037019100,7.92701904296875,0.05837621938930824,-0.2112561478048563,1.2879571590453385
1789799138046992100,7.9369921875,-0.007205967589747161,-0.5474211163043976,1.4833482137203216
1789799138056964000,7.946964111328125,-0.19089083891259506,-0.781260267317295,1.9191706572800873
1789799138066937000,7.95693701171875,0.028273342070449143,-0.8498802145570516,2.4463480269789692
1789799138076909000,7.966908935546875,0.4052349975943565,-0.9042875120490789,2.7449440200626847
1789799138086882000,7.976882080078125,0.1241886897265911,-0.9566682721495627,3.061521660038829
1789799138096854000,7.98685400390625,-0.16767711831927298,-1.0326736534655094,2.8466718716561794
1789799138106827000,7.996826904296875,-0.4193792582809925,-1.1327005463600157,2.3355893121898172
1789799138116799200,8.00679931640625,-0.4937420965543016,-1.057137648114562,1.8748510385602712
1789799138126772200,8.016772216796875,-0.2359691487789154,-0.5710936683148146,1.6829671152234076
1789799138136745000,8.026744873046875,-0.2525648942708969,-0.004093406793475151,1.4470739542901516
1789799138146717400,8.036717529296874,-0.4549228653490543,0.6041963119715452,1.4603811796307562
1789799138156690400,8.0466904296875,-0.3978641765654087,0.9451707265794277,1.4262345798790454
1789799138166662400,8.056662353515625,-0.15667875444293022,0.9585375731527804,1.2951426866352558
1789799138176635400,8.066635498046875,0.09931963967429473,0.8056073575884103,0.9666413846313953
1789799138186607400,8.076607421875,0.12687283251034095,0.5814508116781711,0.6156728147536515
1789799138196580400,8.086580322265625,-0.16899813778996467,0.40496787109076976,0.43074470190405845
1789799138206552600,8.096552490234375,-0.43986675051450724,0.15886428178846834,0.38096974038779735
1789799138216525600,8.106525634765624,-0.3636614627122879,-0.21428338667154312,0.4502782544136047
1789799138226497500,8.11649755859375,-0.07600771027035079,-0.5563292299032211,0.6535837354749441
1789799138236470500,8.126470458984375,0.05054360780119896,-0.6747539492756128,0.9640718264043331
1789799138246443500,8.136443603515625,-0.0027718028008937834,-0.4838415013194084,1.3257237028598785
1789799138256415500,8.14641552734375,-0.011634332825476303,-0.04498480463027954,1.5341057565331457
1789799138266388500,8.156388427734376,0.07339491568976081,0.3891010243952274,1.7939076163202523
1789799138276360400,8.1663603515625,0.18346856169104575,0.49948506065309045,2.0926181756943465
1789799138286333400,8.17633349609375,0.02428220834136009,0.4977765031695366,2.412200842705369
1789799138296305400,8.186305419921876,-0.2597930919587612,0.3294371215492487,2.6034265943944455
1789799138306278400,8.1962783203125,-0.3861334067612886,0.12143325353860854,2.7421026591569184
1789799138316250600,8.206250732421875,-0.567978166642785,0.02497252869307995,2.733416079354286
1789799138326223400,8.216223388671875,-0.6736760909110308,-0.06638590457737445,2.322930321624875
1789799138336195600,8.226195556640626,-0.8377291735142469,-0.3745663030862808,1.9401333658099174
1789799138346168600,8.23616845703125,-0.8483779933005571,-0.8225947327464819,1.6566057625204325
1789799138356141600,8.2461416015625,-0.5006453366041184,-1.0496633667111397,1.4911919129580258
1789799138366113500,8.256113525390624,-0.14652560921907423,-1.0452701001882552,1.6541338194489479
1789799138376086500,8.26608642578125,0.1933399673640728,-1.0290314975708723,1.6288333739757537
1789799138386058500,8.27605859375,0.0841618088977877,-0.9946166022717953,1.6329332105100154
1789799138396031500,8.286031494140625,-0.36493104425668715,-1.0433329946458338,1.7355553805947304
1789799138406003500,8.29600341796875,-0.501515105175972,-0.9961094711780547,1.7688374724715947
1789799138415976400,8.3059765625,-0.2933457992042415,-1.1278203731030225,1.5588877310901879
1789799138425948400,8.315948486328125,0.2433785665188916,-1.3162886427775025,1.4247031325280666
1789799138435921400,8.32592138671875,0.9508674769163131,-1.3966104259878396,1.5214070184797048
1789799138445893600,8.3358935546875,0.951938321018219,-1.3453382116511463,1.6298668086767196
1789799138455866400,8.345866455078125,0.46788171564340586,-1.4368497896566985,1.16227150875926
1789799138465839400,8.35583935546875,-0.2424280973936431,-1.3975436151847243,0.6883966901808977
1789799138475811600,8.3658115234375,-0.586365508259274,-1.2687062228694557,0.3425023548275232
1789799138485784600,8.37578466796875,-0.43023032264113426,-1.2078887660741806,0.2588631176322698
1789799138495756300,8.38575634765625,-0.19597031586766242,-1.1982286650642753,0.5282026210933923
1789799138505729500,8.3957294921875,0.14757424148917198,-1.3717518790632486,0.5226408953130245
1789799138515701500,8.405701416015624,0.024687903065420687,-1.664221205960214,0.6502911236703396
1789799138525674200,8.41567431640625,-0.10151983486600219,-1.7681868996083736,0.9487409862816333
1789799138535646500,8.425646484375,0.07630925963334739,-1.9162623686179519,0.6461930407017469
1789799138545619500,8.435619384765625,0.12386712962202727,-2.145991161702573,0.1554945130944252
1789799138555592400,8.445592529296874,0.31248079911656673,-2.136278161461651,-0.15322773720622063
1789799138565564400,8.455564453125,0.6302304054815322,-2.0103394131973387,-0.8129752560079098
1789799138575537400,8.465537353515625,0.8837865758121013,-1.5766604114070535,-1.2434475707113741
1789799138585509600,8.475509521484375,0.9671126554049551,-1.2324269950032234,-1.408185712969303
1789799138595482400,8.485482421875,0.5937656649805605,-1.2477034745901823,-1.776744884595275
1789799138605454300,8.495454345703125,1.1172422804653643,-1.3023096556551754,-2.2643419390559196
1789799138615427600,8.505427490234375,1.9422424669183789,-1.1786017351828515,-2.6565450211197135
1789799138625399300,8.5153994140625,2.540970430481434,-0.8155247943602502,-2.8404595730125903
1789799138635372300,8.525372314453126,2.5621198937550185,-0.48649610748142,-3.105267862784862
1789799138645344500,8.535344482421875,1.7041934431254864,-0.22396789147034285,-3.401145829081535
1789799138655317500,8.5453173828125,0.2626784381367266,-0.3158240451298654,-3.8618221433907745
1789799138665290200,8.555290283203124,0.4196447773493826,-0.2006377231568098,-4.605835506853461
1789799138675262500,8.565262451171876,0.6814753664851189,-0.0007964110746979713,-5.2186482560008765
1789799138685235500,8.5752353515625,0.11576324507817626,-0.13233034899756313,-5.648380565991998
1789799138695207400,8.58520751953125,0.36024449387565255,-0.14579992529302835,-5.365202506792545
1789799138705180400,8.595180419921874,0.8274421727776526,0.0545754936657846,-4.644963402149081
1789799138715152400,8.60515234375,0.17655585969313978,0.21152678143978118,-4.232424219021201
1789799138725125600,8.615125732421875,-0.3310978943683207,-0.044588791050016875,-4.192050707578659
1789799138735097300,8.625097412109374,-0.10310717712268233,-0.13005349010676145,-4.311287327855825
1789799138745070300,8.6350703125,0.10639335918650031,-0.013094751633703708,-4.425734960290789
1789799138755042600,8.64504248046875,0.10985255972966551,0.22332199478223919,-4.076034218391776
1789799138765015300,8.655015380859375,-0.12942498294487595,0.4574718191795051,-3.6138311329066752
1789799138774988300,8.66498828125,-0.454935578700155,0.3944809638679027,-3.3869396090745925
1789799138784960500,8.67496044921875,-0.45791079511865973,0.19562164856046438,-3.5796857021987436
1789799138794933500,8.68493359375,-0.2771101374626159,0.07499722718670963,-3.9704982066869734
1789799138804905500,8.694905517578125,-0.2546481302857399,0.11266323323622346,-3.981902813276648
1789799138814878500,8.70487841796875,-0.20540091897062956,0.2962732492245734,-3.7158933310210704
1789799138824850400,8.714850341796875,-0.18845679843239485,0.5356020836949348,-3.3170676159471273
1789799138834823400,8.724823486328125,-0.35152437712959944,0.6514584138840437,-2.8945570739030835
1789799138844795400,8.73479541015625,-0.4219616029243916,0.5393702040567994,-2.613986566853523
1789799138854768600,8.7447685546875,-0.4305225835859775,0.35822160974591966,-2.3145570455551145
1789799138864740400,8.754740234375,-0.4415701203662902,0.17759236313402652,-1.8529156856060027
1789799138874713300,8.76471337890625,-0.5350222379803657,-0.015631576634943484,-1.4942793575793505
1789799138884685600,8.774685546875,-0.6327531288921833,-0.2756792278766632,-1.2233353415310382
1789799138894658600,8.784658447265626,-0.3699134723117575,-0.545997220981121,-0.7284802787661552
1789799138904631300,8.79463134765625,-0.22111761660575865,-0.8430407239258288,-0.24836802710294723
1789799138914603500,8.804603515625,-0.34341946967244147,-1.2848255830213426,-0.12401099507212639
1789799138924576500,8.814576416015624,-0.06751344730257988,-1.777986701349914,-0.08534311850368977
1789799138934548500,8.824548583984376,0.18061726391315458,-2.114087956963479,0.24515724836289882
1789799138944521500,8.834521484375,0.018055881172418593,-2.2541110524207353,0.9704097972542047
1789799138954493400,8.844493408203125,0.00796469755215803,-2.396881400759518,1.675286497592926
1789799138964466400,8.854466552734374,0.2528086398988962,-2.550160283631086,1.882673110488057
1789799138974438400,8.8644384765625,0.32675708868503567,-2.5792905165255067,1.8209312323242426
1789799138984411400,8.874411376953125,-0.31952363030016423,-2.4013375033855437,2.078283945393562
1789799138994383400,8.88438330078125,-0.5529354958117008,-2.0629940218031404,2.4658593676567078
1789799139004356400,8.8943564453125,-0.2171200714021921,-1.5355238066375254,2.778957348823547
1789799139014329300,8.904329345703125,-0.0934574422431644,-0.9542916061460971,2.8961674317091703
1789799139024301600,8.914301513671875,-0.24691549020707607,-0.5777367595911026,2.900575311279297
1789799139034274300,8.9242744140625,-0.3217272778242826,-0.2846457936644554,3.1179946578890085
1789799139044246500,8.93424658203125,-0.1955921302050352,-0.19371055424213407,3.2836417316853996
1789799139054219500,8.944219482421875,-0.05464519333455246,-0.2692781286627054,3.1445483182936904
1789799139064191200,8.954191162109375,-0.025258944419026375,-0.34073125350177286,2.762906962254643
1789799139074164500,8.96416455078125,0.010454173997044562,-0.39087563285231586,2.5422037716686723
1789799139084136400,8.974136474609375,-0.06609422815442084,-0.5032137257874012,2.0981138505011794
1789799139094109400,8.984109375,-0.034939209150837265,-0.570139728590846,1.6777654549270868
1789799139104081400,8.994081298828124,0.09864391410350799,-0.578248800766468,1.143247074815631
1789799139114054400,9.004054443359376,-0.14327099133729934,-0.6788087776243686,0.9988538014501332
1789799139124026600,9.014026611328125,-0.37457214830517765,-0.7236047816842794,1.4611305366933345
1789799139133999400,9.023999267578125,-0.32767361900806424,-0.6653682812929153,1.5885551396012305
1789799139143972400,9.033972412109375,-0.592872369402647,-0.5089110606461763,1.619005807444453
1789799139153944800,9.04394482421875,-0.7991782013237476,-0.369955594420433,2.064503257322311
1789799139163917800,9.053917724609375,-0.7520026086509227,-0.09038111267089843,2.2406430835604665
1789799139173889500,9.0638896484375,-0.4881482586026191,0.16973229728341102,2.2716700899869204
1789799139183862800,9.07386279296875,-0.47269233079552647,0.4789917232006788,2.6979110507309434
1789799139193834800,9.083834716796876,-0.47364276338815686,0.8121604324936866,3.0502871493190526
1789799139203807500,9.093807373046875,-0.31957915987968444,1.067145247387886,3.1956179957956072
1789799139213779700,9.10377978515625,-0.18478959942804649,1.0722533841818571,3.2783833727657794
1789799139223752700,9.113752685546874,-0.02265606844425201,0.7533680517852306,3.0974814466923473
1789799139233724700,9.123724609375,0.10060091165648773,0.2446434536218643,2.8168577481508255
1789799139243697700,9.13369775390625,0.3217372146964073,-0.17514730806946754,2.587646841460466
1789799139253669600,9.143669677734374,0.7292951022803783,-0.36818040144145486,2.3318360971361396
1789799139263643000,9.153642822265626,0.9284534005343913,-0.38478140763044355,1.978493199342489
1789799139273615600,9.16361572265625,0.8148831354558468,-0.27595629125237464,1.5819307530254125
1789799139283587600,9.173587646484375,0.6640893473982811,-0.15121405929625034,1.491779357457161
1789799139293560800,9.183560791015625,0.6481880139112473,0.0738297908425331,1.4291045823574064
1789799139303532500,9.193532470703126,0.6456535269975662,0.3300117065668106,1.066236900371313
1789799139313505500,9.203505615234375,0.5088678060263395,0.5669418093323707,0.6723673464000225
1789799139323477800,9.213477783203125,-0.05871055677705444,0.6659048723876476,0.3781003224313259
1789799139333450800,9.22345068359375,-0.7171183422744274,0.3846802853435278,0.04994739547371864
1789799139343422700,9.233422607421875,-0.748098586949706,-0.11067980433404445,0.04406184456646442
1789799139353395700,9.243395751953125,-0.47088498911261556,-0.49283670867979523,0.4550321709424257
1789799139363367700,9.25336767578125,-0.2627870130777359,-0.6735036569535732,1.267258654409647
1789799139373340700,9.263340576171874,-0.2271013671904802,-1.0579811132013797,1.795918371620774
1789799139383312600,9.273312744140625,-0.2042056447714567,-1.2486088989973068,2.2299662067234514
1789799139393285600,9.28328564453125,-0.18127251295149324,-1.4043863206863403,2.2305314393907785
1789799139403259000,9.2932587890625,-0.22345336607694624,-1.2773118463903665,2.2199194444835184
1789799139413230600,9.303230712890626,-0.1619733537197113,-0.8784878848820924,2.291702824190259
1789799139423203600,9.31320361328125,-0.22491350175738334,-0.6230290227353572,2.1462083115845916
1789799139433175800,9.32317578125,-0.5955307749569416,-0.606783405855298,1.6240192516922949
1789799139443148500,9.3331484375,-0.9771557643830776,-0.8540940328598022,0.8234457966178655
1789799139453120800,9.343120849609376,-1.47684248508811,-1.0004308415085077,0.5237415500313043
1789799139463093800,9.35309375,-1.4956757803738117,-1.2770096485733986,0.37770577015578743
1789799139473065700,9.363065673828125,-0.898089826452732,-1.4809002360463142,0.3615262042492628
1789799139483038700,9.373038818359374,0.05238134462237358,-1.325634855532646,0.469880780506134
1789799139493010700,9.3830107421875,0.5868260749757289,-1.1990677462369204,0.3250286574572325
1789799139502984000,9.39298388671875,0.20756839920282363,-1.0519055926799774,0.7064782903164625
1789799139512955600,9.40295556640625,-0.4039139415910467,-1.098585803051293,1.0424404297202825
1789799139522928600,9.4129287109375,-0.6844260329842567,-1.4365671733230352,1.2196715583264828
1789799139532900900,9.42290087890625,-0.6271861424148082,-1.8246075827494264,1.154052546468377
1789799139542873600,9.43287353515625,-0.5609294171750545,-2.058119693765044,1.0764069967299699
1789799139552846600,9.4428466796875,-0.4390110104680061,-2.230591937406361,1.1588508866608143
1789799139562818800,9.45281884765625,-0.25616551257874814,-2.2205524816900493,1.3368945006936788
1789799139572791800,9.462791748046875,0.04338091309759766,-2.0056585619047285,1.5237830999612807
1789799139582763800,9.472763671875,0.5892004028916359,-1.7598761673808097,1.60233875028193
1789799139592736800,9.48273681640625,1.0078923364955932,-1.6741110240727661,1.4488865566700697
1789799139602708700,9.492708740234375,0.221538472366333,-2.06738699606508,0.47665422016382214
1789799139612681700,9.502681640625,-0.05495667500309646,-2.4553230683341623,-0.3056786448210478
1789799139622653700,9.51265380859375,0.42130218916758894,-2.5754960926786064,-1.1194552803397178
1789799139632626700,9.522626708984374,1.1195172396600246,-2.29670837739259,-2.2243489513635635
1789799139642598700,9.5325986328125,1.7848891742147504,-1.589862568937987,-3.0231530586779116
1789799139652571600,9.542571533203125,2.0538065067410467,-1.0011724536560476,-3.5959430095165965
1789799139662544000,9.5525439453125,2.1685402626410126,-0.4288254242792725,-3.9003602560997006
1789799139672516600,9.5625166015625,2.204919589880854,-0.0228929459400475,-4.217982436692714
1789799139682488600,9.572488525390625,1.9736055734314024,0.1330276836119592,-4.7170483951509
1789799139692461800,9.5824619140625,1.9297851364053784,0.1735335892625153,-5.074944718465209
1789799139702434800,9.592434814453124,1.747300909576565,0.257279355572164,-5.125429874077439
1789799139712406500,9.602406494140626,1.0922517777241765,0.2985745119042694,-5.1510892159909005
1789799139722379800,9.6123798828125,0.9594834757007658,0.132070382887125,-5.509949415901303
1789799139732351700,9.622351806640625,1.4435771982155738,-0.15238529503270984,-5.449779317098856
1789799139742324500,9.632324462890624,1.3583179586030543,-0.23443434042707084,-5.667251270678639
1789799139752296700,9.642296630859375,0.6451496691286563,-0.10205883711352944,-5.910381981649994
1789799139762269700,9.652269775390625,0.23831293542608617,0.13643661527261136,-6.00604717220366
1789799139772241700,9.66224169921875,0.43985023777112364,0.3987789533227682,-5.941708263283967
1789799139782214700,9.672214599609376,0.7511306481219827,0.717650549454987,-5.492836953058839
1789799139792186600,9.6821865234375,0.6826280436515808,0.959822498396784,-4.698735324347019
1789799139802159900,9.692159912109375,0.2205414241530001,0.9952069693803787,-3.9588510235130783
1789799139812131600,9.702131591796874,-0.21522227495685217,0.8099491861850023,-3.520435640850663
1789799139822104600,9.7121044921875,-0.34115262071900065,0.5661974207058549,-3.125166741475463
1789799139832076800,9.722076904296875,-0.4982840143002569,0.3272771670363843,-2.6318396189302207
1789799139842049500,9.732049560546875,-0.48075770995989436,0.017142273458838463,-2.3205711912780997
1789799139852022500,9.7420224609375,-0.030356486753746866,-0.28972441210299726,-2.6465415134996175
1789799139861994800,9.751994873046876,-0.033950200396776195,-0.5509878688752651,-2.594218036544323
1789799139871967700,9.7619677734375,-0.15080657447390258,-0.6325368557929992,-2.048639917758107
1789799139881939700,9.771939697265625,-0.4799859218697995,-0.6441615348741412,-1.6638772148281336
1789799139891912700,9.78191259765625,-0.7236380994319915,-0.7186401450142264,-1.7584557791888713
1789799139901884700,9.791884765625,-0.7585715387124567,-0.8825155329629778,-1.8917852222263811
1789799139911857700,9.801857666015625,-0.4933598557710647,-1.018518871384859,-1.666235760653019
1789799139921829600,9.81182958984375,-0.19389877029061317,-0.9958885219037532,-0.9504133034080267
1789799139931802600,9.821802734375,-0.2964940158357844,-1.1237120610013605,-0.40908465875983235
1789799139941774600,9.831774658203125,-0.2609223882496357,-1.5671838502705095,-0.38482057059705255
1789799139951747600,9.84174755859375,-0.08874560215724632,-2.0403847151100636,-0.3518313241869211
1789799139961719800,9.8517197265625,-0.07443301743268967,-2.4275083019524812,0.392580098682642
1789799139971692800,9.86169287109375,-0.16207272244095802,-2.7489211070001125,0.9919330622762441
1789799139981664800,9.871664794921875,-0.22530045524835585,-3.1544723309367892,1.3212620472759007
1789799139991637800,9.8816376953125,-0.05524667092561721,-3.3244016120970246,1.4134996014684438
1789799140001609700,9.891609619140626,0.0629389744273154,-3.223919961172342,1.5823708980083464
1789799140011582700,9.901582763671875,-0.11342822625935077,-2.9010797536700963,1.8689777626127004
1789799140021554700,9.9115546875,-0.3780097215384245,-2.224219187504053,2.076725025513768
1789799140031527700,9.921527587890624,-0.34603462060689927,-1.6070780537635088,2.318447038730979
1789799140041501000,9.9315009765625,-0.10414018256538547,-1.1029910522729158,2.4757979933470486
1789799140051472600,9.94147265625,-0.031208792734146118,-0.8893500551581383,2.6515795076668263
1789799140061445600,9.951445556640625,-0.2480903792053461,-0.8612994341939687,2.942291469502449
1789799140071417900,9.96141796875,-0.25529811862707136,-0.6436842727512121,3.1279952428996562
1789799140081390600,9.971390625,-0.3874070799589157,-0.46768882341980933,3.3883664270073175
1789799140091362800,9.98136279296875,-0.4188344838798046,-0.24638825146257876,3.3247821358472107
1789799140101335800,9.991335693359375,-0.11941899110674857,0.11082944193780421,3.2382407474696633
1789799140111307500,10.0013076171875,0.1445101777434349,0.3165928375452757,3.0428403404444455
1789799140121280800,10.01128076171875,0.20109892919408157,0.37151860595345493,2.677911634275317
1789799140131252700,10.021252685546875,0.27019991968274115,0.1793231324493885,2.411219430452585
1789799140141225700,10.031225830078125,0.45216275298595426,0.00158639240860939,2.1904706471592186
1789799140151198200,10.0411982421875,0.37210663497447966,-0.30079028825759885,2.426962358507514
1789799140161171000,10.0511708984375,0.5930301537802443,-0.6601964316129684,2.314129175531864
1789799140171143200,10.06114306640625,0.6090262528786435,-0.8283025889992713,2.3737065691381694
1789799140181116200,10.0711162109375,0.5245756993005052,-0.666355538764596,2.3764362863630053
1789799140191087900,10.081087890625,0.527688862884976,-0.18115502405166625,2.371532732230425
1789799140201061000,10.09106103515625,0.3736731901714578,0.5344681112289429,2.8004490496635435
1789799140211033000,10.101033203125,0.020941081219911575,1.357765439286828,3.427370403662324
1789799140221006000,10.111006103515624,-0.14709723509456962,1.7386942631423472,3.4757676470845937
1789799140230978000,10.12097802734375,-0.059567493266798555,1.5973814201354979,3.149828889045119
1789799140240951000,10.130950927734375,0.0535001195192337,1.2602344548612832,2.9780513496696948
1789799140250924000,10.140924072265625,0.2653647180786356,0.8294459138154983,2.9031396088093517
1789799140260896000,10.15089599609375,0.6324105990648269,0.3800654850244522,2.9118986693263054
1789799140270869000,10.160868896484375,0.8672890299975872,0.007763035216927528,2.89529123339653
1789799140280841200,10.17084130859375,1.0097580573022364,-0.03694061438441276,2.7245436215907333
1789799140290814200,10.180814208984375,1.1111597456812858,0.13382745568752288,2.2346634246289727
1789799140300786000,10.190785888671876,0.9487982694268227,0.32514614635705946,1.3949603206932544
1789799140310759200,10.20075927734375,0.5296820459961891,0.24973463928103445,0.6812222685068845
1789799140320731100,10.210731201171875,0.1892179555306211,-0.050447746211290355,0.3463976087003946
1789799140330704000,10.220703857421874,0.2032581165219657,-0.19803776979148388,0.57598845461905
1789799140340676000,10.230676025390625,0.23616671717762946,-0.0018447510838508604,0.7476970204114913
1789799140350649000,10.240649169921875,0.20601006384491918,0.310419117346406,0.8245271621137857
1789799140360621000,10.25062109375,-0.01773673222064972,0.4939496383577585,1.1365046148180962
1789799140370594000,10.260593994140624,-0.598624064797163,0.4053793745011091,1.268839786121249
1789799140380566000,10.27056591796875,-0.9849158769905566,-0.005541852036118507,1.5009364773809908
1789799140390539300,10.280539306640625,-1.030626657807827,-0.7064525713533163,1.8923335037589073
1789799140400511000,10.290510986328124,-0.7288508656442165,-1.3547066362380982,2.157902841031551
1789799140410484000,10.30048388671875,-0.6229308230578899,-1.70075470084846,2.662943197724223
1789799140420456200,10.310456298828125,-0.54821840416193,-1.8022972590029238,2.9701930373847483
1789799140430429000,10.320428955078125,-0.5318330865502358,-1.6436825680613516,2.8859412212491034
1789799140440401200,10.330401123046874,-0.40567810171935703,-1.5349199955254793,2.215761740282178
1789799140450374100,10.3403740234375,-0.12279745456390082,-1.5867121420830488,1.2318272755444049
1789799140460345900,10.350345947265625,-0.08202942737843841,-1.6745201893955468,0.5388794979304075
1789799140470319000,10.360319091796875,0.05420158231947571,-1.771824963849783,0.05566752668619156
1789799140480291000,10.370291015625,0.4371429150411859,-1.700753239543736,0.03170212920904159
1789799140490264000,10.38026416015625,0.6520014347195625,-1.3837062284901738,0.4740642036706209
1789799140500236000,10.390236083984375,0.7450947289586066,-1.163261981101334,0.7646990086168051
1789799140510209000,10.400208984375,0.3430360233128071,-1.12153062530905,1.178185701727867
1789799140520182000,10.41018212890625,-0.06700140612721443,-1.4123817033544181,1.1893389639049767
1789799140530154000,10.420154052734375,-0.14902736290693283,-1.735570870424807,1.043912840360403
1789799140540127000,10.430126953125,-0.16416772195883095,-2.0239464982673523,0.8318032905966043
1789799140550099200,10.44009912109375,0.024076529701426624,-1.9955980634003876,0.9945476286888122
1789799140560072200,10.450072265625,0.06272270589470863,-2.0388345630586144,0.9811638309806585
1789799140570044200,10.460044189453125,0.0962905559103936,-2.1834335881292817,0.9063339231848716
1789799140580017200,10.47001708984375,0.3932195656299591,-2.3012246857732532,0.8014642664343118
1789799140589989000,10.479989013671876,0.9587409137051552,-2.2023282582134005,0.3337152372598648
1789799140599962000,10.489962158203125,0.5433786359805614,-2.136621860332787,-0.5646405466526746
1789799140609934000,10.49993408203125,0.8079448606252669,-1.8698332103982567,-0.9605968437701463
1789799140619907000,10.509906982421874,1.2577157500386238,-1.4731304788276551,-1.5146791715294121
1789799140629879000,10.519879150390626,1.7416509209908544,-0.9667039284735918,-2.034756938356161
1789799140639852000,10.52985205078125,2.022961432752758,-0.7861600220575928,-2.8204367756813764
1789799140649824300,10.53982421875,2.2123766278885304,-0.7448622353769838,-3.3316929381489753
1789799140659797200,10.54979736328125,2.45755564969182,-0.5745306570261717,-3.7775644820362326
1789799140669769000,10.55976904296875,2.2233833212018013,-0.3411483098700642,-4.204005933788419
1789799140679742200,10.5697421875,2.1395571831323204,-0.24618615301921962,-4.65052337436378
1789799140689714200,10.579714111328125,2.1348050201691686,-0.13883169371560214,-5.0991041772097345
1789799140699687000,10.58968701171875,1.6704675530038773,-0.12789821176901459,-5.42681286753118
1789799140709659100,10.5996591796875,1.0485495602503418,0.005571808782964945,-5.425201925203204
1789799140719632100,10.609632080078125,0.6953402257084846,0.11727730290293693,-5.315895747309923
1789799140729604000,10.61960400390625,0.8455553370952605,-0.0800790604956448,-4.904061497581004
1789799140739577000,10.6295771484375,0.8240193587221205,-0.30828283597007394,-4.635028283590078
1789799140749549000,10.639549072265625,0.039109190595149994,-0.22568609356507657,-4.772091652458906
1789799140759522000,10.64952197265625,-0.3686078330732882,-0.023578882377594708,-4.943748195803165
1789799140769494000,10.659493896484374,0.025858079355955122,0.316869170268625,-4.759630814814567
1789799140779467000,10.669467041015626,0.3620608956478536,0.4441720464929938,-4.275233433178067
1789799140789439000,10.67943896484375,0.056875148910284036,0.16923749950379133,-4.287311993506551
1789799140799412000,10.689411865234375,-0.1733554562166333,-0.15580489421784877,-4.859718497985601
1789799140809384200,10.69938427734375,-0.16858093529120086,-0.12860592164695261,-4.943382285100221
1789799140819357200,10.709357177734375,-0.20725392642617224,0.211015178655833,-4.4186546466410155
1789799140829329000,10.719328857421875,-0.415968134663254,0.44419104345440863,-3.9344828904539346
1789799140839302100,10.72930224609375,-0.24993783370293676,0.433720210583508,-3.770342714089155
1789799140849275100,10.739275146484376,-0.14650339738726614,0.3236361801855266,-3.5852135257095097
1789799140859246800,10.749246826171875,-0.2338473343193531,0.2521832014769316,-2.951325839829445
1789799140869220000,10.75922021484375,-0.34979894157648084,0.19307225633859634,-2.136897462403774
1789799140879192000,10.769192138671874,-0.6579004296302795,-0.09754852008223533,-1.7532675628960133
1789799140889165000,10.7791650390625,-0.6914519860982894,-0.517184675733745,-1.7689157984048127
1789799140899137000,10.789136962890625,-0.54828145946078,-0.8995479163065552,-1.9002707264989613
1789799140909110000,10.799110107421875,-0.571344391672872,-1.3477119550451635,-1.621391241276264
1789799140919082200,10.809082275390624,-0.5461667323291302,-1.8659724433168767,-1.125723108562827
1789799140929055000,10.819054931640625,-0.41661563878655433,-2.3373609980374574,-0.7739847233563661
1789799140939027000,10.82902685546875,-0.48338557424545286,-2.8120269669935105,-0.6185083304405212
1789799140949000200,10.839000244140625,-0.4852922481169924,-3.2171926987439394,-0.6941062999993562
1789799140958972000,10.848971923828126,-0.07351648710966109,-3.325430662883818,-0.5189665907144546
1789799140968945200,10.858945068359375,0.2719616686582565,-3.1690976531386372,0.07221943303644657
1789799140978917000,10.868917236328125,0.1334521926343441,-3.1660669071406122,1.075992570710182
1789799140988890000,10.87889013671875,0.2678150703728199,-3.1781390377283096,1.7363754648059606
1789799140998862000,10.888862060546876,0.5379296498596668,-3.0388457178503274,2.1514941430330277
1789799141008835000,10.8988349609375,0.2563070034086704,-2.4795056156933306,2.9495763658136127
1789799141018807300,10.908807373046875,0.3343453518569469,-1.8120038295030594,3.485568910130858
1789799141028780000,10.918780029296874,0.5036474410295486,-1.1657821472287178,3.521948383501172
1789799141038752000,10.928751953125,0.344451735329628,-0.5946218434184789,3.5965211016654965
1789799141048725200,10.938725341796875,-0.06368833605647087,-0.18819675925672052,3.932750952094793
1789799141058697000,10.948697021484374,-0.44441666890382764,0.28807752167880535,4.4378439157575365
1789799141068670000,10.958669921875,-0.3452829254567623,0.4601783016592264,4.824686932092905
1789799141078642200,10.96864208984375,-0.37439445365071294,0.4215583558857441,4.943261873590946
1789799141088615200,10.978615234375,-0.3145417502343654,0.43158524438142776,4.562016238871217
1789799141098587100,10.988587158203124,-0.28068037889851255,0.468569697907567,4.261551529306173
1789799141108560100,10.99856005859375,-0.3223462865054607,0.2923924622684717,3.864304023334384
1789799141118532000,11.008531982421875,0.07489710954679175,0.11766308735013008,3.328558147254586
1789799141128505000,11.018505126953125,0.45966096325423567,-0.10850479838252067,2.8048621899306774
1789799141138477000,11.02847705078125,0.3871756092905998,-0.22013328174352645,2.5758149493694305
1789799141148449500,11.038449462890625,0.0938636940896511,-0.24523031359910963,2.6692308996915814
1789799141158421800,11.048421875,-0.0883083980500698,-0.20351181728839873,2.769194079700112
1789799141168394800,11.058394775390624,0.10066752888560294,-0.11090075360834598,2.3743495432168245
1789799141178366700,11.06836669921875,0.36879941012263295,0.06029343292117118,2.2058979333937168
1789799141188339700,11.078339599609375,0.5194646033644675,0.39704526139795776,2.266930786505341
1789799141198311700,11.088311767578125,0.4974503034224733,0.8055436447024344,2.2933722187072036
1789799141208284700,11.09828466796875,0.21241989435460418,1.0397849467754363,2.366131165447831
1789799141218256600,11.108256591796875,-0.0022504092752933503,0.9452940606981516,2.324593870922923
1789799141228230000,11.11822998046875,0.42566286859512326,0.6507032116025686,2.011172064629197
1789799141238201600,11.12820166015625,0.7792588643670082,0.27167583745419976,1.5099755238831043
1789799141248174600,11.138174560546876,0.7834931409358978,0.0963432359457016,1.4072452172487973
1789799141258146800,11.148146728515625,0.3203039670228958,0.12039864979386329,1.373853235256672
1789799141268119800,11.158119873046875,-0.4020329866826534,0.12706161481440068,1.3398112649232148
1789799141278091800,11.168091796875,-0.5298340216875076,-0.0032838439762592313,1.629030357852578
1789799141288064800,11.178064697265626,-0.351779301738739,-0.3181424050748348,1.8024936583578586
1789799141298036700,11.18803662109375,-0.2376420504271984,-0.576079640033841,1.9495628729343413
1789799141308009700,11.198009765625,-0.1417465491158422,-0.6583744768828154,2.117647403010726
1789799141317981700,11.207981689453124,-0.11651741531318985,-0.5014011234074831,1.867452745002508
1789799141327954700,11.21795458984375,-0.3221019563555717,-0.3320429201334715,1.4517127200067041
1789799141337926700,11.2279267578125,-0.6106102706670761,-0.2915951744109392,0.94166008810997
1789799141347899600,11.237899658203125,-0.9519277996242046,-0.3082119626909494,0.464041406828165
1789799141357871900,11.247871826171876,-1.0119044216811657,-0.40711949616670606,0.29044834246337414
1789799141367844900,11.257844970703125,-1.0818728609204291,-0.6293623174101114,0.4020914388716221
1789799141377816600,11.267816650390625,-0.7940145349502563,-0.7447282337337732,0.8032154940158128
1789799141387789800,11.277789794921874,-0.30456513062119484,-0.7973112384080886,1.3857862496346234
1789799141397761500,11.287761474609376,0.18634791651964186,-0.9413327558517456,1.814316782620549
1789799141407734500,11.297734619140625,0.6140262165904045,-1.1256488742828368,2.2016759317845103
1789799141417706800,11.307706787109375,0.2991267572258599,-1.3299053724586962,2.4670716660559178
1789799141427679700,11.3176796875,-0.4570493559837341,-1.3872989922851324,2.394624854004383
1789799141437651700,11.327651611328125,-0.8880921640515327,-1.2968699488192796,1.9432973827987907
1789799141447624700,11.337624755859375,-0.8362415653049945,-1.3618904102623461,1.2130045016527176
1789799141457596700,11.3475966796875,-0.5822925231993198,-1.6578405650123953,0.6071738664776086
1789799141467569700,11.357569580078126,-0.4118342497289181,-1.7539125828012823,0.397070980361104
1789799141477541600,11.367541748046875,-0.07909516402482986,-1.7375298955380916,0.6154489428699016
1789799141487514600,11.3775146484375,0.22978370160963385,-1.6251275051951408,1.402225343260169
1789799141497486600,11.387486572265624,0.1932557596793398,-1.5260867007285355,2.182431717610359
1789799141507459600,11.39745947265625,-0.18033084818720815,-1.6667384494781494,2.6791905681699513
1789799141517431800,11.407431884765625,-0.40058454144001004,-1.912561760534346,2.6781489501625297
1789799141527404800,11.41740478515625,-0.5793312987735495,-2.321203059440851,1.9214105451613663
1789799141537376800,11.427376708984376,-0.8120260655242949,-2.539776252260804,1.5666484282195567
1789799141547349800,11.437349853515625,-0.4312636842768639,-2.6130229825183746,1.3132622806936503
1789799141557321700,11.44732177734375,0.13074943648166953,-2.4801854146510363,1.1195721847176552
1789799141567294700,11.457294677734374,0.6042670391201973,-2.474137074397504,0.2628904734522104
1789799141577266700,11.4672666015625,0.5007726893108337,-2.456216510042548,-0.568466826942563
1789799141587239700,11.47723974609375,0.8856580687724054,-2.154939607311785,-1.3684861552655696
1789799141597211600,11.487211669921875,1.2952350410938263,-1.909143184262514,-2.04939921169281
1789799141607184600,11.4971845703125,1.710702678889036,-1.4898751312710343,-2.3743477896511553
1789799141617156900,11.507156982421876,1.4808720328651368,-0.9429318616114556,-2.8478958604931828
1789799141627129900,11.5171298828125,1.8865372385703025,-0.642078591120243,-3.1645301990926265
1789799141637101600,11.5271015625,1.9906267047286033,-0.5618583685882389,-3.6230280003190036
1789799141647074800,11.53707470703125,2.209693672414869,-0.6074877547323704,-3.934557124733925
1789799141657046800,11.547046875,2.7134523187339306,-0.5031790928654373,-4.4189410623669625
1789799141667019500,11.55701953125,2.7788322611391543,-0.11863996955826878,-4.921373866909742
1789799141676991700,11.56699169921875,2.0438558983519672,0.44393180799633264,-5.381982961201667
1789799141686964700,11.57696484375,1.472882933807373,0.5274345593303442,-5.936041908085346
1789799141696936700,11.586936767578125,1.5564751169905064,0.4052756218656897,-6.419465476253628
1789799141706909700,11.59690966796875,1.6877521575428545,0.561255726519972,-6.3726107860982415
1789799141716881700,11.606881591796874,1.3327905725061893,0.6712164227992296,-6.1233250596284865
1789799141726855000,11.61685498046875,1.1728832114055752,0.5607182586424052,-6.009526246491074
1789799141736826600,11.62682666015625,1.4773488271750508,0.5539788673847913,-5.5231075881600376
1789799141746799600,11.636799560546875,1.632183853447437,0.5240604067221284,-4.814450200238824
1789799141756771800,11.646771728515626,1.1238709048248827,0.46210620098188515,-4.419834211814403
1789799141766744600,11.65674462890625,0.6079403208054602,0.30724077957123513,-4.511338775557279
1789799141776716800,11.666716796875,0.290415024715662,0.0305504749558866,-5.137377501502633
1789799141786689800,11.676689697265624,0.006436901179701089,-0.014555910227447748,-5.307122658267617
1789799141796661500,11.68666162109375,0.16779986791610718,0.1250743865199387,-4.681464456072449
1789799141806634800,11.696634765625,0.24259762700796125,0.20955314327925442,-3.9900042866677046
1789799141816606700,11.706606689453125,0.05700140563845634,0.1594688235528767,-3.697344697895646
1789799141826579700,11.716579833984374,-0.009745295075327157,0.05346007976979017,-3.553393907600641
1789799141836551700,11.7265517578125,-0.009786065477132797,0.022834347620606422,-3.1968782249897716
1789799141846524700,11.736524658203125,-0.060957449787855146,-0.03232961345762014,-2.7406027759879827
1789799141856497000,11.746496826171875,-0.3695172030031681,-0.1259378714814782,-2.4070997201740743
1789799141866469600,11.7564697265625,-0.559331188198179,-0.3038581513956189,-2.0970903526723386
1789799141876441600,11.766441650390625,-0.6202933872263878,-0.6033621992349625,-1.602125984314084
1789799141886414800,11.776414794921875,-0.6377765100121497,-0.9770590260103345,-0.8998661884754896
1789799141896386600,11.786386474609374,-0.6506885985553265,-1.4121680606037377,-0.34599078146517276
1789799141906359600,11.796359619140626,-0.7528595177412033,-1.9882684511646627,-0.03831950152218341
1789799141916331800,11.806331787109375,-0.6945008522748947,-2.505695118960738,0.17707681482732296
1789799141926304800,11.8163046875,-0.5056395646948367,-3.0842922947734595,0.6124883394986391
1789799141936276700,11.82627685546875,-0.33498481880426406,-3.401655532169342,1.453593126925826
1789799141946248700,11.836248779296875,-0.07061022600783035,-3.6545436670452354,2.2598662549465893
1789799141956221700,11.8462216796875,0.020750527083873746,-3.7659517856538294,2.665736627835035
1789799141966193700,11.856193603515624,0.09152794461846352,-3.6798388518214225,2.6495751821070908
1789799141976166700,11.866166748046876,-0.2539817753314972,-3.3998914451062676,2.7733564600765703
1789799141986139000,11.876138916015625,-0.5742062473773956,-2.7962784859806296,2.9175656090468167
1789799141996111600,11.886111572265625,-0.2725941213428974,-2.0205431195646524,2.7504496317416427
1789799142006083800,11.896083740234374,-0.03592472447329201,-1.184517827358842,2.4935943468004464
1789799142016056800,11.906056884765626,-0.24701895058155057,-0.7030284421235322,2.6228561020076273
1789799142026028500,11.916028564453125,-0.5085691153407097,-0.5994201836109161,2.8750322892218825
1789799142036001800,11.926001708984375,-0.7339794607043266,-0.534464019575715,3.1675726355284453
1789799142045973800,11.935973876953126,-0.4885726214945316,-0.5606722275435925,3.5764106260508295
1789799142055946500,11.945946533203125,-0.04752044232143089,-0.5656090994238853,3.6840848188281057
1789799142065918700,11.955918701171875,0.2522574357569218,-0.3872334769576788,3.511168630811572
1789799142075891700,11.9658916015625,0.3148305040478706,-0.19661679707765578,3.0796552826225754
1789799142085863700,11.97586376953125,0.039250644892454147,-0.09539046526551247,2.8196137688606977
1789799142095836700,11.985836669921875,0.001440261936187744,-0.07839724488854408,2.638690799999237
1789799142105808600,11.99580859375,0.24480240704324094,0.02345218725800514,2.560053316614032
1789799142115782000,12.005781982421874,0.4797194894859567,0.21038813279867172,2.322279164239764
1789799142125753600,12.015753662109375,0.47655364586617793,0.48020986681878564,2.140145066022873
1789799142135726600,12.0257265625,-0.058550461711362,0.7189145780414342,1.8804805688798427
1789799142145698800,12.03569873046875,-0.39271687680482864,0.6576280424296855,2.2128975830227136
1789799142155671800,12.045671875,-0.16612689320258794,0.6879162131875753,2.457698857554793
1789799142165644000,12.05564404296875,0.18072715402841566,0.914873203471303,3.2544132991135117
1789799142175617000,12.065616943359375,0.15495909104347227,1.119234915587306,3.829347860765457
1789799142185588700,12.075588623046874,0.16336221426222472,0.994872622859478,3.8413644617736336
1789799142195562000,12.08556201171875,0.4401567829696461,0.7582464714765548,3.6494425445139407
1789799142205534000,12.095533935546875,0.6891091492991894,0.45757542568445203,3.1302853996634483
1789799142215507000,12.1055068359375,0.7621008088171481,0.295560570910573,2.539474638965726
1789799142225479000,12.11547900390625,0.6481015777368098,0.15946575481295586,2.120049787977338
1789799142235451000,12.125450927734375,0.41799160331487656,0.029396190354228018,1.9734464373469351
1789799142245424000,12.135424072265625,0.5509690911095589,0.016074351966381073,1.9227479312449693
1789799142255395800,12.145395751953124,0.7472866860449313,0.19192016369402407,1.4855466005474327
1789799142265368800,12.155368896484376,0.643535219669342,0.2816805141180754,1.27762222751379
1789799142275341000,12.165341064453125,0.17876783665418625,0.1902373251736164,0.9209534001678228
1789799142285313800,12.175313720703125,-0.12829199685957282,0.03170037564337253,0.745180069154501
1789799142295286000,12.1852861328125,-0.17132102777957917,-0.05166881243884563,0.8562211080163716
1789799142305259000,12.195259033203126,-0.13362985075619072,-0.08291793718338013,0.9524410098433495
1789799142315230700,12.205230712890625,-0.25486206529736516,-0.08031798381805419,1.2984984268039463
1789799142325204000,12.215203857421875,-0.42554596421718593,-0.15027473261952398,1.5833277603417635
1789799142335176000,12.225176025390626,-0.8695569749295711,-0.5022849205046892,1.67716222833693
1789799142345149000,12.23514892578125,-1.4423077628016472,-0.9033867638170718,1.7879881631433963
1789799142355121000,12.245120849609375,-1.507603534054756,-1.0819406654596329,2.031869984742999
1789799142365094000,12.255093994140625,-1.4357926818192004,-1.1476280663788319,2.306158050522208
1789799142375066000,12.265066162109376,-0.7351192783892154,-1.186277822768688,2.418146599367261
1789799142385038800,12.275038818359375,0.19400752789471298,-1.0963146432489157,2.715077289587259
1789799142395011000,12.285010986328125,0.5844471074173226,-1.1988894670605659,2.9476053580015895
1789799142404984000,12.294984130859374,0.268917551722005,-1.580243822851777,3.0303169589579104
1789799142414955800,12.304955810546875,0.07834354193992912,-2.503166185005009,2.2856197048842906
1789799142424929000,12.314928955078125,0.4655108948588371,-3.073104838065803,1.105646535217762
1789799142434901000,12.32490087890625,0.3506931870024651,-2.5638988861262795,0.49213820502161976
1789799142444874000,12.3348740234375,0.1769253505926579,-1.8284829628780483,0.4497662132382393
1789799142454846000,12.344845947265625,0.08523505501933396,-1.5418915881037711,0.7580886505663395
1789799142464818000,12.35481787109375,0.03240706260800361,-1.7142711850255727,0.8096744608968496
1789799142474791200,12.364791259765624,-0.06298566767983138,-2.0004601164788007,1.1040198107987642
1789799142484763000,12.374762939453126,0.025288462774455546,-2.087924172659218,1.4826806897222995
1789799142494736000,12.38473583984375,0.21215463101454077,-2.2034511247634887,1.5111369688779115
1789799142504708000,12.3947080078125,0.6097127373054623,-2.3770468194767833,1.4041028275698422
1789799142514680800,12.404680908203124,0.930126156052202,-2.5880726656571027,0.7012479884475469
1789799142524653000,12.414653076171875,1.4031516643248498,-2.603672970370948,-0.23074819926023482
1789799142534626000,12.4246259765625,1.2917898690760135,-2.3349442922845483,-1.2386626745223999
1789799142544597800,12.43459765625,1.4482617027699947,-1.875920129096508,-1.916174398073554
1789799142554571000,12.444571044921876,1.683649982921034,-1.640131013059616,-2.61214649194479
1789799142564543000,12.45454296875,1.791073269677162,-1.341248165858537,-3.2134020742893217
1789799142574516000,12.464515869140625,2.136853038740158,-0.8405988837316631,-3.38479967443645
1789799142584488000,12.474488037109374,1.98657626029402,-0.4499614435493946,-3.545602230811119
1789799142594461000,12.4844609375,2.430782209056616,-0.3188660431742668,-3.1663276039034125
1789799142604433200,12.49443310546875,2.8651857257291673,-0.509555934420973,-3.4377795694738627
1789799142614406000,12.504406005859375,3.1525252885222432,-0.5094406374782323,-3.768733525326848
1789799142624377900,12.5143779296875,2.8133085312366486,-0.26019918854162094,-4.044661759528518
1789799142634351000,12.52435107421875,1.748405802078545,-0.07625628733709454,-4.478949248605966
1789799142644322800,12.53432275390625,1.671248620378971,-0.179167357365787,-5.102449395984411
