time,seconds_elapsed,z,y,x
1789799130168157700,0.05815771484375,-0.318815141916275,-0.20730724930763245,-0.13660870492458344
1789799130178130000,0.0681298828125,-0.276601105928421,-0.2338685542345047,-0.15459968149662018
1789799130188102000,0.078101806640625,-0.20316468179225922,-0.08843865990638733,-0.3520829379558563
1789799130198073900,0.088073974609375,-0.03614453971385956,0.2293933779001236,-0.7417111396789551
1789799130208045800,0.0980458984375,0.134978249669075,0.7183714509010315,-1.1274749040603638
1789799130218017800,0.108017822265625,0.2548271417617798,1.0799880027770996,-1.4124568700790405
1789799130227990800,0.11799072265625,0.30294081568717957,1.230069637298584,-1.6158781051635742
1789799130237962800,0.127962646484375,0.3215951919555664,1.1827119588851929,-1.7680572271347046
1789799130247934700,0.137934814453125,0.38140949606895447,1.0755242109298706,-1.8490474224090576
1789799130257907000,0.147906982421875,0.483314573764801,0.9807947874069214,-1.820102572441101
1789799130267878700,0.157878662109375,0.5864397883415222,0.9128147959709167,-1.7305678129196167
1789799130277851000,0.167850830078125,0.6163630485534668,0.7226347327232361,-1.6920697689056396
1789799130287824000,0.177823974609375,0.5628170967102051,0.7101508975028992,-1.6668660640716553
1789799130297795800,0.1877958984375,0.4674287736415863,0.9296417236328125,-1.6461820602416992
1789799130307767800,0.197767822265625,0.3502956032752991,1.1448792219161987,-1.6163156032562256
1789799130317739800,0.20773974609375,0.22048033773899078,1.1778321266174316,-1.5904666185379028
1789799130327711700,0.217711669921875,0.10242125391960144,1.1439781188964844,-1.558538794517517
1789799130337684000,0.22768408203125,0.03052309714257717,1.2534316778182983,-1.4717758893966675
1789799130347656700,0.23765673828125,-0.01917867176234722,1.485971450805664,-1.3458980321884155
1789799130357629000,0.24762890625,-0.0755750983953476,1.7779537439346313,-1.1827253103256226
1789799130367601000,0.257600830078125,-0.1510208547115326,2.008866310119629,-0.9683824777603149
1789799130377572900,0.26757275390625,-0.23352424800395966,2.0740914344787598,-0.6764954924583435
1789799130387544800,0.277544921875,-0.34606653451919556,1.9749926328659058,-0.2837888300418854
1789799130397516800,0.287516845703125,-0.384179025888443,1.6277018785476685,0.24575278162956238
1789799130407489800,0.29748974609375,-0.2516319155693054,1.0479657649993896,0.9048379063606262
1789799130417461800,0.307461669921875,-0.365084171295166,0.49070119857788086,1.5808943510055542
1789799130427433700,0.317433837890625,-1.0660580396652222,-0.449515700340271,1.984428882598877
1789799130437406000,0.327406005859375,-1.877558946609497,-2.522489309310913,1.996585726737976
1789799130447378000,0.3373779296875,-2.2559804916381836,-4.3767218589782715,1.9889987707138062
1789799130457350700,0.3473505859375,-2.0987181663513184,-5.343525409698486,2.2574076652526855
1789799130467323000,0.357322998046875,-1.7081466913223267,-6.376842498779297,2.4247138500213623
1789799130477294800,0.367294921875,-1.5600427389144897,-7.622082710266113,2.202925205230713
1789799130487266800,0.377266845703125,-1.5825361013412476,-9.094910621643066,1.5241844654083252
1789799130497238800,0.38723876953125,-1.775498867034912,-9.284403800964355,0.06933633983135223
1789799130507212000,0.3972119140625,-2.1316561698913574,-7.839690208435059,-0.6550535559654236
1789799130517183700,0.407183837890625,-2.1094610691070557,-6.010683059692383,-1.0902167558670044
1789799130527156000,0.417156005859375,-1.7960411310195923,-4.141075611114502,-1.4050405025482178
1789799130537127700,0.427127685546875,-1.3236174583435059,-2.536775588989258,-1.483498215675354
1789799130547100000,0.437099853515625,-0.677746057510376,-1.3466750383377075,-1.3392035961151123
1789799130557072000,0.44707177734375,0.6449198126792908,-0.7629026770591736,-0.982097327709198
1789799130567044600,0.457044677734375,2.290534734725952,-0.6141423583030701,-0.5141316056251526
1789799130577016800,0.467016845703125,2.8372228145599365,0.11306868493556976,-0.2745557725429535
1789799130586988800,0.47698876953125,2.5219552516937256,1.0175505876541138,-0.12301751971244812
1789799130596960800,0.486960693359375,1.6902482509613037,1.1116875410079956,-0.051874373108148575
1789799130606933000,0.49693310546875,0.7502830028533936,0.6437619924545288,-0.15667122602462769
1789799130616906000,0.506906005859375,0.10852957516908646,0.05639537423849106,-0.17814083397388458
1789799130626877700,0.516877685546875,-0.1338927000761032,-0.3010076582431793,0.009873945266008377
1789799130636850000,0.526849853515625,-0.09775413572788239,-0.40121549367904663,0.2833675444126129
1789799130646821600,0.536821533203125,0.070760078728199,-0.40073761343955994,0.5027028322219849
1789799130656793900,0.5467939453125,0.23060114681720734,-0.5260758399963379,0.5940993428230286
1789799130666766800,0.556766845703125,0.3009682297706604,-0.7880505919456482,0.5708680152893066
1789799130676738800,0.56673876953125,0.3094482421875,-0.9674083590507507,0.48689642548561096
1789799130686710800,0.576710693359375,0.30107200145721436,-1.0071513652801514,0.3810213804244995
1789799130696683000,0.58668310546875,0.2797059714794159,-0.8947519063949585,0.2666151821613312
1789799130706654700,0.59665478515625,0.2426968514919281,-0.6710080504417419,0.15783651173114777
1789799130716627700,0.606627685546875,0.20697879791259766,-0.3344752788543701,0.07355785369873047
1789799130726600000,0.616599853515625,0.1958894431591034,0.07555622607469559,0.026606852188706398
1789799130736572000,0.626572021484375,0.2115565538406372,0.361425518989563,0.009569812566041946
1789799130746543900,0.6365439453125,0.23341843485832214,0.4584996700286865,0.01940886117517948
1789799130756515800,0.646515869140625,0.2600569427013397,0.48340901732444763,0.08723185211420059
1789799130766488800,0.65648876953125,0.2868626117706299,0.5989185571670532,0.20061832666397095
1789799130776460800,0.666460693359375,0.3134361505508423,0.8385362029075623,0.30595433712005615
1789799130786432800,0.676432861328125,0.3463255763053894,1.1045256853103638,0.3806975781917572
1789799130796404700,0.68640478515625,0.3656204342842102,1.302499771118164,0.41271063685417175
1789799130806378000,0.6963779296875,0.3281911313533783,1.3026562929153442,0.3849528729915619
1789799130816349700,0.706349609375,0.2376556396484375,1.1847038269042969,0.315606027841568
1789799130826322000,0.716322021484375,0.13425010442733765,1.086484670639038,0.22796432673931122
1789799130836294000,0.7262939453125,0.039028242230415344,1.0166029930114746,0.12419053167104721
1789799130846265900,0.736265869140625,-0.004040597938001156,1.019903540611267,0.01879926212131977
1789799130856238800,0.74623876953125,0.02148739993572235,1.1440948247909546,-0.05367174372076988
1789799130866210800,0.7562109375,0.10588061064481735,1.3480380773544312,-0.06275352090597153
1789799130876182800,0.766182861328125,0.20740190148353577,1.5731141567230225,-0.031515441834926605
1789799130886155000,0.776155029296875,0.28851768374443054,1.7525599002838135,0.028783317655324936
1789799130896126700,0.786126708984375,0.31876078248023987,1.772383689880371,0.12360277771949768
1789799130906099700,0.796099609375,0.2656297981739044,1.5304133892059326,0.23212513327598572
1789799130916072000,0.806072021484375,0.13208957016468048,1.0629223585128784,0.36361631751060486
1789799130926043600,0.816043701171875,-0.011701272800564766,0.5037615895271301,0.5118050575256348
1789799130936016000,0.826015869140625,-0.10905259102582932,0.0006723659462295473,0.6346521973609924
1789799130945988900,0.83598876953125,-0.12995438277721405,-0.2913002073764801,0.6875090003013611
1789799130955960800,0.8459609375,-0.06300465017557144,-0.29962098598480225,0.6629400253295898
1789799130965932800,0.855932861328125,0.06289845705032349,-0.13272133469581604,0.5805588960647583
1789799130975905000,0.865905029296875,0.19228893518447876,0.06405565142631531,0.4630378186702728
1789799130985876700,0.875876708984375,0.25803402066230774,0.18584516644477844,0.31732043623924255
1789799130995849700,0.885849609375,0.23745310306549072,0.24053317308425903,0.17506609857082367
1789799131005822000,0.895822021484375,0.16765886545181274,0.21409113705158234,0.07706096768379211
1789799131015794000,0.9057939453125,0.09654022008180618,0.1523556113243103,0.035840559750795364
1789799131025766000,0.915765869140625,0.06280503422021866,0.11760067939758301,0.035061053931713104
1789799131035739000,0.92573876953125,0.06088462844491005,0.10426250100135803,0.05927051603794098
1789799131045710800,0.9357109375,0.07020365446805954,0.10464425384998322,0.09122245758771896
1789799131055682800,0.945682861328125,0.08414450287818909,0.1349632740020752,0.12576472759246826
1789799131065654800,0.95565478515625,0.0913567915558815,0.17761975526809692,0.16518203914165497
1789799131075627800,0.965627685546875,0.08425920456647873,0.21636715531349182,0.19442994892597198
1789799131085600000,0.97560009765625,0.06841208040714264,0.22438308596611023,0.2042374312877655
1789799131095571700,0.98557177734375,0.04682663455605507,0.2016303688287735,0.19950872659683228
1789799131105544000,0.9955439453125,0.035690125077962875,0.18122896552085876,0.1908341348171234
1789799131115515600,1.005515625,0.0443403385579586,0.18838141858577728,0.180479496717453
1789799131125488600,1.015488525390625,0.05586089566349983,0.19605110585689545,0.16248638927936554
1789799131135460900,1.0254609375,0.05543239414691925,0.21317656338214874,0.1280951201915741
1789799131145432300,1.035432373046875,0.059787631034851074,0.28408166766166687,0.08494977653026581
1789799131155404300,1.045404296875,0.07825452089309692,0.3639589250087738,0.049130264669656754
1789799131165377300,1.055377197265625,0.10881645232439041,0.39443206787109375,0.028857218101620674
1789799131175349200,1.065349365234375,0.14204923808574677,0.40848422050476074,0.047271911054849625
1789799131185321200,1.0753212890625,0.16650015115737915,0.41464394330978394,0.10027813166379929
1789799131195293400,1.08529345703125,0.172769233584404,0.4048230051994324,0.16073428094387054
1789799131205266200,1.09526611328125,0.16016001999378204,0.36368444561958313,0.20148837566375732
1789799131215238400,1.10523828125,0.12583932280540466,0.28316375613212585,0.20420905947685242
1789799131225210400,1.11521044921875,0.0914296880364418,0.19506996870040894,0.18467065691947937
1789799131235182300,1.125182373046875,0.05827653035521507,0.12916046380996704,0.1327512562274933
1789799131245154300,1.135154296875,0.020439308136701584,0.0742131918668747,0.06040315330028534
1789799131255127600,1.14512744140625,0.0028280899859964848,0.05162585526704788,0.0056190029717981815
1789799131265099300,1.155099365234375,0.012722599320113659,0.09248615056276321,-0.01862921006977558
1789799131275071500,1.165071533203125,0.0399443656206131,0.1653779298067093,-0.04094170778989792
1789799131285043200,1.175043212890625,0.0765070840716362,0.23241901397705078,-0.0652260109782219
1789799131295016200,1.18501611328125,0.11409307271242142,0.29227328300476074,-0.07087057828903198
1789799131304988400,1.194988525390625,0.12936560809612274,0.2958102226257324,-0.06675852835178375
1789799131314960100,1.204960205078125,0.11433100700378418,0.24896787106990814,-0.06586050987243652
1789799131324932400,1.214932373046875,0.09621834009885788,0.19480538368225098,-0.07309245318174362
1789799131334905300,1.2249052734375,0.10739988833665848,0.14502744376659393,-0.08713450282812119
1789799131344877300,1.234877197265625,0.1290838122367859,0.11175395548343658,-0.1008501872420311
1789799131354849300,1.244849365234375,0.1835065633058548,0.10095564275979996,-0.10192850232124329
1789799131364821500,1.254821533203125,0.25656256079673767,0.11240331083536148,-0.08007273077964783
1789799131374794200,1.264794189453125,0.32987913489341736,0.14806810021400452,-0.05109940469264984
1789799131384766500,1.274766357421875,0.3970826268196106,0.217731773853302,-0.006518889218568802
1789799131394738400,1.284738525390625,0.44396570324897766,0.3341955244541168,0.05726408585906029
1789799131404710400,1.29471044921875,0.44728416204452515,0.41360530257225037,0.13384555280208588
1789799131414683400,1.304683349609375,0.4071207642555237,0.38540908694267273,0.1884446144104004
1789799131424655400,1.3146552734375,0.34678545594215393,0.2505761384963989,0.231085404753685
1789799131434627300,1.32462744140625,0.3138674795627594,0.15309593081474304,0.2382703423500061
1789799131444599300,1.334599365234375,0.32948699593544006,0.1582188457250595,0.18415838479995728
1789799131454572500,1.344572509765625,0.3919453024864197,0.2416018843650818,0.0976162999868393
1789799131464544300,1.354544189453125,0.40568745136260986,0.24335047602653503,0.052455611526966095
1789799131474516500,1.3645166015625,0.35443517565727234,0.07557320594787598,0.0662904679775238
1789799131484488200,1.37448828125,0.27332159876823425,-0.200213223695755,0.09518510103225708
1789799131494461200,1.384461181640625,0.18286360800266266,-0.4802965521812439,0.09614943712949753
1789799131504433400,1.394433349609375,0.1852923482656479,-0.5942642092704773,0.0571555569767952
1789799131514405400,1.4044052734375,0.22576335072517395,-0.5740055441856384,-0.01346828043460846
1789799131524377300,1.41437744140625,0.23747946321964264,-0.5110052227973938,-0.1137368306517601
1789799131534350300,1.424350341796875,0.2544110417366028,-0.5189467668533325,-0.24694441258907318
1789799131544322300,1.434322265625,0.26581871509552,-0.5615596771240234,-0.3757842779159546
1789799131554294300,1.444294189453125,0.2995263338088989,-0.5967267155647278,-0.45121726393699646
1789799131564266500,1.4542666015625,0.3201727569103241,-0.621315062046051,-0.49358683824539185
1789799131574239200,1.4642392578125,0.31101441383361816,-0.6681171655654907,-0.5208812952041626
1789799131584211500,1.47421142578125,0.31310731172561646,-0.7395274043083191,-0.5305971503257751
1789799131594183400,1.484183349609375,0.3347335159778595,-0.7827052474021912,-0.5123862028121948
1789799131604156200,1.49415625,0.3465333878993988,-0.7558603286743164,-0.485803484916687
1789799131614128400,1.50412841796875,0.3321046531200409,-0.7290937304496765,-0.4647860825061798
1789799131624100000,1.51410009765625,0.26677384972572327,-0.7676734924316406,-0.43459102511405945
1789799131634072300,1.524072265625,0.28618323802948,-1.0922954082489014,-0.2651577889919281
1789799131644045300,1.53404541015625,0.26771196722984314,-1.3620094060897827,-0.09822697937488556
1789799131654017300,1.544017333984375,0.1344497799873352,-1.3027147054672241,-0.16894403100013733
1789799131663989200,1.5539892578125,0.11807568371295929,-1.0918577909469604,-0.21325090527534485
1789799131673961500,1.56396142578125,0.22091764211654663,-0.9678959250450134,-0.15472127497196198
1789799131683934200,1.573934326171875,0.2776728570461273,-0.8691639304161072,-0.20033083856105804
1789799131693906400,1.583906494140625,0.2801107168197632,-0.6643670797348022,-0.31221848726272583
1789799131703878400,1.59387841796875,0.26983344554901123,-0.47461479902267456,-0.35363584756851196
1789799131713850400,1.603850341796875,0.2573956847190857,-0.3417574167251587,-0.31594839692115784
1789799131723823400,1.6138232421875,0.23174433410167694,-0.21206261217594147,-0.27413102984428406
1789799131733795300,1.62379541015625,0.19498498737812042,-0.12802629172801971,-0.2587454319000244
1789799131743767300,1.633767333984375,0.17758354544639587,-0.11599317193031311,-0.2527328133583069
1789799131753740300,1.643740234375,0.17643892765045166,-0.11865739524364471,-0.24349749088287354
1789799131763712500,1.65371240234375,0.1855161339044571,-0.12027852982282639,-0.22410927712917328
1789799131773684200,1.663684326171875,0.19077162444591522,-0.12580539286136627,-0.18020200729370117
1789799131783656400,1.673656494140625,0.17715443670749664,-0.11690079420804977,-0.1282019168138504
1789799131793629400,1.68362939453125,0.15338945388793945,-0.10002034902572632,-0.09088065475225449
1789799131803601200,1.69360107421875,0.1316617876291275,-0.08981653302907944,-0.0760086327791214
1789799131813573400,1.703573486328125,0.11648735404014587,-0.0739360973238945,-0.08321008086204529
1789799131823546400,1.71354638671875,0.11486633121967316,-0.05669514462351799,-0.09997522085905075
1789799131833518300,1.723518310546875,0.12514081597328186,-0.04779618978500366,-0.09024722129106522
1789799131843490300,1.733490234375,0.1299523115158081,-0.043419092893600464,-0.05088423937559128
1789799131853462300,1.743462158203125,0.10141307860612869,-0.055447790771722794,0.003583264071494341
1789799131863435300,1.753435302734375,0.05099010467529297,-0.059413354843854904,0.05704555660486221
1789799131873407500,1.763407470703125,0.01435752585530281,-0.06838713586330414,0.09614316374063492
1789799131883379200,1.773379150390625,0.010496119037270546,-0.06265704333782196,0.11965660005807877
1789799131893352200,1.783352294921875,0.022757578641176224,-0.05207736790180206,0.13007916510105133
1789799131903324400,1.793324462890625,0.030583197250962257,-0.06480632722377777,0.1250668168067932
1789799131913296100,1.803296142578125,0.014188244007527828,-0.09999493509531021,0.11363626271486282
1789799131923268400,1.813268310546875,-0.022979527711868286,-0.13340795040130615,0.10080115497112274
1789799131933241300,1.823241455078125,-0.058963362127542496,-0.16049496829509735,0.09232857078313828
1789799131943213300,1.83321337890625,-0.08014115691184998,-0.16969618201255798,0.09079419076442719
1789799131953185300,1.843185302734375,-0.10090768337249756,-0.15977084636688232,0.10701949894428253
1789799131963158300,1.853158203125,-0.11322788149118423,-0.14227303862571716,0.15461285412311554
1789799131973130200,1.863130126953125,-0.11754992604255676,-0.1388404816389084,0.21835801005363464
1789799131983102200,1.873102294921875,-0.13043083250522614,-0.1520499438047409,0.28223273158073425
1789799131993074400,1.883074462890625,-0.14857947826385498,-0.1687897890806198,0.3231181204319
1789799132003047200,1.893047119140625,-0.16399671137332916,-0.18914832174777985,0.3352798521518707
1789799132013019400,1.903019287109375,-0.17219232022762299,-0.2013826221227646,0.3292275369167328
1789799132022991400,1.912991455078125,-0.17596279084682465,-0.17620804905891418,0.3000076115131378
1789799132032964400,1.92296435546875,-0.16996535658836365,-0.14762994647026062,0.2585616409778595
1789799132042936300,1.932936279296875,-0.17068299651145935,-0.14305390417575836,0.23067951202392578
1789799132052908500,1.942908447265625,-0.17274294793605804,-0.1505104899406433,0.24293218553066254
1789799132062881300,1.95288134765625,-0.17108403146266937,-0.19035004079341888,0.2836506962776184
1789799132072853200,1.962853271484375,-0.1609397828578949,-0.27821093797683716,0.33474719524383545
1789799132082825500,1.972825439453125,-0.14301970601081848,-0.38390564918518066,0.37325531244277954
1789799132092797200,1.982797119140625,-0.12277434766292572,-0.49055004119873047,0.376762717962265
1789799132102770400,1.9927705078125,-0.09490785002708435,-0.594670832157135,0.3521907925605774
1789799132112742400,2.002742431640625,-0.05819005146622658,-0.6855690479278564,0.2926619052886963
1789799132122714400,2.01271435546875,-0.0343523845076561,-0.7143207788467407,0.19436225295066833
1789799132132687400,2.022687255859375,-0.019417110830545425,-0.6752652525901794,0.08089561760425568
1789799132142659300,2.032659423828125,0.0031639302615076303,-0.5910606980323792,-0.020742997527122498
1789799132152631800,2.0426318359375,0.04030410945415497,-0.5242976546287537,-0.10263040661811829
1789799132162604800,2.052604736328125,0.06188712269067764,-0.5315769910812378,-0.1655566394329071
1789799132172576800,2.06257666015625,0.07195387035608292,-0.6076003909111023,-0.20429551601409912
1789799132182548700,2.072548828125,0.07518947869539261,-0.729249119758606,-0.2098279744386673
1789799132192521700,2.082521728515625,0.09566199034452438,-0.8697585463523865,-0.19912578165531158
1789799132202493700,2.09249365234375,0.15471255779266357,-1.0127367973327637,-0.18616072833538055
1789799132212465700,2.102465576171875,0.2276400327682495,-1.1361205577850342,-0.17483669519424438
1789799132222438000,2.11243798828125,0.29492178559303284,-1.259215235710144,-0.17342402040958405
1789799132232410600,2.12241064453125,0.36036282777786255,-1.3917133808135986,-0.1716330349445343
1789799132242382800,2.1323828125,0.4286353886127472,-1.5292984247207642,-0.1463247537612915
1789799132252354800,2.142354736328125,0.5066643953323364,-1.6885451078414917,-0.09909732639789581
1789799132262327600,2.15232763671875,0.59041827917099,-1.8562856912612915,-0.07568667829036713
1789799132272299800,2.1622998046875,0.6885927319526672,-1.973405122756958,-0.09055430442094803
1789799132282271700,2.172271728515625,0.8272764086723328,-2.025056838989258,-0.10116687417030334
1789799132292244700,2.18224462890625,0.9873608946800232,-1.990842580795288,-0.08707955479621887
1789799132302216700,2.192216796875,1.152235984802246,-1.9072365760803223,-0.04961220175027847
1789799132312188700,2.202188720703125,1.323956847190857,-1.8559507131576538,0.02977157011628151
1789799132322161700,2.21216162109375,1.5020124912261963,-1.9153344631195068,0.14870554208755493
1789799132332134000,2.2221337890625,1.7005929946899414,-2.0707437992095947,0.3109373450279236
1789799132342105600,2.232105712890625,1.9189507961273193,-2.173797130584717,0.4478292763233185
1789799132352078600,2.24207861328125,2.1982028484344482,-2.4156241416931152,0.5051535367965698
1789799132362050800,2.25205078125,2.45259952545166,-2.7633793354034424,0.5074641108512878
1789799132372022500,2.2620224609375,2.627716302871704,-3.0405001640319824,0.5073152780532837
1789799132381995800,2.271995849609375,2.7137396335601807,-3.199040174484253,0.5189790725708008
1789799132391967700,2.2819677734375,2.750079393386841,-3.312901020050049,0.4479541778564453
1789799132401939700,2.291939697265625,2.7362160682678223,-3.427504301071167,0.26743990182876587
1789799132411912700,2.30191259765625,2.7415144443511963,-3.5380876064300537,0.05894262716174126
1789799132421884700,2.311884765625,2.8472163677215576,-3.74394154548645,-0.0920087993144989
1789799132431856600,2.321856689453125,3.079812526702881,-4.080700397491455,-0.1599593460559845
1789799132441829600,2.33182958984375,3.400078296661377,-4.475667953491211,-0.18981525301933289
1789799132451801900,2.3418017578125,3.700491428375244,-4.752504348754883,-0.2413538098335266
1789799132461773600,2.351773681640625,3.9459943771362305,-4.791591644287109,-0.3418659269809723
1789799132471746600,2.36174658203125,4.218827724456787,-4.656463623046875,-0.5193322896957397
1789799132481718800,2.37171875,4.662869930267334,-4.5917067527771,-0.6948927044868469
1789799132491690800,2.381690673828125,4.361619472503662,-4.379927158355713,-1.0210310220718384
1789799132501663700,2.391663818359375,3.3884096145629883,-4.753072261810303,-1.624997854232788
1789799132511635700,2.4016357421875,2.580371856689453,-3.384385824203491,-2.2396843433380127
1789799132521607700,2.411607666015625,3.2745096683502197,-0.6795859932899475,-2.5534722805023193
1789799132531580700,2.42158056640625,4.470889568328857,-0.012869506143033504,-2.4416255950927734
1789799132541553000,2.431552978515625,5.292281627655029,-0.1842222660779953,-2.0915415287017822
1789799132551524600,2.441524658203125,5.68671178817749,-0.4821338355541229,-1.5174652338027954
1789799132561497600,2.45149755859375,5.725397109985352,-0.7840496301651001,-0.8525626063346863
1789799132571469800,2.4614697265625,5.534651756286621,-1.3060507774353027,-0.2163027971982956
1789799132581441500,2.471441650390625,5.340765476226807,-1.5102477073669434,0.2575434744358063
1789799132591414800,2.481414794921875,5.239618301391602,-0.9631924033164978,0.6834255456924438
1789799132601386800,2.49138671875,5.181925296783447,0.05765689164400101,0.7888423800468445
1789799132611358700,2.501358642578125,4.840921878814697,1.0460419654846191,0.4879709482192993
1789799132621331700,2.511331787109375,4.494607448577881,1.9546325206756592,-0.020876441150903702
1789799132631303700,2.5213037109375,4.004426002502441,2.83471417427063,-0.46762728691101074
1789799132641275600,2.531275634765625,3.466919422149658,3.0498170852661133,-0.8146135807037354
1789799132651248600,2.54124853515625,3.204831600189209,2.8683547973632812,-1.1170835494995117
1789799132661220900,2.551220947265625,3.078131675720215,3.191460371017456,-1.1707090139389038
1789799132671192600,2.561192626953125,2.8054895401000977,2.974536895751953,-1.2569957971572876
1789799132681165600,2.57116552734375,2.7265090942382812,2.6215388774871826,-1.2862237691879272
1789799132691137800,2.5811376953125,2.5962233543395996,2.6960301399230957,-1.1995762586593628
1789799132701110800,2.59111083984375,2.4417765140533447,2.6220743656158447,-1.0871014595031738
1789799132711082800,2.601082763671875,2.1859703063964844,2.4093058109283447,-0.9141613841056824
1789799132721054700,2.6110546875,1.95150887966156,1.7316927909851074,-0.6938806772232056
1789799132731028000,2.621028076171875,1.8260875940322876,0.9456994533538818,-0.3121738135814667
1789799132740999700,2.630999755859375,1.8077837228775024,0.15868614614009857,0.13078857958316803
1789799132750972000,2.640971923828125,1.8123406171798706,-0.2631354033946991,0.5770822167396545
1789799132760945000,2.65094482421875,1.7257601022720337,-0.725782036781311,0.9485613107681274
1789799132770916600,2.66091650390625,1.6677817106246948,-1.1518206596374512,1.1932225227355957
1789799132780888800,2.670888916015625,1.6979868412017822,-1.3495200872421265,1.1783299446105957
1789799132790861800,2.68086181640625,1.7137620449066162,-0.7912602424621582,0.9104960560798645
1789799132800833800,2.690833740234375,1.6390011310577393,-0.005048560909926891,0.2954429090023041
1789799132810806800,2.700806884765625,1.4667448997497559,0.29383400082588196,-0.2736903131008148
1789799132820778800,2.71077880859375,1.1765034198760986,0.33416202664375305,-0.37036561965942383
1789799132830750700,2.720750732421875,0.8957175016403198,0.09260052442550659,-0.1622409075498581
1789799132840723700,2.7307236328125,0.6969950795173645,-0.3666084408760071,0.18917159736156464
1789799132850696000,2.740696044921875,0.6014690399169922,-0.9386324882507324,0.5257562398910522
1789799132860667600,2.750667724609375,0.5878634452819824,-1.493330478668213,0.8047439455986023
1789799132870640600,2.760640625,0.6609277725219727,-1.878336787223816,1.0277669429779053
1789799132880612900,2.77061279296875,0.7358431816101074,-2.016239881515503,1.1251226663589478
1789799132890585600,2.780585693359375,0.7735373377799988,-2.0730390548706055,1.1497398614883423
1789799132900557800,2.790557861328125,0.7447364926338196,-2.1494429111480713,1.109738826751709
1789799132910529800,2.80052978515625,0.6497684717178345,-2.300825357437134,1.0045008659362793
1789799132920502800,2.810502685546875,0.490450382232666,-2.518066167831421,0.8846312165260315
1789799132930474800,2.820474853515625,0.367692768573761,-2.608659267425537,0.8073497414588928
1789799132940447000,2.830447021484375,0.4057937562465668,-2.691945791244507,0.7519029378890991
1789799132950419700,2.840419677734375,0.3342476785182953,-2.4147591590881348,0.6938756108283997
1789799132960391700,2.8503916015625,0.1771489977836609,-1.9734196662902832,0.6036972999572754
1789799132970364000,2.860364013671875,-0.11129956692457199,-1.6268336772918701,0.46940308809280396
1789799132980336600,2.870336669921875,-0.4944779872894287,-1.411924958229065,0.39425429701805115
1789799132990308900,2.880308837890625,-0.843444287776947,-1.2478705644607544,0.2784435451030731
1789799133000281900,2.89028173828125,-1.1678354740142822,-1.0352684259414673,0.0321984700858593
1789799133010253600,2.900253662109375,-1.5622438192367554,-0.6885814070701599,-0.25379812717437744
1789799133020225800,2.910225830078125,-2.0832481384277344,-0.5613106489181519,-0.40459510684013367
1789799133030198800,2.92019873046875,-2.8543550968170166,-0.8125807046890259,-0.2535075843334198
1789799133040170800,2.930170654296875,-3.435495615005493,-0.8877623677253723,-0.1278119683265686
1789799133050143700,2.940143798828125,-3.5344691276550293,-0.9895899295806885,-0.22599606215953827
1789799133060115700,2.95011572265625,-3.4978652000427246,-0.9090173840522766,-0.5048346519470215
1789799133070087700,2.960087646484375,-3.643505573272705,-0.9605652689933777,-0.6956781148910522
1789799133080060700,2.970060791015625,-3.746953248977661,-1.1994415521621704,-0.641653299331665
1789799133090033000,2.980032958984375,-3.76131534576416,-1.4920969009399414,-0.5905478000640869
1789799133100004600,2.990004638671875,-3.5026769638061523,-1.7642168998718262,-0.5639758110046387
1789799133109977600,2.9999775390625,-3.3270225524902344,-1.7752256393432617,-0.29817691445350647
1789799133119949800,3.00994970703125,-3.2065749168395996,-1.647404670715332,-0.28431886434555054
1789799133129922600,3.019922607421875,-2.873544454574585,-1.4726797342300415,-0.36675649881362915
1789799133139894800,3.029894775390625,-2.466618061065674,-1.769222378730774,-0.26285621523857117
1789799133149866000,3.039865966796875,-1.6025609970092773,-2.2102348804473877,0.04276042431592941
1789799133159839200,3.049839111328125,-0.581964373588562,-2.3142759799957275,0.44022977352142334
1789799133169811200,3.059811279296875,0.04671178013086319,-2.0865838527679443,0.6362480521202087
1789799133179784200,3.0697841796875,0.09257861971855164,-1.7213107347488403,0.6589277386665344
1789799133189756200,3.079756103515625,-0.10209179669618607,-1.5776997804641724,0.6839976906776428
1789799133199728000,3.08972802734375,-0.13070453703403473,-1.416574478149414,0.7067055106163025
1789799133209701400,3.099701416015625,0.10785769671201706,-1.2199630737304688,0.5698890686035156
1789799133219673000,3.109673095703125,0.39099693298339844,-0.828927218914032,0.330830842256546
1789799133229646000,3.11964599609375,0.7311755418777466,-0.07410962879657745,-0.136282816529274
1789799133239618300,3.129618408203125,1.0960090160369873,0.9033894538879395,-0.822456419467926
1789799133249590300,3.13959033203125,1.402769923210144,1.7253080606460571,-1.3476486206054688
1789799133259563300,3.149563232421875,1.4587414264678955,1.7122602462768555,-1.2053391933441162
1789799133269535200,3.15953515625,1.082485556602478,1.0770771503448486,-0.33569860458374023
1789799133279508200,3.16950830078125,0.8364075422286987,0.5630430579185486,0.14203932881355286
1789799133289480200,3.179480224609375,0.8535481691360474,-0.14042191207408905,0.09519832581281662
1789799133299452400,3.189452392578125,1.3468910455703735,-0.2672847509384155,-0.04096990078687668
1789799133309425200,3.199425048828125,1.9344884157180786,0.10506909340620041,-0.5312415957450867
1789799133319397000,3.209397216796875,1.9847334623336792,0.6934029459953308,-0.9268236756324768
1789799133329370400,3.219370361328125,1.7079026699066162,1.1942116022109985,-1.1414201259613037
1789799133339342000,3.229342041015625,1.212998867034912,1.5469492673873901,-1.168137550354004
1789799133349314300,3.239314208984375,0.9094600081443787,1.5148802995681763,-1.0010724067687988
1789799133359287300,3.249287353515625,0.9228097796440125,1.2369462251663208,-0.741875171661377
1789799133369259000,3.259259033203125,0.9294495582580566,1.0206751823425293,-0.5012854337692261
1789799133379232300,3.269232177734375,0.8365895748138428,0.8453661799430847,-0.19780132174491882
1789799133389204200,3.279204345703125,0.8016204237937927,0.7191685438156128,-0.060685548931360245
1789799133399176200,3.28917626953125,0.854947030544281,0.5821743011474609,-0.08142584562301636
1789799133409149200,3.299149169921875,0.9891101717948914,0.7963372468948364,-0.1777672916650772
1789799133419121200,3.30912109375,1.2890597581863403,1.2227863073349,-0.3422887325286865
1789799133429094400,3.319094482421875,1.4067567586898804,1.6232597827911377,-0.49244067072868347
1789799133439066000,3.329066162109375,1.3005151748657227,1.6956883668899536,-0.40093302726745605
1789799133449662200,3.339662109375,1.3863458633422852,1.6363859176635742,-0.12748229503631592
1789799133459635200,3.34963525390625,1.268270492553711,1.4170843362808228,-0.2790691554546356
1789799133469607200,3.359607177734375,1.028279185295105,1.005014419555664,-0.3922324478626251
1789799133479579100,3.3695791015625,0.8076496124267578,0.7496696710586548,-0.37417393922805786
1789799133489552400,3.379552490234375,0.5837214589118958,0.4726596474647522,-0.3570442199707031
1789799133499524000,3.389524169921875,0.25173419713974,-0.22625717520713806,-0.23311777412891388
1789799133509497000,3.3994970703125,-0.04205135628581047,-0.803268313407898,-0.19632859528064728
1789799133519469300,3.40946923828125,-0.26799851655960083,-1.001783013343811,-0.213026762008667
1789799133529441000,3.41944091796875,-0.6900197863578796,-0.6844432353973389,-0.43530911207199097
1789799133539414300,3.429414306640625,-1.442629337310791,-0.944962203502655,-0.6478578448295593
1789799133549386200,3.43938623046875,-1.8391788005828857,-1.0967833995819092,-0.6121925711631775
1789799133559359200,3.449359130859375,-2.7053749561309814,-1.504813313484192,-0.2401699721813202
1789799133569331200,3.459331298828125,-3.485461711883545,-2.7110276222229004,-0.06231554597616196
1789799133579304200,3.46930419921875,-3.6372179985046387,-2.8729052543640137,-0.47022396326065063
1789799133589276400,3.4792763671875,-2.8819069862365723,-2.6003787517547607,-1.0846580266952515
1789799133599248100,3.489248046875,-1.708566427230835,-2.0438132286071777,-1.534004807472229
1789799133609221000,3.49922119140625,-0.6291537284851074,-1.3922795057296753,-1.6246471405029297
1789799133619193300,3.509193359375,-0.16127198934555054,-0.8526970744132996,-1.3023754358291626
1789799133629166000,3.519166015625,-0.17646238207817078,-0.4698309004306793,-0.7561156153678894
1789799133639138300,3.52913818359375,-0.3376345932483673,-0.18882443010807037,-0.1286301165819168
1789799133649111300,3.539111328125,-0.5038214325904846,0.03258279338479042,0.39071130752563477
1789799133659083000,3.5490830078125,-0.6268096566200256,0.16715176403522491,0.706089198589325
1789799133669055200,3.55905517578125,-0.69849693775177,0.1982569545507431,0.7912049293518066
1789799133679028200,3.5690283203125,-0.7304465174674988,0.13493891060352325,0.6503931879997253
1789799133689000200,3.579000244140625,-0.7344226241111755,0.02141154371201992,0.33431968092918396
1789799133698973200,3.58897314453125,-0.6825257539749146,-0.153146892786026,-0.12173160165548325
1789799133708945200,3.598945068359375,-0.6555255651473999,-0.39905571937561035,-0.4854868948459625
1789799133718918100,3.608918212890625,-0.6749542355537415,-0.5510438680648804,-0.6938787698745728
1789799133728890000,3.61889013671875,-0.7168720960617065,-0.5820419788360596,-0.7946639657020569
1789799133738862300,3.6288623046875,-0.7513584494590759,-0.5410174131393433,-0.8019237518310547
1789799133748835000,3.6388349609375,-0.8306780457496643,-0.1865091174840927,-1.360113263130188
1789799133758807300,3.648807373046875,-0.9450568556785583,0.15606889128684998,-1.6251187324523926
1789799133768780300,3.6587802734375,-1.1311308145523071,0.3284017741680145,-1.354703664779663
1789799133778752000,3.668751953125,-1.525689721107483,0.38554179668426514,-1.2639496326446533
1789799133788725200,3.678725341796875,-1.7906688451766968,0.353380411863327,-1.1388617753982544
1789799133798697200,3.688697265625,-1.904671549797058,0.3005519211292267,-0.805277943611145
1789799133808670200,3.698670166015625,-2.058767795562744,0.2409176230430603,-0.32576224207878113
1789799133818642200,3.70864208984375,-2.2509055137634277,0.1923162043094635,0.09793722629547119
1789799133828614100,3.7186142578125,-2.3065264225006104,0.2634790539741516,0.26548734307289124
1789799133838587400,3.72858740234375,-2.141803741455078,0.22352156043052673,0.24875697493553162
1789799133848559000,3.73855908203125,-1.8782365322113037,0.20041437447071075,0.17174021899700165
1789799133858532000,3.748531982421875,-1.7554479837417603,0.13645994663238525,0.09364128112792969
1789799133868504300,3.75850439453125,-1.6531873941421509,0.07751940190792084,0.05208691209554672
1789799133878477000,3.76847705078125,-1.6521775722503662,0.05341983959078789,0.13905003666877747
1789799133888449300,3.77844921875,-1.5255162715911865,0.1237962618470192,0.26551371812820435
1789799133898422300,3.78842236328125,-1.3275913000106812,0.26561567187309265,0.3405357599258423
1789799133908394000,3.79839404296875,-1.210456371307373,0.1607140451669693,0.40990471839904785
1789799133918366200,3.8083662109375,-1.1235766410827637,-0.04296942800283432,0.5381946563720703
1789799133928339200,3.818339111328125,-0.9662330746650696,0.008971532806754112,0.7189505696296692
1789799133938311200,3.828311279296875,-0.7411263585090637,0.15918757021427155,0.8436591625213623
1789799133948284200,3.8382841796875,-0.4755615293979645,0.4357225000858307,0.7647449970245361
1789799133958256000,3.848256103515625,-0.089003786444664,0.47645193338394165,0.640491783618927
1789799133968229400,3.8582294921875,0.17836534976959229,0.491818904876709,0.6201167702674866
1789799133978201000,3.868201171875,0.30640026926994324,0.5597054362297058,0.7259847521781921
1789799133988174000,3.878174072265625,0.5758107304573059,0.5946083068847656,0.7128735184669495
1789799133998146300,3.888146240234375,0.7004852294921875,0.4493257701396942,0.534019947052002
1789799134008119000,3.898119140625,0.8293651938438416,0.15814371407032013,0.48636218905448914
1789799134018091300,3.90809130859375,1.0131272077560425,0.17415979504585266,0.3673023581504822
1789799134028063200,3.918063232421875,1.1360456943511963,0.06662321835756302,0.38543078303337097
1789799134038036200,3.9280361328125,1.0624926090240479,-0.298955500125885,0.30536097288131714
1789799134048008200,3.93800830078125,1.0454028844833374,-0.4084353744983673,0.3645188510417938
1789799134057981200,3.947981201171875,1.2468767166137695,0.17605115473270416,0.20512732863426208
1789799134067953200,3.957953125,1.686481237411499,0.9989221096038818,-0.15526814758777618
1789799134077926100,3.967926025390625,1.886185884475708,1.899713158607483,-0.8375071287155151
1789799134087898400,3.9778984375,1.9804767370224,1.6760505437850952,-1.2629255056381226
1789799134097871400,3.987871337890625,1.4327337741851807,0.8046548962593079,-1.077041506767273
1789799134107843000,3.997843017578125,0.7248098254203796,-0.04505940154194832,-0.48615700006484985
1789799134117816300,4.00781640625,0.6261546611785889,0.30508583784103394,-0.19754862785339355
1789799134127788300,4.017788330078125,0.6291602849960327,1.1592297554016113,0.08665326982736588
1789799134137761000,4.027760986328125,0.6623567342758179,1.2342572212219238,0.29952186346054077
1789799134147732700,4.037732666015625,0.5694619417190552,1.0865652561187744,0.3548104166984558
1789799134157704700,4.04770458984375,0.4247450530529022,1.0265716314315796,0.3441837430000305
1789799134167678000,4.057677978515625,0.32476359605789185,1.1141403913497925,0.20913323760032654
1789799134177649700,4.067649658203125,0.40668314695358276,1.2750861644744873,0.05997265502810478
1789799134187623000,4.077622802734375,0.5605344772338867,1.3451533317565918,-0.11743781715631485
1789799134197595000,4.087594970703125,0.761859118938446,1.549727201461792,-0.20750606060028076
1789799134207568000,4.09756787109375,0.997380793094635,1.9105985164642334,-0.26156580448150635
1789799134217539800,4.107539794921875,1.3368767499923706,2.2641828060150146,-0.326514333486557
1789799134227512800,4.117512939453125,1.467758059501648,2.3237061500549316,-0.3249124586582184
1789799134237485000,4.127485107421875,1.4149235486984253,2.0810272693634033,-0.3258955478668213
1789799134247457800,4.137457763671875,1.3584232330322266,1.6603856086730957,-0.29940855503082275
1789799134257429800,4.1474296875,1.3786348104476929,1.2080793380737305,-0.3029889166355133
1789799134267403000,4.157403076171875,1.299190878868103,0.778662383556366,-0.3720704913139343
1789799134277374700,4.167374755859375,1.2337173223495483,0.4450748860836029,-0.4591212570667267
1789799134287347000,4.177346923828125,1.323623776435852,0.1669396460056305,-0.5943036079406738
1789799134297320000,4.18731982421875,1.3876698017120361,0.04148092120885849,-0.6785702705383301
1789799134307291600,4.197291748046875,1.3536462783813477,-0.033889200538396835,-0.6565179228782654
1789799134317265000,4.207264892578125,1.3438664674758911,0.05121106281876564,-0.5248652100563049
1789799134327236900,4.21723681640625,1.3721561431884766,0.09393269568681717,-0.470188707113266
1789799134337209900,4.2272099609375,1.3528088331222534,-0.10832177847623825,-0.411471426486969
1789799134347181800,4.237181884765625,1.3724305629730225,-0.23796126246452332,-0.4168829917907715
1789799134357154800,4.24715478515625,1.4249249696731567,-0.17885765433311462,-0.47141945362091064
1789799134367127000,4.257126953125,1.431536316871643,-0.0673913061618805,-0.5533193945884705
1789799134377099800,4.267099853515625,1.463915228843689,-0.030566053465008736,-0.6146104335784912
1789799134387071700,4.27707177734375,1.4574288129806519,-0.023242095485329628,-0.6943228244781494
1789799134397045000,4.287044921875,1.4547673463821411,-0.03310215100646019,-0.7710133790969849
1789799134407016700,4.2970166015625,1.4775407314300537,-0.18129482865333557,-0.7774422764778137
1789799134416989700,4.30698974609375,1.5362647771835327,-0.43041476607322693,-0.6870872974395752
1789799134426962000,4.3169619140625,1.5575636625289917,-1.4578303098678589,-0.8053519129753113
1789799134436934700,4.3269345703125,1.482255458831787,-1.6612218618392944,-0.5722402334213257
1789799134446907000,4.336906982421875,1.4124430418014526,-0.997325599193573,-0.22674807906150818
1789799134456879900,4.3468798828125,1.224804401397705,-0.45095789432525635,0.02844254858791828
1789799134466851600,4.3568515625,1.0706957578659058,-0.3611622154712677,0.10030262172222137
1789799134476824800,4.366824951171875,0.9215871095657349,-0.4596182405948639,0.08223533630371094
1789799134486796800,4.376796875,0.7993778586387634,-0.47209087014198303,0.04023275896906853
1789799134496769800,4.386769775390625,0.6476978063583374,-0.42063912749290466,-0.010169567540287971
1789799134506741800,4.39674169921875,0.5777006149291992,-0.3668650984764099,-0.041598863899707794
1789799134516714000,4.4067138671875,0.4753470718860626,-0.2869856059551239,-0.06809011846780777
1789799134526687000,4.41668701171875,0.6290878653526306,-0.14510756731033325,-0.009779142215847969
1789799134536658700,4.42665869140625,0.4669381380081177,-0.11138982325792313,-0.015465524047613144
1789799134546632000,4.4366318359375,0.27693411707878113,-0.08560376614332199,-0.04680054634809494
1789799134556604000,4.44660400390625,0.2641734778881073,-0.0470457449555397,-0.046600546687841415
1789799134566576600,4.45657666015625,0.21861663460731506,-0.04198786988854408,-0.022063512355089188
1789799134576548900,4.466548828125,0.12464305013418198,-0.08188816905021667,-0.0005156099796295166
1789799134586521900,4.47652197265625,0.02849174477159977,-0.1167268455028534,0.025624647736549377
1789799134596493800,4.486493896484375,-0.06838472187519073,-0.1587601602077484,0.05095556378364563
1789799134606466800,4.496466796875,-0.15120770037174225,-0.18978439271450043,0.08873863518238068
1789799134616438800,4.506438720703125,-0.21901573240756989,-0.2034113109111786,0.13136692345142365
1789799134626412000,4.516412109375,-0.2748204171657562,-0.18736684322357178,0.1687595695257187
1789799134636383700,4.5263837890625,-0.310884565114975,-0.13283398747444153,0.20196464657783508
1789799134646356700,4.536356689453125,-0.3519430458545685,-0.0023018058855086565,0.24159914255142212
1789799134656329000,4.546328857421875,-0.366057813167572,0.0961252748966217,0.27543142437934875
1789799134666301700,4.5563017578125,-0.3609221577644348,0.16824926435947418,0.30987754464149475
1789799134676274000,4.56627392578125,-0.35540565848350525,0.18011219799518585,0.3217262327671051
1789799134686247000,4.576246826171875,-0.36236849427223206,0.12849293649196625,0.31205546855926514
1789799134696218600,4.586218505859375,-0.39004698395729065,0.059265006333589554,0.30639106035232544
1789799134706192000,4.59619189453125,-0.4595522880554199,0.013501511886715889,0.3123064637184143
1789799134716163800,4.606163818359375,-0.4947400987148285,-0.1348894238471985,0.3585928976535797
1789799134726136800,4.61613671875,-0.6277329921722412,-0.22417935729026794,0.42861059308052063
1789799134736108800,4.62610888671875,-0.6636999249458313,-0.3643368184566498,0.39282500743865967
1789799134746081800,4.636081787109375,-0.6967334747314453,-0.4646866023540497,0.2882155179977417
1789799134756054000,4.646053955078125,-0.7494874000549316,-0.4933073818683624,0.17341729998588562
1789799134766026800,4.65602685546875,-0.7405844330787659,-0.5143964290618896,0.07250425964593887
1789799134775998700,4.665998779296875,-0.7459701895713806,-0.5948640704154968,-0.00341259827837348
1789799134785972000,4.675971923828125,-0.7113616466522217,-0.6343169212341309,-0.03950988128781319
1789799134795943700,4.685943603515625,-0.7130122184753418,-0.5272835493087769,-0.04873214662075043
1789799134805916700,4.695916748046875,-0.727347195148468,-0.43212831020355225,-0.057008448988199234
1789799134815889000,4.705888916015625,-0.7446904182434082,-0.4098396599292755,-0.09859690815210342
1789799134825862000,4.71586181640625,-0.7461966872215271,-0.3754414916038513,-0.16905829310417175
1789799134835833900,4.725833740234375,-0.7683972120285034,-0.3414529860019684,-0.24556319415569305
1789799134845806800,4.735806884765625,-0.8368892073631287,-0.257538378238678,-0.29928311705589294
1789799134855778800,4.74577880859375,-0.8692678809165955,-0.264723002910614,-0.3280692398548126
1789799134865751800,4.755751708984375,-0.8950068354606628,-0.33001917600631714,-0.32640209794044495
1789799134875723800,4.765723876953125,-0.9163618683815002,-0.35261401534080505,-0.3043118417263031
1789799134885696800,4.77569677734375,-0.9636409878730774,-0.3157545328140259,-0.2804640531539917
1789799134895668700,4.785668701171875,-1.0200653076171875,-0.25576475262641907,-0.2829534411430359
1789799134905641700,4.795641845703125,-1.0675833225250244,-0.18847574293613434,-0.281605064868927
1789799134915614000,4.805614013671875,-1.104123592376709,-0.16156722605228424,-0.3054182529449463
1789799134925587000,4.8155869140625,-1.1252824068069458,-0.13548503816127777,-0.3551464080810547
1789799134935559000,4.825558837890625,-1.1146045923233032,-0.1399267017841339,-0.4056207835674286
1789799134945532000,4.835531982421875,-1.095780849456787,-0.20401646196842194,-0.43508145213127136
1789799134955503900,4.84550390625,-1.0906305313110352,-0.27570807933807373,-0.427895724773407
1789799134965476900,4.855476806640625,-1.112004280090332,-0.29545649886131287,-0.38896775245666504
1789799134975448800,4.86544873046875,-1.1332491636276245,-0.29197853803634644,-0.36597684025764465
1789799134985421800,4.875421875,-1.1655473709106445,-0.24769946932792664,-0.37272873520851135
1789799134995393800,4.885393798828125,-1.185029149055481,-0.21754522621631622,-0.3825937509536743
1789799135005366800,4.89536669921875,-1.1874115467071533,-0.23770110309123993,-0.3911323845386505
1789799135015339000,4.905339111328125,-1.1921478509902954,-0.2881566286087036,-0.3985995054244995
1789799135025311700,4.915311767578125,-1.169631838798523,-0.35382458567619324,-0.4146202802658081
1789799135035283700,4.92528369140625,-1.1325628757476807,-0.4412185549736023,-0.4611664414405823
1789799135045257000,4.935257080078125,-1.1183030605316162,-0.5062092542648315,-0.4849543273448944
1789799135055228700,4.945228759765625,-1.1704245805740356,-0.43782609701156616,-0.48946067690849304
1789799135065201700,4.95520166015625,-1.1808463335037231,-0.32416343688964844,-0.534551739692688
1789799135075174000,4.965173828125,-1.18947434425354,-0.20757783949375153,-0.5756477117538452
1789799135085147000,4.97514697265625,-1.2067495584487915,-0.017003633081912994,-0.5622711777687073
1789799135095118800,4.985118896484375,-1.2157549858093262,0.15352749824523926,-0.5237840414047241
1789799135105091800,4.995091796875,-1.2136290073394775,0.06972901523113251,-0.47087979316711426
1789799135115063800,5.005063720703125,-1.2378227710723877,-0.13510628044605255,-0.393784761428833
1789799135125036800,5.015036865234375,-1.2534148693084717,-0.334360808134079,-0.34385499358177185
1789799135135009800,5.025009765625,-1.2901934385299683,-0.28639253973960876,-0.3329468369483948
1789799135144983800,5.03498388671875,-1.2625088691711426,-0.3345467448234558,-0.3857482671737671
1789799135154956800,5.044956787109375,-1.2493466138839722,-0.25048384070396423,-0.39206525683403015
1789799135164929000,5.054928955078125,-1.2605462074279785,-0.15853208303451538,-0.3773832619190216
1789799135174902000,5.064902099609375,-1.236082673072815,-0.07927630096673965,-0.35639145970344543
1789799135184873700,5.074873779296875,-1.1718264818191528,-0.2803782522678375,-0.35998430848121643
1789799135194847000,5.084846923828125,-1.0954344272613525,-0.35732248425483704,-0.33358731865882874
1789799135204819000,5.09481884765625,-1.0096949338912964,-0.3467603623867035,-0.2750805914402008
1789799135214791700,5.104791748046875,-0.9242391586303711,-0.37115243077278137,-0.1816525161266327
1789799135224764000,5.114763916015625,-0.8209471106529236,-0.4254891872406006,-0.07212682068347931
1789799135234737000,5.12473681640625,-0.7075818181037903,-0.4056466817855835,0.0033211861737072468
1789799135244708900,5.134708984375,-0.6470758318901062,-0.19627854228019714,0.04934833198785782
1789799135254681900,5.144681884765625,-0.5949994325637817,0.043418608605861664,0.10089288651943207
1789799135264653800,5.15465380859375,-0.5105575323104858,0.16778156161308289,0.1822015941143036
1789799135274627000,5.164626953125,-0.4313225746154785,0.20637424290180206,0.19870559871196747
1789799135284598800,5.174598876953125,-0.3624577522277832,0.32345905900001526,0.18151728808879852
1789799135294571800,5.18457177734375,-0.34207484126091003,0.5113166570663452,0.2523286044597626
1789799135304544000,5.1945439453125,-0.21887755393981934,0.3740232288837433,0.2674228549003601
1789799135314516700,5.204516845703125,-0.15191861987113953,0.38333117961883545,0.24304616451263428
1789799135324489000,5.214489013671875,-0.09618665277957916,0.4108711779117584,0.24858447909355164
1789799135334462000,5.2244619140625,-0.011773740872740746,0.3982929289340973,0.2931821644306183
1789799135344433700,5.23443359375,0.10925973951816559,0.37832748889923096,0.31445762515068054
1789799135354407000,5.244406982421875,0.22632373869419098,0.3921459913253784,0.2912040054798126
1789799135364379000,5.25437890625,0.3245605528354645,0.4302307665348053,0.28933045268058777
1789799135374352000,5.264351806640625,0.40170085430145264,0.47310635447502136,0.3136769235134125
1789799135384323800,5.27432373046875,0.4708026945590973,0.5253762006759644,0.3172050714492798
1789799135394296800,5.284296875,0.5357297658920288,0.5502542853355408,0.3235398232936859
1789799135404269800,5.294269775390625,0.6291630268096924,0.6067628264427185,0.29934340715408325
1789799135414241800,5.30424169921875,0.7444403171539307,0.6737267374992371,0.2769319713115692
1789799135424214800,5.31421484375,0.8588992953300476,0.7128730416297913,0.2726384103298187
1789799135434187000,5.32418701171875,0.9726545214653015,0.7427487969398499,0.26778385043144226
1789799135444160000,5.334159912109375,1.0866881608963013,0.7880014777183533,0.272956520318985
1789799135454132000,5.344132080078125,1.1856697797775269,0.821018397808075,0.27583128213882446
1789799135464105000,5.35410498046875,1.2722704410552979,0.8416893482208252,0.26295968890190125
1789799135474077000,5.364076904296875,1.3430044651031494,0.8432843089103699,0.24085184931755066
1789799135484050000,5.3740498046875,1.4061205387115479,0.8059267997741699,0.18891115486621857
1789799135494022000,5.38402197265625,1.4748259782791138,0.7490549087524414,0.10394193232059479
1789799135503995000,5.393994873046875,1.5601859092712402,0.6949570178985596,0.04253077134490013
1789799135513966800,5.403966796875,1.646747350692749,0.6171761751174927,0.00804816372692585
1789799135523939800,5.41393994140625,1.727434515953064,0.5131072998046875,-0.01669500023126602
1789799135533912000,5.423912109375,1.8051893711090088,0.43764907121658325,-0.022915879264473915
1789799135543884800,5.433884765625,1.840882658958435,0.40209242701530457,-0.032245732843875885
1789799135553856800,5.443856689453125,1.8431751728057861,0.41142579913139343,-0.06864608079195023
1789799135563830000,5.453830078125,1.8103357553482056,0.42889267206192017,-0.11994601786136627
1789799135573801700,5.4638017578125,1.7756762504577637,0.46543923020362854,-0.1637950986623764
1789799135583774700,5.473774658203125,1.7659661769866943,0.46864593029022217,-0.19699247181415558
1789799135593748000,5.483748046875,1.7558671236038208,0.46355152130126953,-0.214240163564682
1789799135603720000,5.493719970703125,1.7663215398788452,0.5074909925460815,-0.24102915823459625
1789799135613692700,5.503692626953125,1.7697052955627441,0.5454961061477661,-0.2616139352321625
1789799135623665000,5.513664794921875,1.7598882913589478,0.5703423023223877,-0.28267741203308105
1789799135633638000,5.523637939453125,1.749422550201416,0.563706636428833,-0.3017003834247589
1789799135643609900,5.53360986328125,1.7472970485687256,0.5251866579055786,-0.30894792079925537
1789799135653582800,5.543582763671875,1.729455590248108,0.5309478044509888,-0.31551578640937805
1789799135663554800,5.553554931640625,1.6856292486190796,0.5366983413696289,-0.33318185806274414
1789799135673528000,5.563528076171875,1.6250196695327759,0.4795192778110504,-0.3652716279029846
1789799135683499800,5.573499755859375,1.5666519403457642,0.4089020788669586,-0.3677113652229309
1789799135693472800,5.58347265625,1.4957287311553955,0.32420408725738525,-0.3449128270149231
1789799135703445000,5.593445068359375,1.4447494745254517,0.2896077632904053,-0.322506308555603
1789799135713417700,5.603417724609375,1.3951321840286255,0.18700529634952545,-0.32257434725761414
1789799135723390000,5.613389892578125,1.3411917686462402,0.11176512390375137,-0.31361308693885803
1789799135733363000,5.623363037109375,1.278287649154663,0.07010847330093384,-0.2844946086406708
1789799135743334700,5.633334716796875,1.1994330883026123,-0.0035817306488752365,-0.27374422550201416
1789799135753308000,5.643307861328125,1.1065696477890015,-0.07969974726438522,-0.2649032175540924
1789799135763281000,5.653281005859375,1.0281238555908203,-0.09607286006212234,-0.25554195046424866
1789799135773252900,5.6632529296875,0.9279662370681763,-0.12453573197126389,-0.24113117158412933
1789799135783225900,5.673225830078125,0.8425522446632385,-0.18441878259181976,-0.21577894687652588
1789799135793197800,5.68319775390625,0.7557438611984253,-0.27190282940864563,-0.1786518096923828
1789799135803170800,5.6931708984375,0.6728095412254333,-0.31563830375671387,-0.14191296696662903
1789799135813142800,5.703142822265625,0.6154271960258484,-0.2907273471355438,-0.12141969054937363
1789799135823115800,5.71311572265625,0.5477051138877869,-0.23566675186157227,-0.10391473025083542
1789799135833088000,5.723087890625,0.487308144569397,-0.19514864683151245,-0.08829834312200546
1789799135843061000,5.73306103515625,0.42749008536338806,-0.2039240300655365,-0.07938048243522644
1789799135853032700,5.74303271484375,0.35094311833381653,-0.1841074377298355,-0.07042960077524185
1789799135863006000,5.753005859375,0.295394629240036,-0.1550680696964264,-0.05431374907493591
1789799135872978000,5.76297802734375,0.2391524612903595,-0.14663413166999817,-0.02903929352760315
1789799135882950700,5.77295068359375,0.16591233015060425,-0.15006722509860992,0.008620734326541424
1789799135892923000,5.7829228515625,0.05676362290978432,-0.1595793068408966,0.05065127834677696
1789799135902895900,5.792895751953125,-0.08316445350646973,-0.2032570093870163,0.08077855408191681
1789799135912868900,5.802868896484375,-0.22257010638713837,-0.25977256894111633,0.12923704087734222
1789799135922840800,5.8128408203125,-0.3347427248954773,-0.2745816111564636,0.19736042618751526
1789799135932813800,5.822813720703125,-0.42421695590019226,-0.2251438945531845,0.2587200701236725
1789799135942786000,5.8327861328125,-0.49252915382385254,-0.198530912399292,0.2822722792625427
1789799135952758800,5.8427587890625,-0.55991131067276,-0.17865870893001556,0.2941035032272339
1789799135962731000,5.85273095703125,-0.6522156596183777,-0.083732470870018,0.3099413216114044
1789799135972704000,5.8627041015625,-0.7098435163497925,-0.031150639057159424,0.3311567008495331
1789799135982675700,5.87267578125,-0.8110324144363403,-0.013366850093007088,0.3777441680431366
1789799135992649000,5.88264892578125,-0.9003637433052063,-0.1318708062171936,0.43034398555755615
1789799136002621000,5.892620849609375,-0.8765857219696045,-0.35519418120384216,0.48535025119781494
1789799136012594000,5.902593994140625,-0.8920003771781921,-0.511935830116272,0.5384379029273987
1789799136022566000,5.91256591796875,-0.9166961312294006,-0.606975793838501,0.5521060228347778
1789799136032539000,5.922538818359375,-0.9379837512969971,-0.6772357821464539,0.5052957534790039
1789799136042512000,5.932511962890625,-0.9455643892288208,-0.7511429786682129,0.41508543491363525
1789799136052483800,5.94248388671875,-0.9299216270446777,-0.833919107913971,0.3084411323070526
1789799136062456800,5.952456787109375,-0.895831823348999,-0.8790886998176575,0.22384609282016754
1789799136072429000,5.962428955078125,-0.8699110150337219,-0.7840303778648376,0.1641569286584854
1789799136082401800,5.97240185546875,-0.8889928460121155,-0.6493644714355469,0.1008053869009018
1789799136092373800,5.982373779296875,-0.9117242693901062,-0.5525248050689697,0.043865278363227844
1789799136102347000,5.992346923828125,-0.9378166198730469,-0.5379080772399902,-0.005633031018078327
1789799136112318700,6.002318603515625,-0.9679896235466003,-0.5772392153739929,-0.04739472642540932
1789799136122291700,6.012291748046875,-0.9955338835716248,-0.6417167782783508,-0.05975525826215744
1789799136132264000,6.022263916015625,-1.0388367176055908,-0.6838603615760803,-0.0484384186565876
1789799136142237000,6.03223681640625,-1.0900261402130127,-0.6622239947319031,-0.019931677728891373
1789799136152207600,6.04220751953125,-1.110499620437622,-0.5688666701316833,-0.01643548533320427
1789799136162180600,6.0521806640625,-1.1093875169754028,-0.4550522267818451,-0.05017693713307381
1789799136172153600,6.062153564453125,-1.1181848049163818,-0.39032989740371704,-0.12001913785934448
1789799136182125600,6.07212548828125,-1.156370759010315,-0.405007928609848,-0.18942591547966003
1789799136192098600,6.0820986328125,-1.1917883157730103,-0.44972142577171326,-0.2423442304134369
1789799136202070800,6.09207080078125,-1.229408621788025,-0.5071402192115784,-0.28522220253944397
1789799136212043500,6.10204345703125,-1.264679193496704,-0.5195019841194153,-0.2932093143463135
1789799136222015700,6.112015625,-1.3116933107376099,-0.5006369352340698,-0.2886510491371155
1789799136231988700,6.12198876953125,-1.3783543109893799,-0.40574631094932556,-0.27891984581947327
1789799136241960400,6.13196044921875,-1.4082729816436768,-0.2727206349372864,-0.26956042647361755
1789799136251933700,6.14193359375,-1.4225317239761353,-0.1458130180835724,-0.2742179036140442
1789799136261905700,6.15190576171875,-1.4371535778045654,-0.04426588490605354,-0.3337312936782837
1789799136271878700,6.161878662109375,-1.4396476745605469,0.028060901910066605,-0.404022753238678
1789799136281850600,6.1718505859375,-1.4033479690551758,0.07827107608318329,-0.40254682302474976
1789799136291823600,6.18182373046875,-1.3749109506607056,0.03852441534399986,-0.34004589915275574
1789799136301796600,6.191796630859375,-1.4238876104354858,0.02092784456908703,-0.2710345983505249
1789799136311768600,6.2017685546875,-1.4519315958023071,0.01966758444905281,-0.27841997146606445
1789799136321741600,6.211741455078125,-1.4591114521026611,-0.003070749808102846,-0.3066771626472473
1789799136331713800,6.2217138671875,-1.4264507293701172,-0.09134027361869812,-0.3231838345527649
1789799136341686800,6.231686767578125,-1.4287115335464478,-0.13350345194339752,-0.3025707006454468
1789799136351658500,6.241658447265625,-1.42872953414917,-0.146638885140419,-0.27135181427001953
1789799136361631700,6.2516318359375,-1.4548298120498657,-0.20263397693634033,-0.24383202195167542
1789799136371603700,6.261603759765625,-1.3834998607635498,-0.4843769073486328,-0.2633953392505646
1789799136381576400,6.271576416015625,-1.3307183980941772,-0.629769504070282,-0.2871171832084656
1789799136391548700,6.281548583984375,-1.2764785289764404,-0.7223196625709534,-0.31014564633369446
1789799136401521700,6.291521728515625,-1.2601714134216309,-0.7127056121826172,-0.2972562313079834
1789799136411494700,6.30149462890625,-1.1177061796188354,-0.6942607760429382,-0.2901259958744049
1789799136421466600,6.311466552734375,-1.0228265523910522,-0.6703866124153137,-0.24753914773464203
1789799136431439600,6.321439697265625,-0.9199780821800232,-0.6939145922660828,-0.1770942658185959
1789799136441411800,6.331411865234375,-0.8157736659049988,-0.6538023352622986,-0.06895475089550018
1789799136451384600,6.341384521484375,-0.7023440599441528,-0.47712647914886475,0.034979239106178284
1789799136461356500,6.3513564453125,-0.6303607225418091,-0.283211350440979,0.09162840247154236
1789799136471329800,6.361329833984375,-0.5645161867141724,-0.08561345934867859,0.17132441699504852
1789799136481301500,6.371301513671875,-0.5214414000511169,0.1011257916688919,0.2524743974208832
1789799136491274500,6.3812744140625,-0.4487413465976715,0.21707475185394287,0.3028334677219391
1789799136501246700,6.391246826171875,-0.368647038936615,0.278593510389328,0.2866416871547699
1789799136511219500,6.401219482421875,-0.2825147807598114,0.30043673515319824,0.24708735942840576
1789799136521192400,6.4111923828125,-0.23735688626766205,0.2973130941390991,0.26150891184806824
1789799136531164700,6.42116455078125,-0.1380407065153122,0.31011322140693665,0.2992938458919525
1789799136541137700,6.4311376953125,-0.03719133511185646,0.3774973154067993,0.2911413609981537
1789799136551109600,6.441109619140625,0.07205593585968018,0.506871223449707,0.28571438789367676
1789799136561082600,6.45108251953125,0.1906297206878662,0.6087720394134521,0.2707359790802002
1789799136571054600,6.4610546875,0.2976325452327728,0.627697229385376,0.2395678013563156
1789799136581027600,6.471027587890625,0.3994406759738922,0.6319361925125122,0.1948072612285614
1789799136590999600,6.48099951171875,0.4920538365840912,0.622025728225708,0.1628904789686203
1789799136600972500,6.49097265625,0.6027795672416687,0.6278132796287537,0.13786554336547852
1789799136610944500,6.500944580078125,0.7135708332061768,0.6026623845100403,0.09732583165168762
1789799136620917500,6.51091748046875,0.8419303894042969,0.619570791721344,0.04975458234548569
1789799136630890500,6.520890380859375,0.996507465839386,0.6431621313095093,0.011519055813550949
1789799136640862700,6.53086279296875,1.144654393196106,0.6572281718254089,-0.014674996957182884
1789799136650835500,6.54083544921875,1.2827507257461548,0.6942083835601807,-0.04621975123882294
1789799136660807700,6.5508076171875,1.392483115196228,0.7369401454925537,-0.0690198689699173
1789799136670780700,6.56078076171875,1.491971731185913,0.7793567180633545,-0.09599422663450241
1789799136680752600,6.570752685546875,1.5787873268127441,0.7757081985473633,-0.15078823268413544
1789799136690725600,6.5807255859375,1.6631813049316406,0.7308548092842102,-0.19518432021141052
1789799136700697600,6.590697509765625,1.7690714597702026,0.8092875480651855,-0.19936628639698029
1789799136710670600,6.600670654296875,1.8681825399398804,0.8736458420753479,-0.21499451994895935
1789799136720642600,6.610642578125,1.9468547105789185,0.8653860688209534,-0.24594071507453918
1789799136730615600,6.620615478515625,2.005552053451538,0.8185860514640808,-0.23866017162799835
1789799136740588500,6.630588623046875,2.0515618324279785,0.7550158500671387,-0.22569990158081055
1789799136750560500,6.640560546875,2.071685314178467,0.7075234651565552,-0.2311645746231079
1789799136760533500,6.650533447265625,2.08613920211792,0.7030978202819824,-0.23738278448581696
1789799136770505700,6.660505615234375,2.1072123050689697,0.681404709815979,-0.22050192952156067
1789799136780478700,6.670478759765625,2.1240456104278564,0.6298568248748779,-0.21536442637443542
1789799136790450700,6.68045068359375,2.1360690593719482,0.5789893269538879,-0.20020705461502075
1789799136800423700,6.690423583984375,2.1547327041625977,0.4491434395313263,-0.15112259984016418
1789799136810395600,6.700395751953125,2.1310174465179443,0.3824198246002197,-0.0896601676940918
1789799136820368600,6.71036865234375,2.0847108364105225,0.3827846944332123,-0.04155096039175987
1789799136830340600,6.720340576171875,2.0181808471679688,0.3260739743709564,-0.036561135202646255
1789799136840313600,6.730313720703125,1.9381070137023926,0.2028609961271286,-0.037505488842725754
1789799136850286800,6.740286865234375,1.8718767166137695,0.0925767794251442,-0.02099841833114624
1789799136860258600,6.750258544921875,1.8070558309555054,0.0021984190680086613,-0.011136999353766441
1789799136870231600,6.7602314453125,1.721792221069336,-0.055489785969257355,0.005279925651848316
1789799136880203800,6.770203857421875,1.6059281826019287,-0.1535540372133255,0.0054841903038322926
1789799136890176500,6.780176513671875,1.4949967861175537,-0.23514527082443237,0.023828977718949318
1789799136900148700,6.790148681640625,1.385966181755066,-0.26574552059173584,0.052570611238479614
1789799136910121700,6.800121826171875,1.2740522623062134,-0.2988298237323761,0.07305245101451874
1789799136920093400,6.810093505859375,1.1492054462432861,-0.2729433476924896,0.1048780307173729
1789799136930066700,6.820066650390625,1.0547577142715454,-0.2529899775981903,0.12026430666446686
1789799136940038700,6.83003857421875,0.996425211429596,-0.26566848158836365,0.1186903715133667
1789799136950011600,6.84001171875,0.9138627052307129,-0.3157808184623718,0.10669350624084473
1789799136959984600,6.849984619140625,0.8283424973487854,-0.3959677815437317,0.10138928890228271
1789799136969956600,6.85995654296875,0.7321977615356445,-0.45547381043434143,0.10282418876886368
1789799136979929600,6.8699296875,0.6162786483764648,-0.4197600483894348,0.10544660687446594
1789799136989901600,6.879901611328125,0.5410428643226624,-0.34558042883872986,0.1017119362950325
1789799136999874600,6.88987451171875,0.45184803009033203,-0.30747777223587036,0.09911908209323883
1789799137009846800,6.8998466796875,0.3714486360549927,-0.2656354606151581,0.1230839267373085
1789799137019819800,6.90981982421875,0.2952931523323059,-0.22600311040878296,0.1495448350906372
1789799137029791500,6.91979150390625,0.1982206106185913,-0.19465886056423187,0.16347277164459229
1789799137039764700,6.9297646484375,0.06890496611595154,-0.20960451662540436,0.17195546627044678
1789799137049737700,6.93973779296875,-0.07883825153112411,-0.23150737583637238,0.1794290840625763
1789799137059709400,6.94970947265625,-0.23601028323173523,-0.2574002146720886,0.18051113188266754
1789799137069682700,6.9596826171875,-0.3727571964263916,-0.25767505168914795,0.19247032701969147
1789799137079654700,6.969654541015625,-0.4854975938796997,-0.21144314110279083,0.23141932487487793
1789799137089627400,6.97962744140625,-0.5757904648780823,-0.1529332548379898,0.2747213840484619
1789799137099599600,6.989599609375,-0.6266421675682068,-0.04537829011678696,0.30854564905166626
1789799137109572600,6.999572509765625,-0.6743966341018677,0.15840040147304535,0.33065974712371826
1789799137119544600,7.009544677734375,-0.6886189579963684,0.29114407300949097,0.3251776397228241
1789799137129517600,7.019517578125,-0.6848810911178589,0.32694247364997864,0.3176676332950592
1789799137139489500,7.029489501953125,-0.6847463846206665,0.289368212223053,0.31610435247421265
1789799137149462000,7.0394619140625,-0.7068284153938293,0.2734319865703583,0.30690914392471313
1789799137159435000,7.04943505859375,-0.7548696994781494,0.20229226350784302,0.27024513483047485
1789799137169407200,7.0594072265625,-0.7922651171684265,0.0064671640284359455,0.24852587282657623
1789799137179380200,7.069380126953125,-0.8841284513473511,-0.10657017678022385,0.2936297059059143
1789799137189352000,7.07935205078125,-0.9863637685775757,-0.17940323054790497,0.32322368025779724
1789799137199325200,7.0893251953125,-1.0765036344528198,-0.25925812125205994,0.30139532685279846
1789799137209297200,7.099297119140625,-1.1455504894256592,-0.3758145570755005,0.23076578974723816
1789799137219270000,7.109269775390625,-1.2512120008468628,-0.37256842851638794,0.1646570861339569
1789799137229242000,7.1192421875,-1.2831026315689087,-0.3881766200065613,0.04622550308704376
1789799137239215000,7.129215087890625,-1.2769547700881958,-0.38446125388145447,-0.08918344974517822
1789799137249188000,7.13918798828125,-1.288295030593872,-0.2761382460594177,-0.20147792994976044
1789799137259160000,7.14916015625,-1.2701250314712524,-0.20828652381896973,-0.3021574020385742
1789799137269133000,7.159133056640625,-1.2741155624389648,-0.08400564640760422,-0.36260104179382324
1789799137279105300,7.169105224609375,-1.311207890510559,0.07758298516273499,-0.4203537702560425
1789799137289078000,7.179078125,-1.3647267818450928,0.24341045320034027,-0.4838765859603882
1789799137299050000,7.189050048828125,-1.4263070821762085,0.2960968315601349,-0.5561281442642212
1789799137309023200,7.199023193359375,-1.4626944065093994,0.21118129789829254,-0.6362575888633728
1789799137318995000,7.208994873046875,-1.4546959400177002,0.05360499396920204,-0.6627464890480042
1789799137328968000,7.218968017578125,-1.438366174697876,-0.03571262210607529,-0.6407116055488586
1789799137338941200,7.228941162109375,-1.416557788848877,0.08860480040311813,-0.6464195847511292
1789799137348913200,7.2389130859375,-1.4253555536270142,0.33596640825271606,-0.6670098900794983
1789799137358886000,7.248885986328125,-1.4508228302001953,0.4903471767902374,-0.6424792408943176
1789799137368858000,7.258858154296875,-1.48134183883667,0.3940905034542084,-0.6194890141487122
1789799137378831000,7.2688310546875,-1.5258443355560303,0.09609929472208023,-0.6123021841049194
1789799137388803000,7.278802978515625,-1.589522123336792,-0.25045427680015564,-0.6161112785339355
1789799137398776000,7.288776123046875,-1.606126070022583,-0.5273351073265076,-0.6358327865600586
1789799137408748000,7.298748046875,-1.6758430004119873,-0.5668601393699646,-0.634517252445221
1789799137418721000,7.308720947265625,-1.6898152828216553,-0.5268579125404358,-0.6312080025672913
1789799137428693000,7.31869287109375,-1.649118423461914,-0.5936102271080017,-0.6417058706283569
1789799137438666000,7.328666015625,-1.6352089643478394,-0.6534786224365234,-0.6212027072906494
1789799137448639200,7.33863916015625,-1.6120504140853882,-0.6967402100563049,-0.5859607458114624
1789799137458611000,7.34861083984375,-1.5799121856689453,-0.8634673953056335,-0.5721714496612549
1789799137468584000,7.358583984375,-1.5904755592346191,-0.9369063377380371,-0.5584693551063538
1789799137478556200,7.36855615234375,-1.5799281597137451,-0.9806735515594482,-0.5317977666854858
1789799137488529000,7.37852880859375,-1.538275957107544,-1.0270707607269287,-0.4918181300163269
1789799137498501000,7.388501220703125,-1.4932200908660889,-1.0438228845596313,-0.44169557094573975
1789799137508474000,7.39847412109375,-1.4642030000686646,-0.9299570918083191,-0.3652937412261963
1789799137518446000,7.408446044921875,-1.3929952383041382,-0.9479105472564697,-0.35856127738952637
1789799137528419000,7.418419189453125,-1.3368937969207764,-0.9090694189071655,-0.3781859874725342
1789799137538392000,7.42839208984375,-1.2576695680618286,-0.767429769039154,-0.3902130722999573
1789799137548364300,7.4383642578125,-1.142948031425476,-0.5778695344924927,-0.34537753462791443
1789799137558337000,7.4483369140625,-0.991894006729126,-0.38182732462882996,-0.2479916214942932
1789799137568309000,7.45830908203125,-0.8845712542533875,-0.2366410195827484,-0.13667574524879456
1789799137578282200,7.4682822265625,-0.7614610195159912,-0.12173200398683548,-0.03834943473339081
1789799137588254000,7.47825390625,-0.6535611152648926,-0.009958102367818356,0.07119103521108627
1789799137598227000,7.48822705078125,-0.5292996764183044,0.09924135357141495,0.130173921585083
1789799137608199200,7.49819921875,-0.3932035565376282,0.2531198561191559,0.06472355127334595
1789799137618172200,7.508172119140625,-0.247845858335495,0.28465035557746887,-0.02366197295486927
1789799137628144000,7.51814404296875,-0.14387768507003784,0.20276136696338654,-0.04793522506952286
1789799137638117000,7.5281171875,-0.03837709128856659,0.15434882044792175,-0.03963282331824303
1789799137648090000,7.538090087890625,0.05733976885676384,0.11658433079719543,-0.02228059060871601
1789799137658062000,7.54806201171875,0.12760673463344574,0.21494072675704956,-0.0012128553353250027
1789799137668035000,7.55803515625,0.3007473349571228,0.07889087498188019,-0.015856517478823662
1789799137678007000,7.568007080078125,0.39307379722595215,0.05076470226049423,-0.003691995982080698
1789799137687980300,7.577980224609375,0.5418215990066528,0.09019488096237183,0.0030999938026070595
1789799137697952000,7.587951904296875,0.6991233229637146,0.13583239912986755,0.015268776565790176
1789799137707925000,7.597925048828125,0.8431575298309326,0.22685132920742035,0.039359599351882935
1789799137717897200,7.607897216796875,0.9544718265533447,0.3089967966079712,0.057963114231824875
1789799137727870000,7.617869873046875,1.0376431941986084,0.3784562647342682,0.07179916650056839
1789799137737843000,7.627843017578125,1.1271699666976929,0.4912768304347992,0.07148757576942444
1789799137747815200,7.637815185546875,1.2169697284698486,0.5625705122947693,0.08453813195228577
1789799137757788200,7.6477880859375,1.3050018548965454,0.5992746949195862,0.13770067691802979
1789799137767760100,7.657760009765625,1.4076597690582275,0.6358973383903503,0.209672749042511
1789799137777733000,7.667733154296875,1.5262993574142456,0.7129170298576355,0.28075945377349854
1789799137787705000,7.677705078125,1.6428275108337402,0.799957275390625,0.3465062081813812
1789799137797678000,7.687677978515625,1.7544695138931274,0.8561710119247437,0.40517833828926086
1789799137807650000,7.697650146484375,1.8409488201141357,0.8957578539848328,0.45719626545906067
1789799137817623000,7.707623046875,1.8987153768539429,0.8343024849891663,0.5119503736495972
1789799137827595000,7.717594970703125,1.9521151781082153,0.7237922549247742,0.5453632473945618
1789799137837568000,7.727568115234375,2.0048394203186035,0.6680943369865417,0.5465047359466553
1789799137847541000,7.737541015625,2.0781824588775635,0.6558399796485901,0.5302443504333496
1789799137857513200,7.74751318359375,2.1452953815460205,0.6743758320808411,0.5038902759552002
1789799137867486000,7.75748583984375,2.203878164291382,0.6724008321762085,0.4720015525817871
1789799137877458200,7.767458251953125,2.251499652862549,0.601214587688446,0.44475582242012024
1789799137887431200,7.77743115234375,2.2831921577453613,0.5272354483604431,0.42110803723335266
1789799137897403000,7.78740283203125,2.2690792083740234,0.4596790671348572,0.38278141617774963
1789799137907376000,7.797376220703125,2.2157273292541504,0.39774051308631897,0.3110804557800293
1789799137917348000,7.80734814453125,2.1678006649017334,0.3418239951133728,0.28075769543647766
1789799137927321000,7.817321044921875,2.1151812076568604,0.2571185231208801,0.2640559673309326
1789799137937294000,7.827294189453125,2.035519599914551,0.1271117627620697,0.24515657126903534
1789799137947266000,7.83726611328125,1.9309531450271606,0.018126344308257103,0.23597146570682526
1789799137957239000,7.847239013671875,1.8111993074417114,-0.08363384008407593,0.22470523416996002
1789799137967211000,7.8572109375,1.7238448858261108,-0.19193746149539948,0.22599554061889648
1789799137977184000,7.86718408203125,1.6214537620544434,-0.25782352685928345,0.21433115005493164
1789799137987156200,7.87715625,1.5130748748779297,-0.32416489720344543,0.17977383732795715
1789799137997129000,7.88712890625,1.404032826423645,-0.4000498056411743,0.17448905110359192
1789799138007101200,7.89710107421875,1.2587319612503052,-0.43998628854751587,0.19558222591876984
1789799138017074200,7.90707421875,1.158555269241333,-0.43409350514411926,0.21395191550254822
1789799138027046000,7.9170458984375,1.0956720113754272,-0.3529593050479889,0.21588976681232452
1789799138037019100,7.92701904296875,1.0315465927124023,-0.21410740911960602,0.20247782766819
1789799138046992100,7.9369921875,0.9710222482681274,-0.22001078724861145,0.1807849109172821
1789799138056964000,7.946964111328125,0.9002793431282043,-0.31442463397979736,0.1866031140089035
1789799138066937000,7.95693701171875,0.8335494995117188,-0.3267623782157898,0.20268861949443817
1789799138076909000,7.966908935546875,0.732888400554657,-0.2920589745044708,0.21437589824199677
1789799138086882000,7.976882080078125,0.5913522839546204,-0.29225897789001465,0.20661836862564087
1789799138096854000,7.98685400390625,0.46675148606300354,-0.28654730319976807,0.20735207200050354
1789799138106827000,7.996826904296875,0.36879000067710876,-0.2948901355266571,0.19721102714538574
1789799138116799200,8.00679931640625,0.25993940234184265,-0.2720383405685425,0.18113885819911957
1789799138126772200,8.016772216796875,0.13162346184253693,-0.17046961188316345,0.16748827695846558
1789799138136745000,8.026744873046875,0.008503127843141556,-0.13254380226135254,0.13546748459339142
1789799138146717400,8.036717529296874,-0.12109388411045074,-0.09435320645570755,0.09221909195184708
1789799138156690400,8.0466904296875,-0.2410850077867508,-0.024312343448400497,0.05926833301782608
1789799138166662400,8.056662353515625,-0.34710851311683655,0.06434569507837296,0.05648040026426315
1789799138176635400,8.066635498046875,-0.44588223099708557,0.14637452363967896,0.07132832705974579
1789799138186607400,8.076607421875,-0.5190131664276123,0.18107923865318298,0.08425131440162659
1789799138196580400,8.086580322265625,-0.5752346515655518,0.17351959645748138,0.07833217829465866
1789799138206552600,8.096552490234375,-0.6006710529327393,0.14994370937347412,0.06748764961957932
1789799138216525600,8.106525634765624,-0.6174545288085938,0.15029604732990265,0.0654897466301918
1789799138226497500,8.11649755859375,-0.622992753982544,0.17790499329566956,0.06458546966314316
1789799138236470500,8.126470458984375,-0.6429843306541443,0.21820475161075592,0.03890034556388855
1789799138246443500,8.136443603515625,-0.6795828342437744,0.2653999626636505,-0.002262803725898266
1789799138256415500,8.14641552734375,-0.7340021133422852,0.2801426947116852,-0.021911073476076126
1789799138266388500,8.156388427734376,-0.8182793855667114,0.30558061599731445,-0.009322714060544968
1789799138276360400,8.1663603515625,-0.9205865859985352,0.33748024702072144,0.011052332818508148
1789799138286333400,8.17633349609375,-1.0370302200317383,0.32615453004837036,0.015035762451589108
1789799138296305400,8.186305419921876,-1.1465668678283691,0.28270772099494934,0.0015548414085060358
1789799138306278400,8.1962783203125,-1.2619551420211792,0.21228346228599548,-0.03172629326581955
1789799138316250600,8.206250732421875,-1.3797236680984497,0.1478046029806137,-0.06656390428543091
1789799138326223400,8.216223388671875,-1.4534984827041626,0.05928525701165199,-0.09320962429046631
1789799138336195600,8.226195556640626,-1.5021954774856567,-0.06614377349615097,-0.1015319973230362
1789799138346168600,8.23616845703125,-1.5099800825119019,-0.23359310626983643,-0.09033381193876266
1789799138356141600,8.2461416015625,-1.5099244117736816,-0.3603678345680237,-0.08915828913450241
1789799138366113500,8.256113525390624,-1.5283875465393066,-0.37405627965927124,-0.0996728464961052
1789799138376086500,8.26608642578125,-1.530999779701233,-0.31238651275634766,-0.10975610464811325
1789799138386058500,8.27605859375,-1.5238665342330933,-0.2272692322731018,-0.1401738077402115
1789799138396031500,8.286031494140625,-1.5405794382095337,-0.13866984844207764,-0.18856237828731537
1789799138406003500,8.29600341796875,-1.54787278175354,-0.024067629128694534,-0.22949889302253723
1789799138415976400,8.3059765625,-1.5341497659683228,0.0014443887630477548,-0.24802491068840027
1789799138425948400,8.315948486328125,-1.492557406425476,-0.10980125516653061,-0.2032242715358734
1789799138435921400,8.32592138671875,-1.5057352781295776,-0.24965423345565796,-0.12528632581233978
1789799138445893600,8.3358935546875,-1.5404772758483887,-0.25176024436950684,-0.10371458530426025
1789799138455866400,8.345866455078125,-1.5507179498672485,-0.10151989012956619,-0.1325339823961258
1789799138465839400,8.35583935546875,-1.5446819067001343,-0.03574324771761894,-0.1667698472738266
1789799138475811600,8.3658115234375,-1.5253537893295288,-0.15248052775859833,-0.1731177568435669
1789799138485784600,8.37578466796875,-1.558830738067627,-0.3769438862800598,-0.15593890845775604
1789799138495756300,8.38575634765625,-1.614052414894104,-0.5522712469100952,-0.1472785770893097
1789799138505729500,8.3957294921875,-1.6543428897857666,-0.6207614541053772,-0.16161224246025085
1789799138515701500,8.405701416015624,-1.6803470849990845,-0.6508791446685791,-0.21699641644954681
1789799138525674200,8.41567431640625,-1.7344807386398315,-0.6387673020362854,-0.26414647698402405
1789799138535646500,8.425646484375,-1.7454913854599,-0.6100184917449951,-0.2989119291305542
1789799138545619500,8.435619384765625,-1.7442643642425537,-0.6594765782356262,-0.32425457239151
1789799138555592400,8.445592529296874,-1.7364118099212646,-0.7204093933105469,-0.3210049867630005
1789799138565564400,8.455564453125,-1.6776641607284546,-0.7702444195747375,-0.2905929982662201
1789799138575537400,8.465537353515625,-1.6503115892410278,-0.739568829536438,-0.23408950865268707
1789799138585509600,8.475509521484375,-1.5543467998504639,-0.8033767342567444,-0.22656035423278809
1789799138595482400,8.485482421875,-1.4410284757614136,-0.8385884761810303,-0.225725457072258
1789799138605454300,8.495454345703125,-1.3080443143844604,-0.8351842761039734,-0.19948944449424744
1789799138615427600,8.505427490234375,-1.1845463514328003,-0.7906320095062256,-0.13300736248493195
1789799138625399300,8.5153994140625,-1.0742472410202026,-0.7229667901992798,-0.030992452055215836
1789799138635372300,8.525372314453126,-0.9389395117759705,-0.584656834602356,0.05833129957318306
1789799138645344500,8.535344482421875,-0.8217266798019409,-0.38718557357788086,0.06140446662902832
1789799138655317500,8.5453173828125,-0.7059944868087769,-0.2887868285179138,0.019195761531591415
1789799138665290200,8.555290283203124,-0.6088493466377258,-0.2492700070142746,0.07213513553142548
1789799138675262500,8.565262451171876,-0.4936559200286865,-0.19295214116573334,0.10634317249059677
1789799138685235500,8.5752353515625,-0.36431023478507996,-0.06921645998954773,0.10840072482824326
1789799138695207400,8.58520751953125,-0.23865163326263428,0.07342404872179031,0.14041565358638763
1789799138705180400,8.595180419921874,-0.12825381755828857,0.18231195211410522,0.14732550084590912
1789799138715152400,8.60515234375,-0.00662059523165226,0.24654366075992584,0.09894385188817978
1789799138725125600,8.615125732421875,0.11195719987154007,0.3497432768344879,0.03216787427663803
1789799138735097300,8.625097412109374,0.24465373158454895,0.4786919355392456,0.010305453091859818
1789799138745070300,8.6350703125,0.3787446618080139,0.5789042115211487,0.028650907799601555
1789799138755042600,8.64504248046875,0.5120901465415955,0.5842510461807251,0.06762760877609253
1789799138765015300,8.655015380859375,0.6327118277549744,0.5201495289802551,0.0793692097067833
1789799138774988300,8.66498828125,0.7598043084144592,0.47079402208328247,0.05659971758723259
1789799138784960500,8.67496044921875,0.9051127433776855,0.5269284248352051,0.02593940496444702
1789799138794933500,8.68493359375,1.074857473373413,0.6359683275222778,0.005497513338923454
1789799138804905500,8.694905517578125,1.2446343898773193,0.7121304273605347,0.008467737585306168
1789799138814878500,8.70487841796875,1.4032487869262695,0.7308726906776428,0.039495959877967834
1789799138824850400,8.714850341796875,1.5364075899124146,0.7084380984306335,0.06365509331226349
1789799138834823400,8.724823486328125,1.6420594453811646,0.7236207723617554,0.0631035566329956
1789799138844795400,8.73479541015625,1.7387633323669434,0.8046751022338867,0.04805935174226761
1789799138854768600,8.7447685546875,1.842504620552063,0.8741047978401184,0.03981633484363556
1789799138864740400,8.754740234375,1.936429738998413,0.864951491355896,0.04453280195593834
1789799138874713300,8.76471337890625,2.0315101146698,0.8271239399909973,0.03664851561188698
1789799138884685600,8.774685546875,2.1194992065429688,0.7884436249732971,0.03014107421040535
1789799138894658600,8.784658447265626,2.1844942569732666,0.7357726693153381,0.04325208440423012
1789799138904631300,8.79463134765625,2.2366533279418945,0.6715378761291504,0.03370000049471855
1789799138914603500,8.804603515625,2.2923734188079834,0.6321318745613098,0.00940611120313406
1789799138924576500,8.814576416015624,2.345196485519409,0.6640602350234985,-0.0009052511304616928
1789799138934548500,8.824548583984376,2.3826346397399902,0.6530815958976746,-0.0001944531686604023
1789799138944521500,8.834521484375,2.377283811569214,0.49189624190330505,0.011688172817230225
1789799138954493400,8.844493408203125,2.337096691131592,0.33806511759757996,0.037202585488557816
1789799138964466400,8.854466552734374,2.3082475662231445,0.29051443934440613,0.06741081923246384
1789799138974438400,8.8644384765625,2.296800136566162,0.3668992221355438,0.07052832096815109
1789799138984411400,8.874411376953125,2.237549066543579,0.32618314027786255,0.024392783641815186
1789799138994383400,8.88438330078125,2.1602957248687744,0.21278811991214752,0.014335356652736664
1789799139004356400,8.8943564453125,2.063598871231079,0.08863314241170883,0.04883180558681488
1789799139014329300,8.904329345703125,1.963418960571289,-0.07611319422721863,0.07227614521980286
1789799139024301600,8.914301513671875,1.8476873636245728,-0.1969136893749237,0.0751158744096756
1789799139034274300,8.9242744140625,1.7021673917770386,-0.2914431393146515,0.06871762871742249
1789799139044246500,8.93424658203125,1.5441123247146606,-0.3124869167804718,0.06586112082004547
1789799139054219500,8.944219482421875,1.420654296875,-0.33502256870269775,0.06982897222042084
1789799139064191200,8.954191162109375,1.3059930801391602,-0.35533395409584045,0.09824809432029724
1789799139074164500,8.96416455078125,1.2181463241577148,-0.3785223662853241,0.1157945990562439
1789799139084136400,8.974136474609375,1.1227688789367676,-0.3876616954803467,0.12549342215061188
1789799139094109400,8.984109375,1.0297974348068237,-0.41426029801368713,0.14504475891590118
1789799139104081400,8.994081298828124,0.9771620631217957,-0.43226200342178345,0.16218899190425873
1789799139114054400,9.004054443359376,0.9184196591377258,-0.46316906809806824,0.15478487312793732
1789799139124026600,9.014026611328125,0.8028862476348877,-0.4336475729942322,0.14119715988636017
1789799139133999400,9.023999267578125,0.7070670127868652,-0.30982738733291626,0.11873020976781845
1789799139143972400,9.033972412109375,0.6393138766288757,-0.197498619556427,0.08001875877380371
1789799139153944800,9.04394482421875,0.5031656622886658,-0.13686296343803406,0.04856016859412193
1789799139163917800,9.053917724609375,0.362578809261322,-0.09552688151597977,0.0386020727455616
1789799139173889500,9.0638896484375,0.21348467469215393,-0.04969654604792595,0.03180195763707161
1789799139183862800,9.07386279296875,0.04311760142445564,-0.018608348444104195,0.015897033736109734
1789799139193834800,9.083834716796876,-0.1488206684589386,0.02883346937596798,0.0012379300314933062
1789799139203807500,9.093807373046875,-0.3110487163066864,0.05038190260529518,0.0006528336089104414
1789799139213779700,9.10377978515625,-0.44691202044487,0.04915844649076462,0.020550640299916267
1789799139223752700,9.113752685546874,-0.5301656723022461,0.009529956616461277,0.06829246133565903
1789799139233724700,9.123724609375,-0.5843330025672913,-0.019230050966143608,0.12069734930992126
1789799139243697700,9.13369775390625,-0.6324183344841003,-0.006129511632025242,0.1641370952129364
1789799139253669600,9.143669677734374,-0.6974071860313416,0.07552194595336914,0.19538235664367676
1789799139263643000,9.153642822265626,-0.7665768265724182,0.14102961122989655,0.2000046968460083
1789799139273615600,9.16361572265625,-0.8027385473251343,0.1285468488931656,0.2001626193523407
1789799139283587600,9.173587646484375,-0.8866626024246216,0.11821159720420837,0.23538929224014282
1789799139293560800,9.183560791015625,-0.95613032579422,0.04818723723292351,0.27955836057662964
1789799139303532500,9.193532470703126,-1.0090711116790771,-0.010919561609625816,0.3127361536026001
1789799139313505500,9.203505615234375,-1.1039007902145386,-0.026178674772381783,0.3232588469982147
1789799139323477800,9.213477783203125,-1.1811485290527344,-0.10276905447244644,0.286361426115036
1789799139333450800,9.22345068359375,-1.2405623197555542,-0.17920923233032227,0.2401188313961029
1789799139343422700,9.233422607421875,-1.2546370029449463,-0.24288764595985413,0.19203998148441315
1789799139353395700,9.243395751953125,-1.305837631225586,-0.18931922316551208,0.16191695630550385
1789799139363367700,9.25336767578125,-1.369293212890625,-0.14696066081523895,0.11816015839576721
1789799139373340700,9.263340576171874,-1.4371215105056763,-0.1414063721895218,0.0728648453950882
1789799139383312600,9.273312744140625,-1.4920728206634521,-0.17760314047336578,0.0359003059566021
1789799139393285600,9.28328564453125,-1.516735553741455,-0.21162022650241852,0.012123603373765945
1789799139403259000,9.2932587890625,-1.544127106666565,-0.2601009011268616,-0.0055840215645730495
1789799139413230600,9.303230712890626,-1.5909286737442017,-0.27179643511772156,-0.031563956290483475
1789799139423203600,9.31320361328125,-1.6812270879745483,-0.19777177274227142,-0.11818420886993408
1789799139433175800,9.32317578125,-1.7173084020614624,-0.0012443457962945104,-0.22942258417606354
1789799139443148500,9.3331484375,-1.7351096868515015,0.18147194385528564,-0.32710960507392883
1789799139453120800,9.343120849609376,-1.734747052192688,0.17828279733657837,-0.35917937755584717
1789799139463093800,9.35309375,-1.7180168628692627,0.020442163571715355,-0.33401355147361755
1789799139473065700,9.363065673828125,-1.717933177947998,-0.14393159747123718,-0.28437089920043945
1789799139483038700,9.373038818359374,-1.7141249179840088,-0.11924951523542404,-0.25352057814598083
1789799139493010700,9.3830107421875,-1.687949776649475,-0.015254412777721882,-0.28243958950042725
1789799139502984000,9.39298388671875,-1.6697176694869995,0.05164997652173042,-0.32819870114326477
1789799139512955600,9.40295556640625,-1.654598593711853,0.02045370638370514,-0.3759813904762268
1789799139522928600,9.4129287109375,-1.67790949344635,-0.053753312677145004,-0.3637255132198334
1789799139532900900,9.42290087890625,-1.6593462228775024,-0.23111771047115326,-0.35150372982025146
1789799139542873600,9.43287353515625,-1.6738725900650024,-0.30718424916267395,-0.32372844219207764
1789799139552846600,9.4428466796875,-1.6695268154144287,-0.453853040933609,-0.354967325925827
1789799139562818800,9.45281884765625,-1.6625051498413086,-0.6210781335830688,-0.38429149985313416
1789799139572791800,9.462791748046875,-1.6375515460968018,-0.8099269270896912,-0.4022497236728668
1789799139582763800,9.472763671875,-1.6256680488586426,-0.8567093014717102,-0.38420534133911133
1789799139592736800,9.48273681640625,-1.628021478652954,-0.8205675482749939,-0.3531169593334198
1789799139602708700,9.492708740234375,-1.5279669761657715,-1.0396671295166016,-0.3672347664833069
1789799139612681700,9.502681640625,-1.463173270225525,-1.2931199073791504,-0.37037304043769836
1789799139622653700,9.51265380859375,-1.4153378009796143,-1.4603095054626465,-0.36200326681137085
1789799139632626700,9.522626708984374,-1.3403985500335693,-1.475293755531311,-0.3179186284542084
1789799139642598700,9.5325986328125,-1.253902554512024,-1.3587713241577148,-0.24353225529193878
1789799139652571600,9.542571533203125,-1.1379899978637695,-1.1959447860717773,-0.17331695556640625
1789799139662544000,9.5525439453125,-0.9949522614479065,-0.9337281584739685,-0.08789846301078796
1789799139672516600,9.5625166015625,-0.833451509475708,-0.6565868258476257,-0.020143914967775345
1789799139682488600,9.572488525390625,-0.6890826225280762,-0.47987034916877747,0.02990686148405075
1789799139692461800,9.5824619140625,-0.5704167485237122,-0.40163812041282654,0.09011321514844894
1789799139702434800,9.592434814453124,-0.47467291355133057,-0.31011977791786194,0.1266585737466812
1789799139712406500,9.602406494140626,-0.3871292173862457,-0.1651359647512436,0.11956577748060226
1789799139722379800,9.6123798828125,-0.27905789017677307,-0.00143239158205688,0.15032927691936493
1789799139732351700,9.622351806640625,-0.17372852563858032,0.13173231482505798,0.21469122171401978
1789799139742324500,9.632324462890624,-0.031301259994506836,0.25019392371177673,0.24799805879592896
1789799139752296700,9.642296630859375,0.13605977594852448,0.348500519990921,0.2389206737279892
1789799139762269700,9.652269775390625,0.3023826777935028,0.40785109996795654,0.21195895969867706
1789799139772241700,9.66224169921875,0.4685833752155304,0.49434763193130493,0.21143405139446259
1789799139782214700,9.672214599609376,0.6336005926132202,0.636276125907898,0.23465308547019958
1789799139792186600,9.6821865234375,0.782820463180542,0.7727087736129761,0.2518121004104614
1789799139802159900,9.692159912109375,0.9274322390556335,0.8588671088218689,0.23689159750938416
1789799139812131600,9.702131591796874,1.0799418687820435,0.8779792785644531,0.20642104744911194
1789799139822104600,9.7121044921875,1.2199898958206177,0.8357288241386414,0.17604278028011322
1789799139832076800,9.722076904296875,1.3326748609542847,0.6956148743629456,0.1546810418367386
1789799139842049500,9.732049560546875,1.4457101821899414,0.6747130155563354,0.14974099397659302
1789799139852022500,9.7420224609375,1.5783932209014893,0.7681137919425964,0.13125571608543396
1789799139861994800,9.751994873046876,1.7016621828079224,0.8115568161010742,0.12781386077404022
1789799139871967700,9.7619677734375,1.7765315771102905,0.7206612825393677,0.12606441974639893
1789799139881939700,9.771939697265625,1.8243921995162964,0.6476941704750061,0.107508584856987
1789799139891912700,9.78191259765625,1.8953795433044434,0.6294166445732117,0.06565327942371368
1789799139901884700,9.791884765625,2.006028413772583,0.6889486908912659,0.014239751733839512
1789799139911857700,9.801857666015625,2.102238893508911,0.7675793170928955,-0.008312694728374481
1789799139921829600,9.81182958984375,2.16001558303833,0.8350052237510681,-0.0231986902654171
1789799139931802600,9.821802734375,2.210735321044922,0.88896644115448,-0.04451010376214981
1789799139941774600,9.831774658203125,2.295044183731079,0.9418572187423706,-0.0718890056014061
1789799139951747600,9.84174755859375,2.3787293434143066,0.956409215927124,-0.10337582230567932
1789799139961719800,9.8517197265625,2.4101059436798096,0.8776631951332092,-0.1290067434310913
1789799139971692800,9.86169287109375,2.4190919399261475,0.8287084102630615,-0.16826307773590088
1789799139981664800,9.871664794921875,2.4169158935546875,0.7308187484741211,-0.212727889418602
1789799139991637800,9.8816376953125,2.408247232437134,0.7178494334220886,-0.22988663613796234
1789799140001609700,9.891609619140626,2.3506052494049072,0.6605531573295593,-0.253879576921463
1789799140011582700,9.901582763671875,2.2473204135894775,0.5320148468017578,-0.2708801329135895
1789799140021554700,9.9115546875,2.142467737197876,0.31047168374061584,-0.2695293724536896
1789799140031527700,9.921527587890624,2.0199732780456543,0.1375340223312378,-0.2518089711666107
1789799140041501000,9.9315009765625,1.9005719423294067,0.034249432384967804,-0.2364577054977417
1789799140051472600,9.94147265625,1.7921453714370728,-0.030253391712903976,-0.25580957531929016
1789799140061445600,9.951445556640625,1.6944469213485718,-0.05971698462963104,-0.30530786514282227
1789799140071417900,9.96141796875,1.5781283378601074,-0.08160922676324844,-0.3536522388458252
1789799140081390600,9.971390625,1.4499735832214355,-0.22529983520507812,-0.384034126996994
1789799140091362800,9.98136279296875,1.3450897932052612,-0.40728670358657837,-0.3626113831996918
1789799140101335800,9.991335693359375,1.2087314128875732,-0.4990910589694977,-0.3054050803184509
1789799140111307500,10.0013076171875,1.07162344455719,-0.5555937886238098,-0.24347752332687378
1789799140121280800,10.01128076171875,0.9469486474990845,-0.5891550779342651,-0.19225668907165527
1789799140131252700,10.021252685546875,0.8253383040428162,-0.5789346694946289,-0.13950611650943756
1789799140141225700,10.031225830078125,0.7224048972129822,-0.5180700421333313,-0.09956350177526474
1789799140151198200,10.0411982421875,0.6108362674713135,-0.3951055109500885,-0.06925752758979797
1789799140161171000,10.0511708984375,0.5235632658004761,-0.2439582645893097,-0.04662731662392616
1789799140171143200,10.06114306640625,0.41766560077667236,-0.12685668468475342,-0.04289436340332031
1789799140181116200,10.0711162109375,0.2874501347541809,-0.015544024296104908,-0.04031549394130707
1789799140191087900,10.081087890625,0.14542509615421295,0.06470367312431335,-0.022304803133010864
1789799140201061000,10.09106103515625,-0.022808492183685303,0.09214985370635986,-0.007073116954416037
1789799140211033000,10.101033203125,-0.21438005566596985,0.07725559175014496,0.01001558918505907
1789799140221006000,10.111006103515624,-0.36808082461357117,0.022001074627041817,0.04947657510638237
1789799140230978000,10.12097802734375,-0.47452816367149353,-0.03893870860338211,0.1171450987458229
1789799140240951000,10.130950927734375,-0.5417839288711548,-0.07442876696586609,0.17222380638122559
1789799140250924000,10.140924072265625,-0.5911163687705994,-0.06820202618837357,0.2166365385055542
1789799140260896000,10.15089599609375,-0.6358642578125,-0.02876080945134163,0.2435005009174347
1789799140270869000,10.160868896484375,-0.6856667399406433,0.015497730113565922,0.25446420907974243
1789799140280841200,10.17084130859375,-0.7593991756439209,0.06575725972652435,0.2661115527153015
1789799140290814200,10.180814208984375,-0.8447545766830444,0.09637961536645889,0.28935056924819946
1789799140300786000,10.190785888671876,-0.9147393703460693,0.07019241899251938,0.30944159626960754
1789799140310759200,10.20075927734375,-0.9746351838111877,0.013671087101101875,0.3266112506389618
1789799140320731100,10.210731201171875,-1.0162279605865479,-0.040438976138830185,0.34971269965171814
1789799140330704000,10.220703857421874,-1.0727897882461548,-0.04911288991570473,0.36905309557914734
1789799140340676000,10.230676025390625,-1.1299240589141846,-0.010090840049088001,0.36164379119873047
1789799140350649000,10.240649169921875,-1.2400628328323364,0.009405363351106644,0.332614541053772
1789799140360621000,10.25062109375,-1.3625233173370361,-0.05656079947948456,0.2693670094013214
1789799140370594000,10.260593994140624,-1.475792646408081,-0.18944162130355835,0.15863250195980072
1789799140380566000,10.27056591796875,-1.5707021951675415,-0.31236016750335693,0.03370613604784012
1789799140390539300,10.280539306640625,-1.599556803703308,-0.3457695245742798,-0.07908806204795837
1789799140400511000,10.290510986328124,-1.5762009620666504,-0.26471859216690063,-0.14579159021377563
1789799140410484000,10.30048388671875,-1.5752842426300049,-0.1571519374847412,-0.18682876229286194
1789799140420456200,10.310456298828125,-1.6214120388031006,-0.13159121572971344,-0.2073591947555542
1789799140430429000,10.320428955078125,-1.6937040090560913,-0.21515747904777527,-0.2332935929298401
1789799140440401200,10.330401123046874,-1.7374318838119507,-0.3152768909931183,-0.2456623911857605
1789799140450374100,10.3403740234375,-1.7639920711517334,-0.36961629986763,-0.27093151211738586
1789799140460345900,10.350345947265625,-1.7544821500778198,-0.3158118426799774,-0.3299084007740021
1789799140470319000,10.360319091796875,-1.679389476776123,-0.21308252215385437,-0.3626818060874939
1789799140480291000,10.370291015625,-1.5923932790756226,-0.1284726858139038,-0.3443547487258911
1789799140490264000,10.38026416015625,-1.5711058378219604,-0.09912706166505814,-0.29539093375205994
1789799140500236000,10.390236083984375,-1.586232304573059,-0.08939674496650696,-0.2497483342885971
1789799140510209000,10.400208984375,-1.6141570806503296,-0.15237624943256378,-0.23255310952663422
1789799140520182000,10.41018212890625,-1.6530362367630005,-0.23935364186763763,-0.2381781041622162
1789799140530154000,10.420154052734375,-1.6608624458312988,-0.27316248416900635,-0.2582796514034271
1789799140540127000,10.430126953125,-1.688965082168579,-0.3092108368873596,-0.2653999924659729
1789799140550099200,10.44009912109375,-1.760627269744873,-0.3364368677139282,-0.25141066312789917
1789799140560072200,10.450072265625,-1.7997016906738281,-0.5075349807739258,-0.25719013810157776
1789799140570044200,10.460044189453125,-1.8511565923690796,-0.6451325416564941,-0.2565208971500397
1789799140580017200,10.47001708984375,-1.9031862020492554,-0.701699435710907,-0.2524468004703522
1789799140589989000,10.479989013671876,-1.9116512537002563,-0.6891980171203613,-0.22242337465286255
1789799140599962000,10.489962158203125,-1.8195332288742065,-0.8751367926597595,-0.2291751503944397
1789799140609934000,10.49993408203125,-1.7404472827911377,-0.9896731972694397,-0.2034575343132019
1789799140619907000,10.509906982421874,-1.6506459712982178,-1.0513417720794678,-0.16344673931598663
1789799140629879000,10.519879150390626,-1.5769598484039307,-1.0033023357391357,-0.09238880127668381
1789799140639852000,10.52985205078125,-1.4135749340057373,-1.0433719158172607,-0.04682452604174614
1789799140649824300,10.53982421875,-1.2497398853302002,-0.9439113736152649,0.024574823677539825
1789799140659797200,10.54979736328125,-1.0913619995117188,-0.7951205968856812,0.08484895527362823
1789799140669769000,10.55976904296875,-0.95595782995224,-0.6350789666175842,0.1431460827589035
1789799140679742200,10.5697421875,-0.8327019214630127,-0.45886099338531494,0.22742754220962524
1789799140689714200,10.579714111328125,-0.7048784494400024,-0.2616592347621918,0.30237075686454773
1789799140699687000,10.58968701171875,-0.5799334645271301,-0.10963340103626251,0.33686336874961853
1789799140709659100,10.5996591796875,-0.43492329120635986,0.00037352798972278833,0.33825913071632385
1789799140719632100,10.609632080078125,-0.2805880904197693,0.11654063314199448,0.3286629617214203
1789799140729604000,10.61960400390625,-0.14119744300842285,0.20451684296131134,0.34516656398773193
1789799140739577000,10.6295771484375,0.004231987055391073,0.33231085538864136,0.33284053206443787
1789799140749549000,10.639549072265625,0.14592574536800385,0.41710057854652405,0.2746208906173706
1789799140759522000,10.64952197265625,0.3058377504348755,0.48839810490608215,0.22856631875038147
1789799140769494000,10.659493896484374,0.44894805550575256,0.5205528140068054,0.22516758739948273
1789799140779467000,10.669467041015626,0.5793678760528564,0.5326424241065979,0.2102658748626709
1789799140789439000,10.67943896484375,0.7125847935676575,0.5900324583053589,0.1632986217737198
1789799140799412000,10.689411865234375,0.8843047618865967,0.7062906622886658,0.11240428686141968
1789799140809384200,10.69938427734375,1.0540742874145508,0.7883735299110413,0.08320911973714828
1789799140819357200,10.709357177734375,1.1944512128829956,0.7994533181190491,0.06111380085349083
1789799140829329000,10.719328857421875,1.3295555114746094,0.7734499573707581,0.03356872871518135
1789799140839302100,10.72930224609375,1.4800411462783813,0.8080812096595764,0.008853524923324585
1789799140849275100,10.739275146484376,1.6293914318084717,0.8816071152687073,-0.02048119530081749
1789799140859246800,10.749246826171875,1.741505742073059,0.919717013835907,-0.03856844827532768
1789799140869220000,10.75922021484375,1.827958106994629,0.9364067912101746,-0.0670618787407875
1789799140879192000,10.769192138671874,1.919213056564331,0.9150802493095398,-0.0956912562251091
1789799140889165000,10.7791650390625,2.033841371536255,0.8646708726882935,-0.1057814434170723
1789799140899137000,10.789136962890625,2.156738042831421,0.8386226892471313,-0.12199956923723221
1789799140909110000,10.799110107421875,2.251992702484131,0.8101122379302979,-0.1438758224248886
1789799140919082200,10.809082275390624,2.3256356716156006,0.7491790652275085,-0.15161630511283875
1789799140929055000,10.819054931640625,2.3931241035461426,0.6445658206939697,-0.13990744948387146
1789799140939027000,10.82902685546875,2.472552537918091,0.5776641964912415,-0.1507483720779419
1789799140949000200,10.839000244140625,2.576864004135132,0.5696179866790771,-0.16497817635536194
1789799140958972000,10.848971923828126,2.6684463024139404,0.5668272972106934,-0.1616072952747345
1789799140968945200,10.858945068359375,2.70622181892395,0.5416284799575806,-0.15555152297019958
1789799140978917000,10.868917236328125,2.6875691413879395,0.4540039300918579,-0.16217760741710663
1789799140988890000,10.87889013671875,2.65976881980896,0.4167604446411133,-0.1416395753622055
1789799140998862000,10.888862060546876,2.608228921890259,0.3786011040210724,-0.11290299892425537
1789799141008835000,10.8988349609375,2.4745943546295166,0.28854072093963623,-0.09800980240106583
1789799141018807300,10.908807373046875,2.3166379928588867,0.2057003229856491,-0.07351750135421753
1789799141028780000,10.918780029296874,2.160630464553833,0.15992510318756104,-0.059010203927755356
1789799141038752000,10.928751953125,1.9854906797409058,0.11422189325094223,-0.04263296723365784
1789799141048725200,10.938725341796875,1.8399715423583984,-0.04517308995127678,-0.030969921499490738
1789799141058697000,10.948697021484374,1.7210081815719604,-0.2022217959165573,-0.015960337594151497
1789799141068670000,10.958669921875,1.5580490827560425,-0.3221362233161926,0.008223029784858227
1789799141078642200,10.96864208984375,1.3928385972976685,-0.42173463106155396,0.021369051188230515
1789799141088615200,10.978615234375,1.2201051712036133,-0.45367178320884705,0.039894796907901764
1789799141098587100,10.988587158203124,1.046594500541687,-0.5124205946922302,0.05632730945944786
1789799141108560100,10.99856005859375,0.888429582118988,-0.5844846963882446,0.07720942050218582
1789799141118532000,11.008531982421875,0.737092137336731,-0.5522634983062744,0.12727604806423187
1789799141128505000,11.018505126953125,0.6234558820724487,-0.47149384021759033,0.165488138794899
1789799141138477000,11.02847705078125,0.5540429949760437,-0.3447948396205902,0.17211700975894928
1789799141148449500,11.038449462890625,0.44555991888046265,-0.29937487840652466,0.1615772843360901
1789799141158421800,11.048421875,0.3145451247692108,-0.2869173288345337,0.15358129143714905
1789799141168394800,11.058394775390624,0.21219582855701447,-0.2550880014896393,0.16660360991954803
1789799141178366700,11.06836669921875,0.10123343765735626,-0.2006499171257019,0.1927221715450287
1789799141188339700,11.078339599609375,-0.041063785552978516,-0.13854926824569702,0.22804687917232513
1789799141198311700,11.088311767578125,-0.19623994827270508,-0.11011245846748352,0.25595682859420776
1789799141208284700,11.09828466796875,-0.33630678057670593,-0.14807182550430298,0.26402220129966736
1789799141218256600,11.108256591796875,-0.4378760755062103,-0.1932421773672104,0.2822621464729309
1789799141228230000,11.11822998046875,-0.5203807950019836,-0.12544740736484528,0.33468887209892273
1789799141238201600,11.12820166015625,-0.5593372583389282,-0.062116947025060654,0.3833921253681183
1789799141248174600,11.138174560546876,-0.6447275280952454,0.026507727801799774,0.4095350503921509
1789799141258146800,11.148146728515625,-0.7251051068305969,0.038968540728092194,0.3707009553909302
1789799141268119800,11.158119873046875,-0.7822312712669373,-0.020973090082406998,0.3090037703514099
1789799141278091800,11.168091796875,-0.8748288154602051,-0.06910332292318344,0.28752604126930237
1789799141288064800,11.178064697265626,-0.9504678249359131,-0.14342468976974487,0.27327147126197815
1789799141298036700,11.18803662109375,-1.0449548959732056,-0.16170281171798706,0.2597177028656006
1789799141308009700,11.198009765625,-1.1489590406417847,-0.09678932279348373,0.2360888123512268
1789799141317981700,11.207981689453124,-1.2562223672866821,-0.028453487902879715,0.19967569410800934
1789799141327954700,11.21795458984375,-1.3453372716903687,0.03348764777183533,0.15170656144618988
1789799141337926700,11.2279267578125,-1.4098596572875977,0.08597586303949356,0.08069176971912384
1789799141347899600,11.237899658203125,-1.4293097257614136,0.09985465556383133,-0.0030691754072904587
1789799141357871900,11.247871826171876,-1.4454725980758667,0.09720734506845474,-0.07157926261425018
1789799141367844900,11.257844970703125,-1.4364523887634277,0.03734028339385986,-0.13754309713840485
1789799141377816600,11.267816650390625,-1.4806066751480103,-0.04228517413139343,-0.16708393394947052
1789799141387789800,11.277789794921874,-1.5501353740692139,-0.13420364260673523,-0.186416357755661
1789799141397761500,11.287761474609376,-1.6355046033859253,-0.17564918100833893,-0.1887803077697754
1789799141407734500,11.297734619140625,-1.6996759176254272,-0.13328894972801208,-0.19026155769824982
1789799141417706800,11.307706787109375,-1.7540514469146729,-0.016665618866682053,-0.25379273295402527
1789799141427679700,11.3176796875,-1.7878859043121338,0.12059956789016724,-0.3609524667263031
1789799141437651700,11.327651611328125,-1.811265468597412,0.21254920959472656,-0.4621862769126892
1789799141447624700,11.337624755859375,-1.8030154705047607,0.19035975635051727,-0.49707022309303284
1789799141457596700,11.3475966796875,-1.7854081392288208,0.06278322637081146,-0.489362508058548
1789799141467569700,11.357569580078126,-1.778363823890686,-0.1009359285235405,-0.4703206419944763
1789799141477541600,11.367541748046875,-1.7710458040237427,-0.21554496884346008,-0.4300234317779541
1789799141487514600,11.3775146484375,-1.78018319606781,-0.21288740634918213,-0.40384721755981445
1789799141497486600,11.387486572265624,-1.784033179283142,-0.1482715755701065,-0.415988951921463
1789799141507459600,11.39745947265625,-1.7967652082443237,-0.1780896633863449,-0.454955518245697
1789799141517431800,11.407431884765625,-1.836979866027832,-0.20974504947662354,-0.47125381231307983
1789799141527404800,11.41740478515625,-1.816146969795227,-0.419890820980072,-0.5027862191200256
1789799141537376800,11.427376708984376,-1.7894634008407593,-0.6531893610954285,-0.5144966244697571
1789799141547349800,11.437349853515625,-1.8013123273849487,-0.8464522957801819,-0.5086145401000977
1789799141557321700,11.44732177734375,-1.8748629093170166,-0.9084638953208923,-0.4670645296573639
1789799141567294700,11.457294677734374,-1.8513597249984741,-1.0137895345687866,-0.4743349850177765
1789799141577266700,11.4672666015625,-1.8336269855499268,-1.0937004089355469,-0.47555679082870483
1789799141587239700,11.47723974609375,-1.7522014379501343,-1.141601324081421,-0.46458616852760315
1789799141597211600,11.487211669921875,-1.684134602546692,-1.0976303815841675,-0.40541303157806396
1789799141607184600,11.4971845703125,-1.5561654567718506,-1.10691499710083,-0.360878050327301
1789799141617156900,11.507156982421876,-1.418642520904541,-1.1070144176483154,-0.3176671862602234
1789799141627129900,11.5171298828125,-1.285638689994812,-1.0525370836257935,-0.2532101571559906
1789799141637101600,11.5271015625,-1.1370583772659302,-1.0655624866485596,-0.17778810858726501
1789799141647074800,11.53707470703125,-0.9871369004249573,-1.0593639612197876,-0.09530628472566605
1789799141657046800,11.547046875,-0.8326042890548706,-0.9440085887908936,0.006111949682235718
1789799141667019500,11.55701953125,-0.6968451738357544,-0.7566461563110352,0.08601876348257065
1789799141676991700,11.56699169921875,-0.576281726360321,-0.529961884021759,0.10400841385126114
1789799141686964700,11.57696484375,-0.42831355333328247,-0.3082369267940521,0.08306664973497391
1789799141696936700,11.586936767578125,-0.26587003469467163,-0.13757599890232086,0.10064911097288132
1789799141706909700,11.59690966796875,-0.1142573282122612,0.014549089595675468,0.12774303555488586
1789799141716881700,11.606881591796874,0.04485456645488739,0.19134889543056488,0.1354350596666336
1789799141726855000,11.61685498046875,0.22860735654830933,0.3857804238796234,0.1518222838640213
1789799141736826600,11.62682666015625,0.40131694078445435,0.5763269066810608,0.2099822759628296
1789799141746799600,11.636799560546875,0.5527548789978027,0.6947131752967834,0.27300596237182617
1789799141756771800,11.646771728515626,0.6675282716751099,0.7189274430274963,0.30310794711112976
1789799141766744600,11.65674462890625,0.7945738434791565,0.7407491207122803,0.29667961597442627
1789799141776716800,11.666716796875,0.9582986831665039,0.8240850567817688,0.26908713579177856
1789799141786689800,11.676689697265624,1.1189260482788086,0.9051492810249329,0.2623903453350067
1789799141796661500,11.68666162109375,1.2541077136993408,0.9341805577278137,0.292329877614975
1789799141806634800,11.696634765625,1.381269931793213,0.9207608699798584,0.3261067271232605
1789799141816606700,11.706606689453125,1.5212185382843018,0.9165056347846985,0.33503058552742004
1789799141826579700,11.716579833984374,1.665555715560913,0.925814151763916,0.3291892111301422
1789799141836551700,11.7265517578125,1.796539545059204,0.9531348347663879,0.318180114030838
1789799141846524700,11.736524658203125,1.9131417274475098,0.9834749102592468,0.2896147668361664
1789799141856497000,11.746496826171875,2.0483651161193848,1.0093777179718018,0.24438244104385376
1789799141866469600,11.7564697265625,2.1753532886505127,0.9861941337585449,0.19445456564426422
1789799141876441600,11.766441650390625,2.2663724422454834,0.9428354501724243,0.15945105254650116
1789799141886414800,11.776414794921875,2.3154404163360596,0.8701004981994629,0.13750793039798737
1789799141896386600,11.786386474609374,2.3499672412872314,0.8247281312942505,0.1174340769648552
1789799141906359600,11.796359619140626,2.38238787651062,0.7935107946395874,0.07288578152656555
1789799141916331800,11.806331787109375,2.437286853790283,0.7552279829978943,0.013079319149255753
1789799141926304800,11.8163046875,2.489675760269165,0.688299834728241,-0.04227448254823685
1789799141936276700,11.82627685546875,2.5088839530944824,0.6274427771568298,-0.07818761467933655
1789799141946248700,11.836248779296875,2.487199068069458,0.5467748641967773,-0.09697674959897995
1789799141956221700,11.8462216796875,2.4445841312408447,0.4667624533176422,-0.09281888604164124
1789799141966193700,11.856193603515624,2.4028589725494385,0.3823373019695282,-0.06685546040534973
1789799141976166700,11.866166748046876,2.303178310394287,0.18276432156562805,-0.07423467934131622
1789799141986139000,11.876138916015625,2.1719021797180176,-0.0025056619197130203,-0.07203171402215958
1789799141996111600,11.886111572265625,2.0550966262817383,-0.074864462018013,-0.06027732044458389
1789799142006083800,11.896083740234374,1.9482753276824951,-0.08777093887329102,-0.06834643334150314
1789799142016056800,11.906056884765626,1.8185468912124634,-0.12094730138778687,-0.08257850259542465
1789799142026028500,11.916028564453125,1.7151459455490112,-0.22519488632678986,-0.09409400820732117
1789799142036001800,11.926001708984375,1.6218334436416626,-0.35521200299263,-0.11133836954832077
1789799142045973800,11.935973876953126,1.518320083618164,-0.4524006247520447,-0.11855447292327881
1789799142055946500,11.945946533203125,1.3953571319580078,-0.527367889881134,-0.11259818822145462
1789799142065918700,11.955918701171875,1.2545334100723267,-0.5329493880271912,-0.08351646363735199
1789799142075891700,11.9658916015625,1.1360573768615723,-0.5584606528282166,-0.0518803745508194
1789799142085863700,11.97586376953125,1.0328994989395142,-0.6040641069412231,-0.012043746188282967
1789799142095836700,11.985836669921875,0.8863299489021301,-0.6072431206703186,0.02822631597518921
1789799142105808600,11.99580859375,0.7503827214241028,-0.5079396963119507,0.057745326310396194
1789799142115782000,12.005781982421874,0.6270366311073303,-0.3262653350830078,0.06029875949025154
1789799142125753600,12.015753662109375,0.5051946043968201,-0.17939040064811707,0.025422001257538795
1789799142135726600,12.0257265625,0.3658176064491272,-0.16289907693862915,-0.021994248032569885
1789799142145698800,12.03569873046875,0.18491998314857483,-0.22839899361133575,-0.03458354249596596
1789799142155671800,12.045671875,0.038731809705495834,-0.2517630159854889,-0.005840574856847525
1789799142165644000,12.05564404296875,-0.13670872151851654,-0.1998436450958252,0.02973366528749466
1789799142175617000,12.065616943359375,-0.30869147181510925,-0.17310073971748352,0.05436377972364426
1789799142185588700,12.075588623046874,-0.458110511302948,-0.13437917828559875,0.08476217091083527
1789799142195562000,12.08556201171875,-0.5820868611335754,-0.04158305749297142,0.12150619179010391
1789799142205534000,12.095533935546875,-0.6646318435668945,0.04903605952858925,0.1483178287744522
1789799142215507000,12.1055068359375,-0.7283118963241577,0.10194499045610428,0.1629798710346222
1789799142225479000,12.11547900390625,-0.7705234885215759,0.04941254481673241,0.16804707050323486
1789799142235451000,12.125450927734375,-0.8089181780815125,-0.04443925619125366,0.1719426065683365
1789799142245424000,12.135424072265625,-0.8454250693321228,-0.05459655448794365,0.1863553673028946
1789799142255395800,12.145395751953124,-0.8810542225837708,-0.010727041400969028,0.1934622824192047
1789799142265368800,12.155368896484376,-0.9689745306968689,0.05911249294877052,0.19064758718013763
1789799142275341000,12.165341064453125,-1.0334928035736084,0.0741058811545372,0.17129333317279816
1789799142285313800,12.175313720703125,-1.1118521690368652,0.06003826856613159,0.1512298732995987
1789799142295286000,12.1852861328125,-1.207931399345398,0.06817351281642914,0.11971215903759003
1789799142305259000,12.195259033203126,-1.3070417642593384,0.087974913418293,0.07005912065505981
1789799142315230700,12.205230712890625,-1.419072151184082,0.08919550478458405,-0.0058446950279176235
1789799142325204000,12.215203857421875,-1.5261048078536987,0.08500155806541443,-0.10340480506420135
1789799142335176000,12.225176025390626,-1.59954035282135,0.07499145716428757,-0.2252432405948639
1789799142345149000,12.23514892578125,-1.6409636735916138,0.06594390422105789,-0.3608045279979706
1789799142355121000,12.245120849609375,-1.6904886960983276,0.08133678138256073,-0.47342997789382935
1789799142365094000,12.255093994140625,-1.747328758239746,-0.0251635629683733,-0.5476387143135071
1789799142375066000,12.265066162109376,-1.8046201467514038,-0.2679292857646942,-0.5356481075286865
1789799142385038800,12.275038818359375,-1.8546348810195923,-0.55953449010849,-0.47295835614204407
1789799142395011000,12.285010986328125,-1.9073210954666138,-0.6650302410125732,-0.4585333466529846
1789799142404984000,12.294984130859374,-1.948773741722107,-0.4488920569419861,-0.5484999418258667
1789799142414955800,12.304955810546875,-1.8635307550430298,-0.045287661254405975,-0.6209608912467957
1789799142424929000,12.314928955078125,-1.742465853691101,0.1931733787059784,-0.6068005561828613
1789799142434901000,12.32490087890625,-1.6621774435043335,0.058810338377952576,-0.5349830985069275
1789799142444874000,12.3348740234375,-1.6795045137405396,-0.28097838163375854,-0.4630623161792755
1789799142454846000,12.344845947265625,-1.7286571264266968,-0.5708398818969727,-0.44828084111213684
1789799142464818000,12.35481787109375,-1.7619426250457764,-0.665781557559967,-0.47131186723709106
1789799142474791200,12.364791259765624,-1.7969353199005127,-0.6524739861488342,-0.5147417187690735
1789799142484763000,12.374762939453126,-1.821500301361084,-0.6436299085617065,-0.5314658284187317
1789799142494736000,12.38473583984375,-1.8636927604675293,-0.6765729784965515,-0.5147587656974792
1789799142504708000,12.3947080078125,-1.9325823783874512,-0.7178072333335876,-0.4773128926753998
1789799142514680800,12.404680908203124,-1.9694656133651733,-0.7540485858917236,-0.42779794335365295
1789799142524653000,12.414653076171875,-1.9811451435089111,-0.7442820072174072,-0.3500802516937256
