time,seconds_elapsed,z,y,x
1789799130158184700,0.048184814453125,-0.34787675738334656,-0.10924392938613892,-0.18954835832118988
1789799130168157700,0.05815771484375,-0.3172714412212372,-0.20874442160129547,-0.14104820787906647
1789799130178130000,0.0681298828125,-0.2750574052333832,-0.23530572652816772,-0.1590391844511032
1789799130188102000,0.078101806640625,-0.20162099599838257,-0.08987582474946976,-0.35652244091033936
1789799130198073900,0.088073974609375,-0.03460085391998291,0.22795620560646057,-0.7461506128311157
1789799130208045800,0.0980458984375,0.13651897013187408,0.7169330716133118,-1.1319129467010498
1789799130218017800,0.108017822265625,0.25636786222457886,1.0785496234893799,-1.4168949127197266
1789799130227990800,0.11799072265625,0.3044853210449219,1.2286328077316284,-1.620318055152893
1789799130237962800,0.127962646484375,0.3231396973133087,1.1812751293182373,-1.7724971771240234
1789799130247934700,0.137934814453125,0.38295748829841614,1.0740888118743896,-1.8534890413284302
1789799130257907000,0.147906982421875,0.4848625659942627,0.9793593883514404,-1.8245441913604736
1789799130267878700,0.157878662109375,0.5879921317100525,0.9113811254501343,-1.7350115776062012
1789799130277851000,0.167850830078125,0.6179153919219971,0.7212010622024536,-1.6965135335922241
1789799130287824000,0.177823974609375,0.5643666982650757,0.7087161540985107,-1.6713085174560547
1789799130297795800,0.1877958984375,0.4689784049987793,0.9282069802284241,-1.6506245136260986
1789799130307767800,0.197767822265625,0.35183820128440857,1.1434415578842163,-1.620754599571228
1789799130317739800,0.20773974609375,0.22202295064926147,1.1763944625854492,-1.5949056148529053
1789799130327711700,0.217711669921875,0.10397034138441086,1.1425431966781616,-1.5629810094833374
1789799130337684000,0.22768408203125,0.03207218274474144,1.2519967555999756,-1.4762181043624878
1789799130347656700,0.23765673828125,-0.01763012632727623,1.4845362901687622,-1.3503398895263672
1789799130357629000,0.24762890625,-0.07402655482292175,1.7765185832977295,-1.1871671676635742
1789799130367601000,0.257600830078125,-0.14947311580181122,2.0074307918548584,-0.972823977470398
1789799130377572900,0.26757275390625,-0.23197650909423828,2.0726559162139893,-0.6809369921684265
1789799130387544800,0.277544921875,-0.34451690316200256,1.9735578298568726,-0.2882312536239624
1789799130397516800,0.287516845703125,-0.38262939453125,1.6262670755386353,0.24131035804748535
1789799130407489800,0.29748974609375,-0.250079870223999,1.0465320348739624,0.9003942608833313
1789799130417461800,0.307461669921875,-0.3635321259498596,0.4892674386501312,1.5764507055282593
1789799130427433700,0.317433837890625,-1.064505696296692,-0.4509493410587311,1.9799851179122925
1789799130437406000,0.327406005859375,-1.8760066032409668,-2.523922920227051,1.9921419620513916
1789799130447378000,0.3373779296875,-2.2544312477111816,-4.378156661987305,1.9845564365386963
1789799130457350700,0.3473505859375,-2.0971689224243164,-5.3449602127075195,2.2529654502868652
1789799130467323000,0.357322998046875,-1.7065932750701904,-6.3782758712768555,2.42026948928833
1789799130477294800,0.367294921875,-1.5584893226623535,-7.623516082763672,2.1984808444976807
1789799130487266800,0.377266845703125,-1.5809786319732666,-9.096342086791992,1.5197381973266602
1789799130497238800,0.38723876953125,-1.7739413976669312,-9.285835266113281,0.0648900493979454
1789799130507212000,0.3972119140625,-2.130100965499878,-7.841122627258301,-0.6594988107681274
1789799130517183700,0.407183837890625,-2.107905864715576,-6.012115478515625,-1.0946619510650635
1789799130527156000,0.417156005859375,-1.7944868803024292,-4.142508506774902,-1.4094852209091187
1789799130537127700,0.427127685546875,-1.3220632076263428,-2.538208484649658,-1.4879429340362549
1789799130547100000,0.437099853515625,-0.6761882901191711,-1.3481065034866333,-1.343649983406067
1789799130557072000,0.44707177734375,0.6464775800704956,-0.7643341422080994,-0.9865437746047974
1789799130567044600,0.457044677734375,2.2920899391174316,-0.6155747771263123,-0.5185768604278564
1789799130577016800,0.467016845703125,2.838778018951416,0.11163625121116638,-0.27900099754333496
1789799130586988800,0.47698876953125,2.5235190391540527,1.0161216259002686,-0.12746687233448029
1789799130596960800,0.486960693359375,1.6918119192123413,1.1102585792541504,-0.05632372573018074
1789799130606933000,0.49693310546875,0.7518426179885864,0.6423313021659851,-0.16111858189105988
1789799130616906000,0.506906005859375,0.11008922010660172,0.054964713752269745,-0.18258818984031677
1789799130626877700,0.516877685546875,-0.13233007490634918,-0.30243709683418274,0.005425125360488892
1789799130636850000,0.526849853515625,-0.09619151055812836,-0.40264493227005005,0.27891871333122253
1789799130646821600,0.536821533203125,0.07232053577899933,-0.402167946100235,0.49825507402420044
1789799130656793900,0.5467939453125,0.23216159641742706,-0.5275061726570129,0.5896515846252441
1789799130666766800,0.556766845703125,0.30253031849861145,-0.7894802689552307,0.5664194822311401
1789799130676738800,0.56673876953125,0.31101033091545105,-0.9688380360603333,0.48244786262512207
1789799130686710800,0.576710693359375,0.302638441324234,-1.0085792541503906,0.3765707015991211
1789799130696683000,0.58668310546875,0.28127241134643555,-0.8961797952651978,0.26216450333595276
1789799130706654700,0.59665478515625,0.24426327645778656,-0.6724359393119812,0.15338583290576935
1789799130716627700,0.606627685546875,0.20854522287845612,-0.3359031677246094,0.06910716742277145
1789799130726600000,0.616599853515625,0.19745315611362457,0.07412722706794739,0.022157499566674232
1789799130736572000,0.626572021484375,0.2131202667951584,0.3599965274333954,0.005120459944009781
1789799130746543900,0.6365439453125,0.2349826842546463,0.45707088708877563,0.014959242194890976
1789799130756515800,0.646515869140625,0.2616212069988251,0.48198023438453674,0.08278223127126694
1789799130766488800,0.65648876953125,0.28843340277671814,0.5974924564361572,0.1961655169725418
1789799130776460800,0.666460693359375,0.31500694155693054,0.8371101021766663,0.3015015125274658
1789799130786432800,0.676432861328125,0.3478892743587494,1.1030967235565186,0.37624821066856384
1789799130796404700,0.68640478515625,0.3671841323375702,1.3010708093643188,0.4082612693309784
1789799130806378000,0.6963779296875,0.32976219058036804,1.3012303113937378,0.380499929189682
1789799130816349700,0.706349609375,0.23922669887542725,1.1832778453826904,0.3111530840396881
1789799130826322000,0.716322021484375,0.13582387566566467,1.0850597620010376,0.22351005673408508
1789799130836294000,0.7262939453125,0.04060202091932297,1.0151780843734741,0.11973625421524048
1789799130846265900,0.736265869140625,-0.002469815546646714,1.018477439880371,0.014346448704600334
1789799130856238800,0.74623876953125,0.023058181628584862,1.1426687240600586,-0.05812455713748932
1789799130866210800,0.7562109375,0.10745003074407578,1.3466113805770874,-0.06720566749572754
1789799130876182800,0.766182861328125,0.2089713215827942,1.5716874599456787,-0.03596758842468262
1789799130886155000,0.776155029296875,0.29009202122688293,1.751135230064392,0.024328775703907013
1789799130896126700,0.786126708984375,0.32033511996269226,1.7709590196609497,0.11914823204278946
1789799130906099700,0.796099609375,0.26719948649406433,1.5289868116378784,0.22767284512519836
1789799130916072000,0.806072021484375,0.1336592584848404,1.0614957809448242,0.3591640293598175
1789799130926043600,0.816043701171875,-0.010126403532922268,0.5023371577262878,0.5073502659797668
1789799130936016000,0.826015869140625,-0.10747772455215454,-0.0007520766812376678,0.6301974058151245
1789799130945988900,0.83598876953125,-0.12838061153888702,-0.2927250862121582,0.6830547451972961
1789799130955960800,0.8459609375,-0.06143087148666382,-0.30104586482048035,0.6584857702255249
1789799130965932800,0.855932861328125,0.06447060406208038,-0.13414688408374786,0.5761054158210754
1789799130975905000,0.865905029296875,0.19386108219623566,0.06263009458780289,0.45858433842658997
1789799130985876700,0.875876708984375,0.2596108019351959,0.18442150950431824,0.3128646910190582
1789799130995849700,0.885849609375,0.2390298843383789,0.23910951614379883,0.17061035335063934
1789799131005822000,0.895822021484375,0.16923509538173676,0.21266725659370422,0.07260549068450928
1789799131015794000,0.9057939453125,0.0981164500117302,0.1509317308664322,0.031385086476802826
1789799131025766000,0.915765869140625,0.06438618153333664,0.11617880314588547,0.030603183433413506
1789799131035739000,0.92573876953125,0.06246577575802803,0.10284062474966049,0.05481264740228653
1789799131045710800,0.9357109375,0.07178124785423279,0.10322092473506927,0.086766317486763
1789799131055682800,0.945682861328125,0.08572209626436234,0.13353994488716125,0.1213085874915123
1789799131065654800,0.95565478515625,0.0929373949766159,0.17619766294956207,0.1607244312763214
1789799131075627800,0.965627685546875,0.08583980798721313,0.21494506299495697,0.18997234106063843
1789799131085600000,0.97560009765625,0.06999186426401138,0.22296065092086792,0.19978022575378418
1789799131095571700,0.98557177734375,0.048406414687633514,0.2002079337835312,0.19505152106285095
1789799131105544000,0.9955439453125,0.037268541753292084,0.17980597913265228,0.1863775998353958
1789799131115515600,1.005515625,0.04591875523328781,0.1869584321975708,0.1760229617357254
1789799131125488600,1.015488525390625,0.057439856231212616,0.19462834298610687,0.15802958607673645
1789799131135460900,1.0254609375,0.057011354714632034,0.21175380051136017,0.12363831698894501
1789799131145432300,1.035432373046875,0.06137041747570038,0.28266045451164246,0.08049111068248749
1789799131155404300,1.045404296875,0.07983730733394623,0.3625377118587494,0.04467159882187843
1789799131165377300,1.055377197265625,0.11039814352989197,0.3930104076862335,0.024399083107709885
1789799131175349200,1.065349365234375,0.14363093674182892,0.4070625603199005,0.042813777923583984
1789799131185321200,1.0753212890625,0.1680862158536911,0.41322407126426697,0.09581787139177322
1789799131195293400,1.08529345703125,0.17435529828071594,0.4034031331539154,0.15627402067184448
1789799131205266200,1.09526611328125,0.1617438942193985,0.36226367950439453,0.19702917337417603
1789799131215238400,1.10523828125,0.12742319703102112,0.28174299001693726,0.19974985718727112
1789799131225210400,1.11521044921875,0.09301329404115677,0.19364909827709198,0.18021158874034882
1789799131235182300,1.125182373046875,0.05986013635993004,0.12773959338665009,0.12829218804836273
1789799131245154300,1.135154296875,0.02202647179365158,0.07279378175735474,0.0559423603117466
1789799131255127600,1.14512744140625,0.004415254574269056,0.050206445157527924,0.0011582087026908994
1789799131265099300,1.155099365234375,0.014307300560176373,0.09106572717428207,-0.023088807240128517
1789799131275071500,1.165071533203125,0.04152906686067581,0.16395750641822815,-0.045401304960250854
1789799131285043200,1.175043212890625,0.07809507101774216,0.2309999316930771,-0.06968720257282257
1789799131295016200,1.18501611328125,0.11568105965852737,0.29085421562194824,-0.07533176988363266
1789799131304988400,1.194988525390625,0.13095881044864655,0.29439327120780945,-0.07122224569320679
1789799131314960100,1.204960205078125,0.11592420190572739,0.24755093455314636,-0.07032422721385956
1789799131324932400,1.214932373046875,0.09781071543693542,0.19338810443878174,-0.07755577564239502
1789799131334905300,1.2249052734375,0.10899226367473602,0.1436101645231247,-0.09159782528877258
1789799131344877300,1.234877197265625,0.13067865371704102,0.11033768951892853,-0.105314701795578
1789799131354849300,1.244849365234375,0.18510140478610992,0.0995393767952919,-0.10639301687479019
1789799131364821500,1.254821533203125,0.2581513822078705,0.11098457127809525,-0.08453432470560074
1789799131374794200,1.264794189453125,0.33146795630455017,0.14664936065673828,-0.05556099861860275
1789799131384766500,1.274766357421875,0.3986736238002777,0.2163139283657074,-0.010981544852256775
1789799131394738400,1.284738525390625,0.4455567002296448,0.3327776789665222,0.052801430225372314
1789799131404710400,1.29471044921875,0.44887927174568176,0.41218915581703186,0.12938089668750763
1789799131414683400,1.304683349609375,0.4087158739566803,0.3839929401874542,0.18397995829582214
1789799131424655400,1.3146552734375,0.3483819365501404,0.2491605579853058,0.22662009298801422
1789799131434627300,1.32462744140625,0.31546396017074585,0.1516803354024887,0.23380503058433533
1789799131444599300,1.334599365234375,0.33108073472976685,0.15680213272571564,0.17969439923763275
1789799131454572500,1.344572509765625,0.39353904128074646,0.24018517136573792,0.09315231442451477
1789799131464544300,1.354544189453125,0.4072825610637665,0.24193432927131653,0.047990962862968445
1789799131474516500,1.3645166015625,0.35603028535842896,0.07415705174207687,0.061825815588235855
1789799131484488200,1.37448828125,0.2749098539352417,-0.20163218677043915,0.09072377532720566
1789799131494461200,1.384461181640625,0.1844518631696701,-0.48171550035476685,0.0916881114244461
1789799131504433400,1.394433349609375,0.1868913173675537,-0.5956788063049316,0.052689045667648315
1789799131514405400,1.4044052734375,0.22736231982707977,-0.5754201412200928,-0.01793479174375534
1789799131524377300,1.41437744140625,0.23907622694969177,-0.5124207139015198,-0.11820227652788162
1789799131534350300,1.424350341796875,0.2560078203678131,-0.5203622579574585,-0.2514098584651947
1789799131544322300,1.434322265625,0.2674146592617035,-0.5629754662513733,-0.3802493214607239
1789799131554294300,1.444294189453125,0.3011222779750824,-0.5981425046920776,-0.45568230748176575
1789799131564266500,1.4542666015625,0.32177695631980896,-0.6227275133132935,-0.4980558753013611
1789799131574239200,1.4642392578125,0.312618613243103,-0.6695296168327332,-0.5253503322601318
1789799131584211500,1.47421142578125,0.3147062659263611,-0.7409420013427734,-0.5350636839866638
1789799131594183400,1.484183349609375,0.3363324701786041,-0.7841198444366455,-0.5168527364730835
1789799131604156200,1.49415625,0.34813427925109863,-0.7572740912437439,-0.4902709126472473
1789799131614128400,1.50412841796875,0.3337055444717407,-0.730507493019104,-0.4692535102367401
1789799131624100000,1.51410009765625,0.2683744728565216,-0.7690873742103577,-0.4390583336353302
1789799131634072300,1.524072265625,0.2877838611602783,-1.0937093496322632,-0.26962509751319885
1789799131644045300,1.53404541015625,0.269316166639328,-1.3634217977523804,-0.1026960164308548
1789799131654017300,1.544017333984375,0.13605397939682007,-1.3041270971298218,-0.17341306805610657
1789799131663989200,1.5539892578125,0.11967740207910538,-1.093271255493164,-0.21771875023841858
1789799131673961500,1.56396142578125,0.22251935303211212,-0.969309389591217,-0.1591891199350357
1789799131683934200,1.573934326171875,0.2792729139328003,-0.8705780506134033,-0.2047978788614273
1789799131693906400,1.583906494140625,0.28171077370643616,-0.6657811999320984,-0.3166855275630951
1789799131703878400,1.59387841796875,0.2714453637599945,-0.4760240614414215,-0.35810860991477966
1789799131713850400,1.603850341796875,0.25900760293006897,-0.34316667914390564,-0.32042115926742554
1789799131723823400,1.6138232421875,0.23334990441799164,-0.21347446739673615,-0.2786007225513458
1789799131733795300,1.62379541015625,0.19659055769443512,-0.1294381469488144,-0.2632151246070862
1789799131743767300,1.633767333984375,0.17919132113456726,-0.11740412563085556,-0.2572035789489746
1789799131753740300,1.643740234375,0.17804670333862305,-0.12006834894418716,-0.24796825647354126
1789799131763712500,1.65371240234375,0.18712860345840454,-0.12168755382299423,-0.22858230769634247
1789799131773684200,1.663684326171875,0.19238409399986267,-0.12721441686153412,-0.18467503786087036
1789799131783656400,1.673656494140625,0.17875643074512482,-0.11831412464380264,-0.13266989588737488
1789799131793629400,1.68362939453125,0.15499144792556763,-0.10143367946147919,-0.09534862637519836
1789799131803601200,1.69360107421875,0.13327176868915558,-0.09122658520936966,-0.08048046380281448
1789799131813573400,1.703573486328125,0.11809734255075455,-0.07534614950418472,-0.08768191188573837
1789799131823546400,1.71354638671875,0.11647521704435349,-0.058105647563934326,-0.10444651544094086
1789799131833518300,1.723518310546875,0.1267496943473816,-0.04920669272542,-0.09471851587295532
1789799131843490300,1.733490234375,0.1315620243549347,-0.04482925683259964,-0.05535593256354332
1789799131853462300,1.743462158203125,0.10302279144525528,-0.05685795471072197,-0.0008884305134415627
1789799131863435300,1.753435302734375,0.05260009318590164,-0.06082340329885483,0.05257372930645943
1789799131873407500,1.763407470703125,0.015967514365911484,-0.06979718804359436,0.09167133271694183
1789799131883379200,1.773379150390625,0.012108594179153442,-0.06406606733798981,0.11518357694149017
1789799131893352200,1.783352294921875,0.02437005378305912,-0.05348639562726021,0.12560613453388214
1789799131903324400,1.793324462890625,0.03219788521528244,-0.06621444225311279,0.12059272825717926
1789799131913296100,1.803296142578125,0.015802931040525436,-0.10140305012464523,0.10916217416524887
1789799131923268400,1.813268310546875,-0.02136760577559471,-0.1348171979188919,0.09632840007543564
1789799131933241300,1.823241455078125,-0.05735144019126892,-0.1619042158126831,0.08785581588745117
1789799131943213300,1.83321337890625,-0.0785273015499115,-0.17110463976860046,0.08632050454616547
1789799131953185300,1.843185302734375,-0.09929382801055908,-0.1611793041229248,0.10254581272602081
1789799131963158300,1.853158203125,-0.11161734163761139,-0.14368286728858948,0.15014076232910156
1789799131973130200,1.863130126953125,-0.11593938618898392,-0.1402503103017807,0.21388591825962067
1789799131983102200,1.873102294921875,-0.12881337106227875,-0.1534569263458252,0.27775731682777405
1789799131993074400,1.883074462890625,-0.1469620168209076,-0.1701967716217041,0.3186427056789398
1789799132003047200,1.893047119140625,-0.16238118708133698,-0.1905560940504074,0.33080536127090454
1789799132013019400,1.903019287109375,-0.1705767959356308,-0.20279039442539215,0.3247530460357666
1789799132022991400,1.912991455078125,-0.17434783279895782,-0.17761605978012085,0.2955333888530731
1789799132032964400,1.92296435546875,-0.16835039854049683,-0.14903795719146729,0.2540874183177948
1789799132042936300,1.932936279296875,-0.16906332969665527,-0.14445997774600983,0.2262030392885208
1789799132052908500,1.942908447265625,-0.17112328112125397,-0.15191656351089478,0.23845571279525757
1789799132062881300,1.95288134765625,-0.1694585382938385,-0.19175371527671814,0.2791714370250702
1789799132072853200,1.962853271484375,-0.15931428968906403,-0.2796145975589752,0.33026793599128723
1789799132082825500,1.972825439453125,-0.14139947295188904,-0.385311484336853,0.3687785565853119
1789799132092797200,1.982797119140625,-0.12115412205457687,-0.49195587635040283,0.37228596210479736
1789799132102770400,1.9927705078125,-0.09328707307577133,-0.5960764288902283,0.34771376848220825
1789799132112742400,2.002742431640625,-0.05656927078962326,-0.6869746446609497,0.28818491101264954
1789799132122714400,2.01271435546875,-0.03273104876279831,-0.7157261371612549,0.1898849755525589
1789799132132687400,2.022687255859375,-0.017795775085687637,-0.6766706109046936,0.07641834020614624
1789799132142659300,2.032659423828125,0.004789428785443306,-0.5924643874168396,-0.02522226609289646
1789799132152631800,2.0426318359375,0.04192960634827614,-0.5257013440132141,-0.1071096733212471
1789799132162604800,2.052604736328125,0.0635070726275444,-0.5329829454421997,-0.17003324627876282
1789799132172576800,2.06257666015625,0.07357382029294968,-0.6090063452720642,-0.20877212285995483
1789799132182548700,2.072548828125,0.0768127590417862,-0.730653703212738,-0.21430617570877075
1789799132192521700,2.082521728515625,0.09728527069091797,-0.8711631298065186,-0.20360398292541504
1789799132202493700,2.09249365234375,0.1563352793455124,-1.01414155960083,-0.19063866138458252
1789799132212465700,2.102465576171875,0.22926275432109833,-1.1375253200531006,-0.17931462824344635
1789799132222438000,2.11243798828125,0.29654645919799805,-1.2606192827224731,-0.17790289223194122
1789799132232410600,2.12241064453125,0.36198750138282776,-1.3931174278259277,-0.17611190676689148
1789799132242382800,2.1323828125,0.43025949597358704,-1.5307027101516724,-0.1508033573627472
1789799132252354800,2.142354736328125,0.5082885026931763,-1.6899493932724,-0.1035759299993515
1789799132262327600,2.15232763671875,0.5920470952987671,-1.8576879501342773,-0.08016753941774368
1789799132272299800,2.1622998046875,0.6902215480804443,-1.9748073816299438,-0.09503516554832458
1789799132282271700,2.172271728515625,0.8289093971252441,-2.0264573097229004,-0.10564973205327988
1789799132292244700,2.18224462890625,0.9889938831329346,-1.9922431707382202,-0.09156240522861481
1789799132302216700,2.192216796875,1.153864860534668,-1.908638834953308,-0.05409306287765503
1789799132312188700,2.202188720703125,1.3255857229232788,-1.8573529720306396,0.025290708988904953
1789799132322161700,2.21216162109375,1.5036460161209106,-1.9167348146438599,0.1442224234342575
1789799132332134000,2.2221337890625,1.7022265195846558,-2.072144031524658,0.30645421147346497
1789799132342105600,2.232105712890625,1.9205790758132935,-2.1751997470855713,0.4433486759662628
1789799132352078600,2.24207861328125,2.199831008911133,-2.4170267581939697,0.5006729364395142
1789799132362050800,2.25205078125,2.454231023788452,-2.7647805213928223,0.5029819011688232
1789799132372022500,2.2620224609375,2.629347801208496,-3.0419013500213623,0.5028330683708191
1789799132381995800,2.271995849609375,2.7153685092926025,-3.2004425525665283,0.514498233795166
1789799132391967700,2.2819677734375,2.7517082691192627,-3.314303398132324,0.44347330927848816
1789799132401939700,2.291939697265625,2.7378530502319336,-3.428903341293335,0.2629551887512207
1789799132411912700,2.30191259765625,2.7431514263153076,-3.5394866466522217,0.05445791408419609
1789799132421884700,2.311884765625,2.848848342895508,-3.745342493057251,-0.09649112075567245
1789799132431856600,2.321856689453125,3.081444501876831,-4.082101345062256,-0.16444167494773865
1789799132441829600,2.33182958984375,3.401711940765381,-4.4770684242248535,-0.1942983716726303
1789799132451801900,2.3418017578125,3.702125072479248,-4.753904819488525,-0.24583692848682404
1789799132461773600,2.351773681640625,3.9476327896118164,-4.792990207672119,-0.34635129570961
1789799132471746600,2.36174658203125,4.220466136932373,-4.657862186431885,-0.5238176584243774
1789799132481718800,2.37171875,4.664506912231445,-4.593105792999268,-0.6993775367736816
1789799132491690800,2.381690673828125,4.363256454467773,-4.381326198577881,-1.0255159139633179
1789799132501663700,2.391663818359375,3.3900458812713623,-4.754471302032471,-1.6294822692871094
1789799132511635700,2.4016357421875,2.582008123397827,-3.3857851028442383,-2.244168758392334
1789799132521607700,2.411607666015625,3.2761499881744385,-0.6809836030006409,-2.5579586029052734
1789799132531580700,2.42158056640625,4.472529888153076,-0.014267086051404476,-2.4461119174957275
1789799132541553000,2.431552978515625,5.293919086456299,-0.1856209933757782,-2.0960264205932617
1789799132551524600,2.441524658203125,5.68834924697876,-0.483532577753067,-1.5219502449035645
1789799132561497600,2.45149755859375,5.7270331382751465,-0.7854490280151367,-0.8570467829704285
1789799132571469800,2.4614697265625,5.536287784576416,-1.3074501752853394,-0.22078697383403778
1789799132581441500,2.471441650390625,5.342404365539551,-1.5116459131240845,0.2530578374862671
1789799132591414800,2.481414794921875,5.241257190704346,-0.9645905494689941,0.6789398789405823
1789799132601386800,2.49138671875,5.183566093444824,0.05625954270362854,0.7843558192253113
1789799132611358700,2.501358642578125,4.842562675476074,1.0446445941925049,0.4834843873977661
1789799132621331700,2.511331787109375,4.496248722076416,1.9532352685928345,-0.025363147258758545
1789799132631303700,2.5213037109375,4.006067276000977,2.8333170413970947,-0.4721139967441559
1789799132641275600,2.531275634765625,3.4685585498809814,3.0484189987182617,-0.8190993666648865
1789799132651248600,2.54124853515625,3.2064707279205322,2.8669567108154297,-1.121569275856018
1789799132661220900,2.551220947265625,3.079773426055908,3.1900634765625,-1.1751959323883057
1789799132671192600,2.561192626953125,2.807131290435791,2.973140001296997,-1.2614827156066895
1789799132681165600,2.57116552734375,2.728156566619873,2.6201443672180176,-1.2907135486602783
1789799132691137800,2.5811376953125,2.5978708267211914,2.6946356296539307,-1.2040660381317139
1789799132701110800,2.59111083984375,2.4434192180633545,2.6206777095794678,-1.0915889739990234
1789799132711082800,2.601082763671875,2.187613010406494,2.4079091548919678,-0.918648898601532
1789799132721054700,2.6110546875,1.9531527757644653,1.7302967309951782,-0.6983687281608582
1789799132731028000,2.621028076171875,1.8277314901351929,0.9443033933639526,-0.3166618347167969
1789799132740999700,2.630999755859375,1.809426188468933,0.15728949010372162,0.12630121409893036
1789799132750972000,2.640971923828125,1.8139830827713013,-0.26453205943107605,0.5725948214530945
1789799132760945000,2.65094482421875,1.7274101972579956,-0.7271755933761597,0.9440703392028809
1789799132770916600,2.66091650390625,1.6694318056106567,-1.1532142162322998,1.1887315511703491
1789799132780888800,2.670888916015625,1.6996365785598755,-1.3509137630462646,1.1738390922546387
1789799132790861800,2.68086181640625,1.7154117822647095,-0.7926539182662964,0.9060052633285522
1789799132800833800,2.690833740234375,1.640648365020752,-0.006443251855671406,0.29095327854156494
1789799132810806800,2.700806884765625,1.4683921337127686,0.2924393117427826,-0.27817994356155396
1789799132820778800,2.71077880859375,1.178153157234192,0.33276838064193726,-0.37485644221305847
1789799132830750700,2.720750732421875,0.8973672986030579,0.0912068784236908,-0.16673173010349274
1789799132840723700,2.7307236328125,0.6986457109451294,-0.3680017292499542,0.18468037247657776
1789799132850696000,2.740696044921875,0.6031196713447571,-0.940025806427002,0.5212650299072266
1789799132860667600,2.750667724609375,0.589516282081604,-1.494722843170166,0.8002516627311707
1789799132870640600,2.760640625,0.6625806093215942,-1.879729151725769,1.0232746601104736
1789799132880612900,2.77061279296875,0.7374974489212036,-2.017631769180298,1.1206296682357788
1789799132890585600,2.780585693359375,0.775191605091095,-2.0744309425354004,1.1452468633651733
1789799132900557800,2.790557861328125,0.7463873624801636,-2.1508359909057617,1.1052474975585938
1789799132910529800,2.80052978515625,0.6514193415641785,-2.302218437194824,1.000009536743164
1789799132920502800,2.810502685546875,0.4921068847179413,-2.5194571018218994,0.8801372051239014
1789799132930474800,2.820474853515625,0.36934927105903625,-2.6100502014160156,0.8028557300567627
1789799132940447000,2.830447021484375,0.4074457883834839,-2.693338394165039,0.7474110722541809
1789799132950419700,2.840419677734375,0.3358997106552124,-2.416151762008667,0.6893837451934814
1789799132960391700,2.8503916015625,0.17880383133888245,-1.9748111963272095,0.5992040634155273
1789799132970364000,2.860364013671875,-0.10964474081993103,-1.6282252073287964,0.4649098813533783
1789799132980336600,2.870336669921875,-0.4928203523159027,-1.4133152961730957,0.38975974917411804
1789799132990308900,2.880308837890625,-0.8417866230010986,-1.2492609024047852,0.27394899725914
1789799133000281900,2.89028173828125,-1.1661758422851562,-1.0366580486297607,0.027703000232577324
1789799133010253600,2.900253662109375,-1.5605841875076294,-0.6899709701538086,-0.25829359889030457
1789799133020225800,2.910225830078125,-2.0815913677215576,-0.562701404094696,-0.40908923745155334
1789799133030198800,2.92019873046875,-2.85269832611084,-0.8139714598655701,-0.2580017149448395
1789799133040170800,2.930170654296875,-3.433835506439209,-0.8891516923904419,-0.13230770826339722
1789799133050143700,2.940143798828125,-3.532809019088745,-0.9909792542457581,-0.23049180209636688
1789799133060115700,2.95011572265625,-3.4962055683135986,-0.9104069471359253,-0.5093300938606262
1789799133070087700,2.960087646484375,-3.641845941543579,-0.9619548320770264,-0.700173556804657
1789799133080060700,2.970060791015625,-3.7452967166900635,-1.2008323669433594,-0.6461473107337952
1789799133090033000,2.980032958984375,-3.7596588134765625,-1.4934877157211304,-0.595041811466217
1789799133100004600,2.990004638671875,-3.501014232635498,-1.7656052112579346,-0.5684727430343628
1789799133109977600,2.9999775390625,-3.32535982131958,-1.7766139507293701,-0.3026738464832306
1789799133119949800,3.00994970703125,-3.20491623878479,-1.6487946510314941,-0.2888139486312866
1789799133129922600,3.019922607421875,-2.8718857765197754,-1.4740697145462036,-0.37125158309936523
1789799133139894800,3.029894775390625,-2.4649507999420166,-1.7706087827682495,-0.2673552632331848
1789799133149866000,3.039865966796875,-1.6008937358856201,-2.2116212844848633,0.03826136887073517
1789799133159839200,3.049839111328125,-0.5803022384643555,-2.315664529800415,0.4357331097126007
1789799133169811200,3.059811279296875,0.04837392270565033,-2.087972402572632,0.6317513585090637
1789799133179784200,3.0697841796875,0.09424527734518051,-1.722697377204895,0.6544289588928223
1789799133189756200,3.079756103515625,-0.10042513906955719,-1.579086422920227,0.6794989109039307
1789799133199728000,3.08972802734375,-0.12903760373592377,-1.4179610013961792,0.7022066116333008
1789799133209701400,3.099701416015625,0.10952463001012802,-1.2213495969772339,0.5653901696205139
1789799133219673000,3.109673095703125,0.3926602005958557,-0.8303152918815613,0.3263336420059204
1789799133229646000,3.11964599609375,0.7328388094902039,-0.07549768686294556,-0.1407800167798996
1789799133239618300,3.129618408203125,1.0976802110671997,0.9020046591758728,-0.8269573450088501
1789799133249590300,3.13959033203125,1.4044411182403564,1.7239233255386353,-1.352149486541748
1789799133259563300,3.149563232421875,1.4604122638702393,1.710875391960144,-1.209839940071106
1789799133269535200,3.15953515625,1.0841563940048218,1.0756922960281372,-0.34019938111305237
1789799133279508200,3.16950830078125,0.8380781412124634,0.5616580247879028,0.13753868639469147
1789799133289480200,3.179480224609375,0.855218768119812,-0.1418069303035736,0.09069767594337463
1789799133299452400,3.189452392578125,1.348562240600586,-0.2686695456504822,-0.04547081142663956
1789799133309425200,3.199425048828125,1.936159610748291,0.10368431359529495,-0.5357425212860107
1789799133319397000,3.209397216796875,1.9864020347595215,0.6920170783996582,-0.9313234090805054
1789799133329370400,3.219370361328125,1.7095712423324585,1.1928257942199707,-1.1459197998046875
1789799133339342000,3.229342041015625,1.2146719694137573,1.5455652475357056,-1.1726393699645996
1789799133349314300,3.239314208984375,0.9111331701278687,1.5134962797164917,-1.0055742263793945
1789799133359287300,3.249287353515625,0.9244852066040039,1.2355631589889526,-0.7463780641555786
1789799133369259000,3.259259033203125,0.9311249852180481,1.0192921161651611,-0.5057883262634277
1789799133379232300,3.269232177734375,0.8382619023323059,0.8439818620681763,-0.20230276882648468
1789799133389204200,3.279204345703125,0.8032927513122559,0.7177842259407043,-0.0651869922876358
1789799133399176200,3.28917626953125,0.8566190600395203,0.5807898640632629,-0.08592715859413147
1789799133409149200,3.299149169921875,0.9907822012901306,0.7949528098106384,-0.18226860463619232
1789799133419121200,3.30912109375,1.290734887123108,1.2214031219482422,-0.34679150581359863
1789799133429094400,3.319094482421875,1.408431887626648,1.62187659740448,-0.4969434440135956
1789799133439066000,3.329066162109375,1.3021923303604126,1.6943060159683228,-0.4054367244243622
1789799133449662200,3.339662109375,1.388023018836975,1.6350035667419434,-0.13198599219322205
1789799133459635200,3.34963525390625,1.2699419260025024,1.4156997203826904,-0.28357020020484924
1789799133469607200,3.359607177734375,1.0299506187438965,1.0036298036575317,-0.39673349261283875
1789799133479579100,3.3695791015625,0.8093208074569702,0.7482848763465881,-0.37867486476898193
1789799133489552400,3.379552490234375,0.5853926539421082,0.47127485275268555,-0.3615451455116272
1789799133499524000,3.389524169921875,0.25340989232063293,-0.2276400774717331,-0.23762081563472748
1789799133509497000,3.3994970703125,-0.04037565365433693,-0.8046512007713318,-0.20083163678646088
1789799133519469300,3.40946923828125,-0.26632195711135864,-1.003165602684021,-0.21753019094467163
1789799133529441000,3.41944091796875,-0.6883432269096375,-0.685825765132904,-0.4398125410079956
1789799133539414300,3.429414306640625,-1.4409488439559937,-0.9463431239128113,-0.652363121509552
1789799133549386200,3.43938623046875,-1.8374983072280884,-1.0981643199920654,-0.6166978478431702
1789799133559359200,3.449359130859375,-2.70369553565979,-1.5061947107315063,-0.24467472732067108
1789799133569331200,3.459331298828125,-3.4837822914123535,-2.712409019470215,-0.06682030856609344
1789799133579304200,3.46930419921875,-3.63553524017334,-2.8742852210998535,-0.47473031282424927
1789799133589276400,3.4792763671875,-2.8802242279052734,-2.6017587184906006,-1.08916437625885
1789799133599248100,3.489248046875,-1.7068822383880615,-2.0451924800872803,-1.538511872291565
1789799133609221000,3.49922119140625,-0.627469539642334,-1.3936588764190674,-1.6291542053222656
1789799133619193300,3.509193359375,-0.1595880687236786,-0.8540765643119812,-1.306882381439209
1789799133629166000,3.519166015625,-0.17477846145629883,-0.47121039032936096,-0.760622501373291
1789799133639138300,3.52913818359375,-0.3359535038471222,-0.19020509719848633,-0.13313567638397217
1789799133649111300,3.539111328125,-0.5021403431892395,0.031202128157019615,0.3862057626247406
1789799133659083000,3.5490830078125,-0.6251240372657776,0.16577298939228058,0.7015815377235413
1789799133669055200,3.55905517578125,-0.696811318397522,0.19687817990779877,0.786697268486023
1789799133679028200,3.5690283203125,-0.7287620306015015,0.13355965912342072,0.6458860635757446
1789799133689000200,3.579000244140625,-0.7327381372451782,0.02003229781985283,0.32981252670288086
1789799133698973200,3.58897314453125,-0.6808426976203918,-0.1545267254114151,-0.12623809278011322
1789799133708945200,3.598945068359375,-0.6538425087928772,-0.40043556690216064,-0.4899933934211731
1789799133718918100,3.608918212890625,-0.673270046710968,-0.5524232387542725,-0.6983857750892639
1789799133728890000,3.61889013671875,-0.7151879072189331,-0.5834213495254517,-0.799170970916748
1789799133738862300,3.6288623046875,-0.7496702671051025,-0.5423951148986816,-0.8064326047897339
1789799133748835000,3.6388349609375,-0.8289898633956909,-0.1878868192434311,-1.3646221160888672
1789799133758807300,3.648807373046875,-0.9433683753013611,0.15469130873680115,-1.6296277046203613
1789799133768780300,3.6587802734375,-1.1294423341751099,0.3270241916179657,-1.3592126369476318
1789799133778752000,3.668751953125,-1.524003267288208,0.38416337966918945,-1.2684577703475952
1789799133788725200,3.678725341796875,-1.7889823913574219,0.35200199484825134,-1.1433699131011963
1789799133798697200,3.688697265625,-1.9029828310012817,0.2991744577884674,-0.8097870945930481
1789799133808670200,3.698670166015625,-2.0570790767669678,0.23954015970230103,-0.3302713930606842
1789799133818642200,3.70864208984375,-2.2492153644561768,0.19093932211399078,0.09342741966247559
1789799133828614100,3.7186142578125,-2.3048362731933594,0.2621021866798401,0.26097753643989563
1789799133838587400,3.72858740234375,-2.14011549949646,0.22214385867118835,0.24424809217453003
1789799133848559000,3.73855908203125,-1.8765482902526855,0.19903667271137238,0.16723133623600006
1789799133858532000,3.748531982421875,-1.753756046295166,0.13508377969264984,0.08913067728281021
1789799133868504300,3.75850439453125,-1.6514954566955566,0.07614323496818542,0.047576308250427246
1789799133878477000,3.76847705078125,-1.6504874229431152,0.05204296112060547,0.13454023003578186
1789799133888449300,3.77844921875,-1.5238261222839355,0.12241938710212708,0.26100391149520874
1789799133898422300,3.78842236328125,-1.3259016275405884,0.264238566160202,0.33602622151374817
1789799133908394000,3.79839404296875,-1.2087666988372803,0.15933692455291748,0.40539517998695374
1789799133918366200,3.8083662109375,-1.1218867301940918,-0.04434642568230629,0.5336849689483643
1789799133928339200,3.818339111328125,-0.9645431637763977,0.0075945365242660046,0.7144408822059631
1789799133938311200,3.828311279296875,-0.7394330501556396,0.1578119993209839,0.8391479253768921
1789799133948284200,3.8382841796875,-0.4738682210445404,0.43434691429138184,0.7602337002754211
1789799133958256000,3.848256103515625,-0.08730561286211014,0.47507837414741516,0.6359782814979553
1789799133968229400,3.8582294921875,0.18006351590156555,0.4904453456401825,0.6156032681465149
1789799133978201000,3.868201171875,0.30809417366981506,0.5583301186561584,0.721473217010498
1789799133988174000,3.878174072265625,0.5775046348571777,0.5932329893112183,0.7083619832992554
1789799133998146300,3.888146240234375,0.7021834254264832,0.4479522109031677,0.5295064449310303
1789799134008119000,3.898119140625,0.8310633897781372,0.15677016973495483,0.48184865713119507
1789799134018091300,3.90809130859375,1.014822006225586,0.17278482019901276,0.36279043555259705
1789799134028063200,3.918063232421875,1.1377404928207397,0.06524824351072311,0.38091886043548584
1789799134038036200,3.9280361328125,1.0641884803771973,-0.3003300130367279,0.30084851384162903
1789799134048008200,3.93800830078125,1.0470987558364868,-0.4098098874092102,0.3600063920021057
1789799134057981200,3.947981201171875,1.2485709190368652,0.17467594146728516,0.20061565935611725
1789799134067953200,3.957953125,1.6881754398345947,0.997546911239624,-0.15977981686592102
1789799134077926100,3.967926025390625,1.8878858089447021,1.8983403444290161,-0.8420214653015137
1789799134087898400,3.9778984375,1.982176661491394,1.6746777296066284,-1.267439842224121
1789799134097871400,3.987871337890625,1.434430480003357,0.803280770778656,-1.0815544128417969
1789799134107843000,3.997843017578125,0.7265065908432007,-0.046433545649051666,-0.490669846534729
1789799134117816300,4.00781640625,0.6278514266014099,0.3037116825580597,-0.2020614892244339
1789799134127788300,4.017788330078125,0.6308570504188538,1.1578556299209595,0.08214040845632553
1789799134137761000,4.027760986328125,0.6640557646751404,1.2328840494155884,0.29500794410705566
1789799134147732700,4.037732666015625,0.5711609721183777,1.085192084312439,0.3502964973449707
1789799134157704700,4.04770458984375,0.4264466464519501,1.02519953250885,0.3396686315536499
1789799134167678000,4.057677978515625,0.3264651894569397,1.112768292427063,0.20461812615394592
1789799134177649700,4.067649658203125,0.4083821773529053,1.2737129926681519,0.055458731949329376
1789799134187623000,4.077622802734375,0.5622335076332092,1.3437801599502563,-0.12195173650979996
1789799134197595000,4.087594970703125,0.7635578513145447,1.548353910446167,-0.21201984584331512
1789799134207568000,4.09756787109375,0.9990795254707336,1.9092252254486084,-0.2660796046257019
1789799134217539800,4.107539794921875,1.3385820388793945,2.2628121376037598,-0.3310311734676361
1789799134227512800,4.117512939453125,1.4694633483886719,2.3223354816436768,-0.3294292986392975
1789799134237485000,4.127485107421875,1.4166251420974731,2.079655170440674,-0.3304106593132019
1789799134247457800,4.137457763671875,1.3601248264312744,1.6590135097503662,-0.30392366647720337
1789799134257429800,4.1474296875,1.38033926486969,1.2067084312438965,-0.30750536918640137
1789799134267403000,4.157403076171875,1.3008953332901,0.777291476726532,-0.3765869438648224
1789799134277374700,4.167374755859375,1.2354217767715454,0.44370394945144653,-0.46363770961761475
1789799134287347000,4.177346923828125,1.3253282308578491,0.16556872427463531,-0.5988200306892395
1789799134297320000,4.18731982421875,1.389371395111084,0.040108803659677505,-0.6830853819847107
1789799134307291600,4.197291748046875,1.3553478717803955,-0.03526131808757782,-0.661033034324646
1789799134317265000,4.207264892578125,1.3455711603164673,0.04984026029706001,-0.5293818116188049
1789799134327236900,4.21723681640625,1.3738608360290527,0.09256189316511154,-0.4747052788734436
1789799134337209900,4.2272099609375,1.3545126914978027,-0.10969293862581253,-0.41598761081695557
1789799134347181800,4.237181884765625,1.3741344213485718,-0.2393324226140976,-0.42139917612075806
1789799134357154800,4.24715478515625,1.4266306161880493,-0.1802280992269516,-0.4759364426136017
1789799134367127000,4.257126953125,1.4332419633865356,-0.06876175105571747,-0.5578363537788391
1789799134377099800,4.267099853515625,1.4656180143356323,-0.03193769231438637,-0.6191260814666748
1789799134387071700,4.27707177734375,1.4591315984725952,-0.02461373433470726,-0.698838472366333
1789799134397045000,4.287044921875,1.4564764499664307,-0.03447115793824196,-0.7755319476127625
1789799134407016700,4.2970166015625,1.4792498350143433,-0.18266382813453674,-0.7819608449935913
1789799134416989700,4.30698974609375,1.537971019744873,-0.4317849576473236,-0.6916045546531677
1789799134426962000,4.3169619140625,1.559269905090332,-1.4592005014419556,-0.8098691701889038
1789799134436934700,4.3269345703125,1.4839648008346558,-1.662590742111206,-0.5767589211463928
1789799134446907000,4.336906982421875,1.4141523838043213,-0.9986944794654846,-0.2312667816877365
1789799134456879900,4.3468798828125,1.2265100479125977,-0.45232832431793213,0.023925572633743286
1789799134466851600,4.3568515625,1.0724014043807983,-0.3625326454639435,0.09578564763069153
1789799134476824800,4.366824951171875,0.9232953190803528,-0.4609875977039337,0.07771716266870499
1789799134486796800,4.376796875,0.8010860681533813,-0.47346022725105286,0.035714589059352875
1789799134496769800,4.386769775390625,0.6494091749191284,-0.42200717329978943,-0.014689197763800621
1789799134506741800,4.39674169921875,0.5794119834899902,-0.3682331442832947,-0.046118494123220444
1789799134516714000,4.4067138671875,0.47705498337745667,-0.2883550822734833,-0.07260815799236298
1789799134526687000,4.41668701171875,0.6307957768440247,-0.14647705852985382,-0.014297179877758026
1789799134536658700,4.42665869140625,0.4686460494995117,-0.1127593070268631,-0.0199835617095232
1789799134546632000,4.4366318359375,0.27864202857017517,-0.08697324991226196,-0.05131858214735985
1789799134556604000,4.44660400390625,0.2658865451812744,-0.048413071781396866,-0.051120974123477936
1789799134566576600,4.45657666015625,0.22032970190048218,-0.043355196714401245,-0.026583939790725708
1789799134576548900,4.466548828125,0.12635554373264313,-0.08325573801994324,-0.005035771057009697
1789799134586521900,4.47652197265625,0.03020424209535122,-0.11809441447257996,0.021104486659169197
1789799134596493800,4.486493896484375,-0.06666877865791321,-0.16012628376483917,0.04643381014466286
1789799134606466800,4.496466796875,-0.14949175715446472,-0.1911505162715912,0.0842168778181076
1789799134616438800,4.506438720703125,-0.21730409562587738,-0.2047792375087738,0.12684716284275055
1789799134626412000,4.516412109375,-0.2731087803840637,-0.188734769821167,0.1642398089170456
1789799134636383700,4.5263837890625,-0.3091706335544586,-0.13420094549655914,0.19744382798671722
1789799134646356700,4.536356689453125,-0.3502291142940521,-0.003668770659714937,0.23707832396030426
1789799134656329000,4.546328857421875,-0.36434733867645264,0.09475687146186829,0.27091220021247864
1789799134666301700,4.5563017578125,-0.35921168327331543,0.16688086092472076,0.30535832047462463
1789799134676274000,4.56627392578125,-0.35369229316711426,0.17874498665332794,0.31720566749572754
1789799134686247000,4.576246826171875,-0.36065512895584106,0.12712572515010834,0.3075349032878876
1789799134696218600,4.586218505859375,-0.38833335041999817,0.05789792165160179,0.3018703758716583
1789799134706192000,4.59619189453125,-0.45783865451812744,0.012134427204728127,0.3077857792377472
1789799134716163800,4.606163818359375,-0.4930267333984375,-0.1362566351890564,0.35407233238220215
1789799134726136800,4.61613671875,-0.6260196566581726,-0.22554656863212585,0.42409002780914307
1789799134736108800,4.62610888671875,-0.6619856953620911,-0.36570367217063904,0.38830405473709106
1789799134746081800,4.636081787109375,-0.6950192451477051,-0.46605345606803894,0.2836945652961731
1789799134756054000,4.646053955078125,-0.747767984867096,-0.4946720600128174,0.1688939481973648
1789799134766026800,4.65602685546875,-0.7388650178909302,-0.5157610774040222,0.06798091530799866
1789799134775998700,4.665998779296875,-0.7442565560340881,-0.5962311625480652,-0.007933290675282478
1789799134785972000,4.675971923828125,-0.7096480131149292,-0.6356840133666992,-0.0440305732190609
1789799134795943700,4.685943603515625,-0.7112957239151001,-0.5286494493484497,-0.05325416848063469
1789799134805916700,4.695916748046875,-0.7256307005882263,-0.4334941804409027,-0.061530470848083496
1789799134815889000,4.705888916015625,-0.7429715991020203,-0.41120457649230957,-0.10311999171972275
1789799134825862000,4.71586181640625,-0.7444778680801392,-0.3768064081668854,-0.17358137667179108
1789799134835833900,4.725833740234375,-0.766680121421814,-0.34281861782073975,-0.2500854730606079
1789799134845806800,4.735806884765625,-0.8351721167564392,-0.25890401005744934,-0.303805410861969
1789799134855778800,4.74577880859375,-0.8675438761711121,-0.26608574390411377,-0.33259472250938416
1789799134865751800,4.755751708984375,-0.8932828307151794,-0.3313819169998169,-0.3309275805950165
1789799134875723800,4.765723876953125,-0.9146421551704407,-0.35397857427597046,-0.30883532762527466
1789799134885696800,4.77569677734375,-0.9619212746620178,-0.3171190917491913,-0.28498753905296326
1789799134895668700,4.785668701171875,-1.0183498859405518,-0.2571311295032501,-0.28747493028640747
1789799134905641700,4.795641845703125,-1.0658679008483887,-0.1898421049118042,-0.2861265540122986
1789799134915614000,4.805614013671875,-1.1024099588394165,-0.1629343181848526,-0.3099389374256134
1789799134925587000,4.8155869140625,-1.1235687732696533,-0.13685213029384613,-0.3596670925617218
1789799134935559000,4.825558837890625,-1.1128857135772705,-0.14129161834716797,-0.4101438522338867
1789799134945532000,4.835531982421875,-1.0940619707107544,-0.205381378531456,-0.4396045207977295
1789799134955503900,4.84550390625,-1.0889087915420532,-0.2770718038082123,-0.43242013454437256
1789799134965476900,4.855476806640625,-1.11028254032135,-0.2968202233314514,-0.3934921622276306
1789799134975448800,4.86544873046875,-1.1315265893936157,-0.29334187507629395,-0.37050163745880127
1789799134985421800,4.875421875,-1.1638247966766357,-0.24906282126903534,-0.37725353240966797
1789799134995393800,4.885393798828125,-1.1833080053329468,-0.21890917420387268,-0.3871178925037384
1789799135005366800,4.89536669921875,-1.1856904029846191,-0.2390650510787964,-0.3956565260887146
1789799135015339000,4.905339111328125,-1.1904252767562866,-0.2895199656486511,-0.40312430262565613
1789799135025311700,4.915311767578125,-1.1679092645645142,-0.35518792271614075,-0.4191450774669647
1789799135035283700,4.92528369140625,-1.130845546722412,-0.4425840675830841,-0.4656888544559479
1789799135045257000,4.935257080078125,-1.1165857315063477,-0.5075747966766357,-0.48947674036026
1789799135055228700,4.945228759765625,-1.1686973571777344,-0.43918749690055847,-0.4939876198768616
1789799135065201700,4.95520166015625,-1.1791191101074219,-0.32552483677864075,-0.5390786528587341
1789799135075174000,4.965173828125,-1.1877570152282715,-0.20894336700439453,-0.5801701545715332
1789799135085147000,4.97514697265625,-1.205032229423523,-0.018369153141975403,-0.5667936205863953
1789799135095118800,4.985118896484375,-1.2140341997146606,0.15216343104839325,-0.5283080339431763
1789799135105091800,4.995091796875,-1.211908221244812,0.0683649405837059,-0.4754038155078888
1789799135115063800,5.005063720703125,-1.2361048460006714,-0.13647155463695526,-0.3983074426651001
1789799135125036800,5.015036865234375,-1.2516969442367554,-0.3357260823249817,-0.34837767481803894
1789799135135009800,5.025009765625,-1.2884676456451416,-0.2877545654773712,-0.3374730944633484
1789799135144983800,5.03498388671875,-1.260783076286316,-0.33590877056121826,-0.3902745246887207
1789799135154956800,5.044956787109375,-1.247622013092041,-0.2518463432788849,-0.3965910077095032
1789799135164929000,5.054928955078125,-1.2588216066360474,-0.15989458560943604,-0.38190901279449463
1789799135174902000,5.064902099609375,-1.2343552112579346,-0.08063758909702301,-0.3609185218811035
1789799135184873700,5.074873779296875,-1.1700990200042725,-0.2817395329475403,-0.3645113706588745
1789799135194847000,5.084846923828125,-1.093711018562317,-0.3586854636669159,-0.3381125330924988
1789799135204819000,5.09481884765625,-1.0079715251922607,-0.34812334179878235,-0.27960580587387085
1789799135214791700,5.104791748046875,-0.9225165843963623,-0.3725157678127289,-0.1861773282289505
1789799135224764000,5.114763916015625,-0.8192245364189148,-0.4268525242805481,-0.07665163278579712
1789799135234737000,5.12473681640625,-0.7058543562889099,-0.40700796246528625,-0.0012058793799951673
1789799135244708900,5.134708984375,-0.6453483700752258,-0.1976398378610611,0.04482126608490944
1789799135254681900,5.144681884765625,-0.5932779908180237,0.04205477610230446,0.09636861085891724
1789799135264653800,5.15465380859375,-0.5088360905647278,0.16641773283481598,0.17767731845378876
1789799135274627000,5.164626953125,-0.42959797382354736,0.2050117403268814,0.19417986273765564
1789799135284598800,5.174598876953125,-0.36073315143585205,0.3220965564250946,0.1769915521144867
1789799135294571800,5.18457177734375,-0.3403485119342804,0.5099548697471619,0.24780207872390747
1789799135304544000,5.1945439453125,-0.2171512246131897,0.37266144156455994,0.262896329164505
1789799135314516700,5.204516845703125,-0.15019403398036957,0.3819686770439148,0.23852042853832245
1789799135324489000,5.214489013671875,-0.09446205943822861,0.40950867533683777,0.2440587431192398
1789799135334462000,5.2244619140625,-0.01004943810403347,0.3969303071498871,0.2886565625667572
1789799135344433700,5.23443359375,0.11098404228687286,0.37696486711502075,0.30993202328681946
1789799135354407000,5.244406982421875,0.22804515063762665,0.3907821476459503,0.2866797149181366
1789799135364379000,5.25437890625,0.32628196477890015,0.4288669228553772,0.28480616211891174
1789799135374352000,5.264351806640625,0.40342602133750916,0.4717440903186798,0.30915093421936035
1789799135384323800,5.27432373046875,0.4725278615951538,0.5240139365196228,0.31267908215522766
1789799135394296800,5.284296875,0.5374546647071838,0.5488919019699097,0.31901395320892334
1789799135404269800,5.294269775390625,0.6308879256248474,0.6054004430770874,0.2948175370693207
1789799135414241800,5.30424169921875,0.7461689710617065,0.6723659038543701,0.27240437269210815
1789799135424214800,5.31421484375,0.8606279492378235,0.7115122079849243,0.26811081171035767
1789799135434187000,5.32418701171875,0.974384605884552,0.7413886189460754,0.26325559616088867
1789799135444160000,5.334159912109375,1.0884182453155518,0.7866412997245789,0.2684282660484314
1789799135454132000,5.344132080078125,1.187397837638855,0.8196573257446289,0.2713039517402649
1789799135464105000,5.35410498046875,1.273998498916626,0.8403282761573792,0.2584323585033417
1789799135474077000,5.364076904296875,1.3447299003601074,0.8419221639633179,0.2363257110118866
1789799135484050000,5.3740498046875,1.4078459739685059,0.8045646548271179,0.1843850165605545
1789799135494022000,5.38402197265625,1.4765560626983643,0.747694730758667,0.0994136705994606
1789799135503995000,5.393994873046875,1.5619159936904907,0.6935968399047852,0.038002509623765945
1789799135513966800,5.403966796875,1.6484745740890503,0.615814745426178,0.0035212314687669277
1789799135523939800,5.41393994140625,1.7291617393493652,0.5117458701133728,-0.021221932023763657
1789799135533912000,5.423912109375,1.8069188594818115,0.43628862500190735,-0.02744387462735176
1789799135543884800,5.433884765625,1.8426121473312378,0.40073198080062866,-0.03677372634410858
1789799135553856800,5.443856689453125,1.8449000120162964,0.41006341576576233,-0.0731719508767128
1789799135563830000,5.453830078125,1.8120605945587158,0.42753028869628906,-0.12447188794612885
1789799135573801700,5.4638017578125,1.7774043083190918,0.4640781879425049,-0.16832242906093597
1789799135583774700,5.473774658203125,1.7676942348480225,0.4672848880290985,-0.20151980221271515
1789799135593748000,5.483748046875,1.7575933933258057,0.4621897339820862,-0.2187667042016983
1789799135603720000,5.493719970703125,1.76804780960083,0.5061292052268982,-0.24555569887161255
1789799135613692700,5.503692626953125,1.7714325189590454,0.5441346764564514,-0.266140878200531
1789799135623665000,5.513664794921875,1.761615514755249,0.568980872631073,-0.2872043550014496
1789799135633638000,5.523637939453125,1.751151442527771,0.5623459219932556,-0.3062281012535095
1789799135643609900,5.53360986328125,1.7490259408950806,0.5238259434700012,-0.313475638628006
1789799135653582800,5.543582763671875,1.7311828136444092,0.5295863747596741,-0.3200427293777466
1789799135663554800,5.553554931640625,1.6873564720153809,0.5353369116783142,-0.33770880103111267
1789799135673528000,5.563528076171875,1.6267485618591309,0.4781585931777954,-0.36979934573173523
1789799135683499800,5.573499755859375,1.5683808326721191,0.4075413942337036,-0.3722390830516815
1789799135693472800,5.58347265625,1.4974606037139893,0.32284462451934814,-0.34944188594818115
1789799135703445000,5.593445068359375,1.4464813470840454,0.28824830055236816,-0.3270353674888611
1789799135713417700,5.603417724609375,1.3968620300292969,0.1856449693441391,-0.3271024823188782
1789799135723390000,5.613389892578125,1.3429216146469116,0.11040480434894562,-0.31814122200012207
1789799135733363000,5.623363037109375,1.2800168991088867,0.06874790787696838,-0.2890224754810333
1789799135743334700,5.633334716796875,1.201162338256836,-0.004942294210195541,-0.2782720923423767
1789799135753308000,5.643307861328125,1.1083003282546997,-0.08105970174074173,-0.2694317400455475
1789799135763281000,5.653281005859375,1.0298545360565186,-0.09743281453847885,-0.26007047295570374
1789799135773252900,5.6632529296875,0.9296983480453491,-0.12589508295059204,-0.24566036462783813
1789799135783225900,5.673225830078125,0.8442843556404114,-0.18577812612056732,-0.22030813992023468
1789799135793197800,5.68319775390625,0.7574759721755981,-0.2732621729373932,-0.1831810027360916
1789799135803170800,5.6931708984375,0.6745416522026062,-0.3169976472854614,-0.14644216001033783
1789799135813142800,5.703142822265625,0.617159903049469,-0.2920864522457123,-0.12594914436340332
1789799135823115800,5.71311572265625,0.5494378209114075,-0.23702585697174072,-0.10844418406486511
1789799135833088000,5.723087890625,0.48903706669807434,-0.19650933146476746,-0.09282607585191727
1789799135843061000,5.73306103515625,0.42921900749206543,-0.2052847146987915,-0.08390821516513824
1789799135853032700,5.74303271484375,0.3526720404624939,-0.18546812236309052,-0.07495733350515366
1789799135863006000,5.753005859375,0.2971235513687134,-0.1564287543296814,-0.05884147807955742
1789799135872978000,5.76297802734375,0.24088717997074127,-0.14799238741397858,-0.03356967866420746
1789799135882950700,5.77295068359375,0.16764704883098602,-0.15142548084259033,0.004090349189937115
1789799135892923000,5.7829228515625,0.05849659815430641,-0.1609382927417755,0.046121690422296524
1789799135902895900,5.792895751953125,-0.08143147826194763,-0.2046159952878952,0.07624896615743637
1789799135912868900,5.802868896484375,-0.2208426296710968,-0.2611338496208191,0.12470997124910355
1789799135922840800,5.8128408203125,-0.33301523327827454,-0.2759428918361664,0.19283336400985718
1789799135932813800,5.822813720703125,-0.42248281836509705,-0.22650238871574402,0.25418993830680847
1789799135942786000,5.8327861328125,-0.4907950162887573,-0.1998894065618515,0.2777421474456787
1789799135952758800,5.8427587890625,-0.5581815242767334,-0.18001903593540192,0.28957536816596985
1789799135962731000,5.85273095703125,-0.6504858732223511,-0.08509279042482376,0.3054131865501404
1789799135972704000,5.8627041015625,-0.7081076502799988,-0.03250840678811073,0.326625794172287
1789799135982675700,5.87267578125,-0.8092965483665466,-0.014724617823958397,0.3732132613658905
1789799135992649000,5.88264892578125,-0.8986266851425171,-0.1332280933856964,0.4258125424385071
1789799136002621000,5.892620849609375,-0.8748486638069153,-0.35655146837234497,0.48081880807876587
1789799136012594000,5.902593994140625,-0.8902665376663208,-0.5132944583892822,0.5339078903198242
1789799136022566000,5.91256591796875,-0.9149622917175293,-0.6083344221115112,0.5475760102272034
1789799136032539000,5.922538818359375,-0.9362508058547974,-0.6785947680473328,0.5007661581039429
1789799136042512000,5.932511962890625,-0.9438314437866211,-0.7525019645690918,0.4105558395385742
1789799136052483800,5.94248388671875,-0.9281843304634094,-0.8352762460708618,0.3039095401763916
1789799136062456800,5.952456787109375,-0.8940945267677307,-0.8804458379745483,0.21931451559066772
1789799136072429000,5.962428955078125,-0.8681742548942566,-0.7853877544403076,0.15962561964988708
1789799136082401800,5.97240185546875,-0.8872560858726501,-0.6507218480110168,0.09627407044172287
1789799136092373800,5.982373779296875,-0.909993588924408,-0.553884744644165,0.03933675214648247
1789799136102347000,5.992346923828125,-0.9360859394073486,-0.5392680168151855,-0.010161557234823704
1789799136112318700,6.002318603515625,-0.9662563800811768,-0.5785980820655823,-0.0519244484603405
1789799136122291700,6.012291748046875,-0.9938006401062012,-0.6430756449699402,-0.06428498029708862
1789799136132264000,6.022263916015625,-1.0371057987213135,-0.6852201819419861,-0.05296707898378372
1789799136142237000,6.03223681640625,-1.0882952213287354,-0.6635838150978088,-0.024460336193442345
1789799136152207600,6.04220751953125,-1.1087634563446045,-0.5702243447303772,-0.020966533571481705
1789799136162180600,6.0521806640625,-1.1076513528823853,-0.45640987157821655,-0.05470798537135124
1789799136172153600,6.062153564453125,-1.1164474487304688,-0.3916870653629303,-0.1245507150888443
1789799136182125600,6.07212548828125,-1.1546334028244019,-0.4063650965690613,-0.19395749270915985
1789799136192098600,6.0820986328125,-1.1900596618652344,-0.4510822296142578,-0.24687182903289795
1789799136202070800,6.09207080078125,-1.227679967880249,-0.5085010528564453,-0.28974980115890503
1789799136212043500,6.10204345703125,-1.262940764427185,-0.520858645439148,-0.2977414131164551
1789799136222015700,6.112015625,-1.3099548816680908,-0.5019935965538025,-0.2931831479072571
1789799136231988700,6.12198876953125,-1.3766210079193115,-0.4071051776409149,-0.28344956040382385
1789799136241960400,6.13196044921875,-1.4065396785736084,-0.27407950162887573,-0.27409014105796814
1789799136251933700,6.14193359375,-1.4207953214645386,-0.1471705436706543,-0.2787490785121918
1789799136261905700,6.15190576171875,-1.4354171752929688,-0.04562341049313545,-0.3382624685764313
1789799136271878700,6.161878662109375,-1.4379147291183472,0.026701917871832848,-0.408552348613739
1789799136281850600,6.1718505859375,-1.401615023612976,0.07691209018230438,-0.4070764183998108
1789799136291823600,6.18182373046875,-1.3731790781021118,0.037164945155382156,-0.3445749580860138
1789799136301796600,6.191796630859375,-1.422155737876892,0.019568374380469322,-0.27556365728378296
1789799136311768600,6.2017685546875,-1.450197696685791,0.018308965489268303,-0.28294995427131653
1789799136321741600,6.211741455078125,-1.457377552986145,-0.0044293696992099285,-0.3112071454524994
1789799136331713800,6.2217138671875,-1.424716591835022,-0.09269877523183823,-0.3277139663696289
1789799136341686800,6.231686767578125,-1.4269773960113525,-0.13486194610595703,-0.3071008324623108
1789799136351658500,6.241658447265625,-1.4269936084747314,-0.14799664914608002,-0.2758827209472656
1789799136361631700,6.2516318359375,-1.4530938863754272,-0.20399174094200134,-0.2483629435300827
1789799136371603700,6.261603759765625,-1.3817685842514038,-0.485736608505249,-0.26792412996292114
1789799136381576400,6.271576416015625,-1.3289871215820312,-0.6311292052268982,-0.29164597392082214
1789799136391548700,6.281548583984375,-1.274748682975769,-0.7236799597740173,-0.3146737813949585
1789799136401521700,6.291521728515625,-1.2584415674209595,-0.7140659093856812,-0.30178436636924744
1789799136411494700,6.30149462890625,-1.1159720420837402,-0.6956192851066589,-0.2946561276912689
1789799136421466600,6.311466552734375,-1.021092414855957,-0.6717451214790344,-0.25206926465034485
1789799136431439600,6.321439697265625,-0.9182451367378235,-0.6952735781669617,-0.18162386119365692
1789799136441411800,6.331411865234375,-0.8140407204627991,-0.6551613211631775,-0.07348433881998062
1789799136451384600,6.341384521484375,-0.7006108164787292,-0.4784853458404541,0.03044951893389225
1789799136461356500,6.3513564453125,-0.6286274790763855,-0.28457021713256836,0.08709868043661118
1789799136471329800,6.361329833984375,-0.5627762675285339,-0.0869695171713829,0.1667916476726532
1789799136481301500,6.371301513671875,-0.5197014808654785,0.09976973384618759,0.24794162809848785
1789799136491274500,6.3812744140625,-0.44700199365615845,0.21571844816207886,0.29830095171928406
1789799136501246700,6.391246826171875,-0.36690768599510193,0.277237206697464,0.28210917115211487
1789799136511219500,6.401219482421875,-0.2807759940624237,0.2990801930427551,0.24255511164665222
1789799136521192400,6.4111923828125,-0.23561811447143555,0.295956552028656,0.2569766640663147
1789799136531164700,6.42116455078125,-0.1363048404455185,0.30875545740127563,0.2947629392147064
1789799136541137700,6.4311376953125,-0.03545546159148216,0.3761395514011383,0.2866104543209076
1789799136551109600,6.441109619140625,0.0737900659441948,0.5055127143859863,0.28118425607681274
1789799136561082600,6.45108251953125,0.19236385822296143,0.6074135303497314,0.2662058472633362
1789799136571054600,6.4610546875,0.2993640601634979,0.6263376474380493,0.2350388765335083
1789799136581027600,6.471027587890625,0.4011721909046173,0.6305766105651855,0.1902783364057541
1789799136590999600,6.48099951171875,0.4937868118286133,0.6206667423248291,0.15836088359355927
1789799136600972500,6.49097265625,0.6045125126838684,0.6264542937278748,0.13333594799041748
1789799136610944500,6.500944580078125,0.7153096199035645,0.6013058423995972,0.09279358386993408
1789799136620917500,6.51091748046875,0.8436691761016846,0.6182142496109009,0.045222338289022446
1789799136630890500,6.520890380859375,0.9982398748397827,0.6418029069900513,0.006989732384681702
1789799136640862700,6.53086279296875,1.146386742591858,0.6558689475059509,-0.01920432038605213
1789799136650835500,6.54083544921875,1.2844891548156738,0.692851722240448,-0.050751861184835434
1789799136660807700,6.5508076171875,1.394221544265747,0.735583484172821,-0.07355198264122009
1789799136670780700,6.56078076171875,1.4937084913253784,0.7779993414878845,-0.10052554309368134
1789799136680752600,6.570752685546875,1.5805240869522095,0.7743508219718933,-0.15531954169273376
1789799136690725600,6.5807255859375,1.664924144744873,0.7294999957084656,-0.1997184306383133
1789799136700697600,6.590697509765625,1.770814299583435,0.8079327344894409,-0.20390039682388306
1789799136710670600,6.600670654296875,1.8699201345443726,0.8722888231277466,-0.2195262312889099
1789799136720642600,6.610642578125,1.9485923051834106,0.864029049873352,-0.25047242641448975
1789799136730615600,6.620615478515625,2.007289171218872,0.8172287940979004,-0.24319161474704742
1789799136740588500,6.630588623046875,2.0532989501953125,0.7536585927009583,-0.23023134469985962
1789799136750560500,6.640560546875,2.073425531387329,0.7061675190925598,-0.23569747805595398
1789799136760533500,6.650533447265625,2.0878794193267822,0.7017418742179871,-0.24191568791866302
1789799136770505700,6.660505615234375,2.1089470386505127,0.6800464391708374,-0.22503231465816498
1789799136780478700,6.670478759765625,2.1257803440093994,0.6284985542297363,-0.21989481151103973
1789799136790450700,6.68045068359375,2.1378090381622314,0.577633261680603,-0.20473982393741608
1789799136800423700,6.690423583984375,2.156472682952881,0.4477873742580414,-0.1556553691625595
1789799136810395600,6.700395751953125,2.1327548027038574,0.38106265664100647,-0.09419174492359161
1789799136820368600,6.71036865234375,2.0864481925964355,0.381427526473999,-0.04608254134654999
1789799136830340600,6.720340576171875,2.0199220180511475,0.3247184157371521,-0.04109444096684456
1789799136840313600,6.730313720703125,1.9398480653762817,0.20150542259216309,-0.04203879460692406
1789799136850286800,6.740286865234375,1.8736166954040527,0.09122072160243988,-0.025531193241477013
1789799136860258600,6.750258544921875,1.8087958097457886,0.0008423578692600131,-0.015669774264097214
1789799136870231600,6.7602314453125,1.7235318422317505,-0.05684597045183182,0.0007472829893231392
1789799136880203800,6.770203857421875,1.6076678037643433,-0.15491022169589996,0.0009515474666841328
1789799136890176500,6.780176513671875,1.4967337846755981,-0.23650255799293518,0.019297530874609947
1789799136900148700,6.790148681640625,1.3877031803131104,-0.26710280776023865,0.048039164394140244
1789799136910121700,6.800121826171875,1.2757869958877563,-0.3001880645751953,0.06852206587791443
1789799136920093400,6.810093505859375,1.150940179824829,-0.27430158853530884,0.10034764558076859
1789799136930066700,6.820066650390625,1.0564932823181152,-0.25434786081314087,0.11573352664709091
1789799136940038700,6.83003857421875,0.9981607794761658,-0.2670263648033142,0.11415959149599075
1789799136950011600,6.84001171875,0.9155979752540588,-0.31713882088661194,0.10216285288333893
1789799136959984600,6.849984619140625,0.8300777673721313,-0.3973257839679718,0.09685863554477692
1789799136969956600,6.85995654296875,0.7339370846748352,-0.45683011412620544,0.09829168021678925
1789799136979929600,6.8699296875,0.6180179715156555,-0.42111635208129883,0.10091409832239151
1789799136989901600,6.879901611328125,0.5427767038345337,-0.3469390571117401,0.09718194603919983
1789799136999874600,6.88987451171875,0.45358186960220337,-0.3088364005088806,0.09458909183740616
1789799137009846800,6.8998466796875,0.37318742275238037,-0.2669920027256012,0.11855167895555496
1789799137019819800,6.90981982421875,0.2970319390296936,-0.22735965251922607,0.14501258730888367
1789799137029791500,6.91979150390625,0.19996024668216705,-0.19601504504680634,0.1589401215314865
1789799137039764700,6.9297646484375,0.07064460963010788,-0.21096070110797882,0.167422816157341
1789799137049737700,6.93973779296875,-0.07709744572639465,-0.23286306858062744,0.17489591240882874
1789799137059709400,6.94970947265625,-0.23426948487758636,-0.2587559223175049,0.17597796022891998
1789799137069682700,6.9596826171875,-0.37102335691452026,-0.2590336799621582,0.1879403442144394
1789799137079654700,6.969654541015625,-0.48376375436782837,-0.2128017544746399,0.22688934206962585
1789799137089627400,6.97962744140625,-0.5740470290184021,-0.15428784489631653,0.27018702030181885
1789799137099599600,6.989599609375,-0.6248987317085266,-0.046732883900403976,0.3040112853050232
1789799137109572600,6.999572509765625,-0.6726601719856262,0.15704287588596344,0.3261285722255707
1789799137119544600,7.009544677734375,-0.686882495880127,0.28978654742240906,0.3206464648246765
1789799137129517600,7.019517578125,-0.6831426024436951,0.32558581233024597,0.3131355345249176
1789799137139489500,7.029489501953125,-0.6830078959465027,0.2880115509033203,0.31157225370407104
1789799137149462000,7.0394619140625,-0.7050908207893372,0.27207493782043457,0.3023774325847626
1789799137159435000,7.04943505859375,-0.7531321048736572,0.2009352296590805,0.2657134234905243
1789799137169407200,7.0594072265625,-0.7905295491218567,0.005109274294227362,0.2439950853586197
1789799137179380200,7.069380126953125,-0.8823928833007812,-0.107928067445755,0.28909891843795776
1789799137189352000,7.07935205078125,-0.984627902507782,-0.18076099455356598,0.31869277358055115
1789799137199325200,7.0893251953125,-1.0747677087783813,-0.26061588525772095,0.29686442017555237
1789799137209297200,7.099297119140625,-1.1438177824020386,-0.37717366218566895,0.22623632848262787
1789799137219270000,7.109269775390625,-1.2494792938232422,-0.3739275336265564,0.16012762486934662
1789799137229242000,7.1192421875,-1.2813687324523926,-0.38953524827957153,0.04169551655650139
1789799137239215000,7.129215087890625,-1.2752208709716797,-0.3858198821544647,-0.0937134400010109
1789799137249188000,7.13918798828125,-1.286551594734192,-0.27749285101890564,-0.2060122936964035
1789799137259160000,7.14916015625,-1.2683815956115723,-0.20964111387729645,-0.3066917657852173
1789799137269133000,7.159133056640625,-1.2723808288574219,-0.08536390215158463,-0.36713141202926636
1789799137279105300,7.169105224609375,-1.3094731569290161,0.07622472941875458,-0.424884170293808
1789799137289078000,7.179078125,-1.362994909286499,0.24205097556114197,-0.48840564489364624
1789799137299050000,7.189050048828125,-1.4245752096176147,0.2947373688220978,-0.5606572031974792
1789799137309023200,7.199023193359375,-1.460958480834961,0.20982353389263153,-0.6407884955406189
1789799137318995000,7.208994873046875,-1.4529600143432617,0.05224722623825073,-0.6672773957252502
1789799137328968000,7.218968017578125,-1.4366265535354614,-0.03706880658864975,-0.6452442407608032
1789799137338941200,7.228941162109375,-1.4148181676864624,0.08724861592054367,-0.6509522199630737
1789799137348913200,7.2389130859375,-1.4236191511154175,0.33460888266563416,-0.6715410947799683
1789799137358886000,7.248885986328125,-1.4490864276885986,0.4889896512031555,-0.6470104455947876
1789799137368858000,7.258858154296875,-1.4796099662780762,0.39273104071617126,-0.6240180730819702
1789799137378831000,7.2688310546875,-1.5241124629974365,0.09473982453346252,-0.6168312430381775
1789799137388803000,7.278802978515625,-1.5877867937088013,-0.25181227922439575,-0.6206419467926025
1789799137398776000,7.288776123046875,-1.6043907403945923,-0.5286931395530701,-0.6403634548187256
1789799137408748000,7.298748046875,-1.6741082668304443,-0.5682184100151062,-0.6390476226806641
1789799137418721000,7.308720947265625,-1.6880805492401123,-0.5282161831855774,-0.6357383728027344
1789799137428693000,7.31869287109375,-1.6473808288574219,-0.594967246055603,-0.6462376117706299
1789799137438666000,7.328666015625,-1.6334713697433472,-0.6548356413841248,-0.6257344484329224
1789799137448639200,7.33863916015625,-1.610313057899475,-0.6980973482131958,-0.590492308139801
1789799137458611000,7.34861083984375,-1.5781748294830322,-0.8648245334625244,-0.5767030119895935
1789799137468584000,7.358583984375,-1.5887396335601807,-0.9382641315460205,-0.5630002617835999
1789799137478556200,7.36855615234375,-1.5781922340393066,-0.9820313453674316,-0.5363286733627319
1789799137488529000,7.37852880859375,-1.5365389585494995,-1.028428077697754,-0.496349573135376
1789799137498501000,7.388501220703125,-1.4914830923080444,-1.0451802015304565,-0.4462270140647888
1789799137508474000,7.39847412109375,-1.4624665975570679,-0.9313145875930786,-0.36982491612434387
1789799137518446000,7.408446044921875,-1.3912588357925415,-0.9492680430412292,-0.36309245228767395
1789799137528419000,7.418419189453125,-1.3351616859436035,-0.9104287624359131,-0.3827151656150818
1789799137538392000,7.42839208984375,-1.2559374570846558,-0.7687891125679016,-0.3947422504425049
1789799137548364300,7.4383642578125,-1.1412161588668823,-0.5792289972305298,-0.3499065935611725
1789799137558337000,7.4483369140625,-0.990162193775177,-0.38318678736686707,-0.25252068042755127
1789799137568309000,7.45830908203125,-0.8828371167182922,-0.23799951374530792,-0.14120586216449738
1789799137578282200,7.4682822265625,-0.759726881980896,-0.12309050559997559,-0.042879555374383926
1789799137588254000,7.47825390625,-0.6518243551254272,-0.011315505020320415,0.06665971875190735
1789799137598227000,7.48822705078125,-0.5275629162788391,0.09788395464420319,0.12564261257648468
1789799137608199200,7.49819921875,-0.39146682620048523,0.2517624497413635,0.06019223481416702
1789799137618172200,7.508172119140625,-0.24610911309719086,0.2832929491996765,-0.028193287551403046
1789799137628144000,7.51814404296875,-0.14213716983795166,0.20140555500984192,-0.05246826633810997
1789799137638117000,7.5281171875,-0.03663657605648041,0.15299300849437714,-0.04416586458683014
1789799137648090000,7.538090087890625,0.0590747706592083,0.11522619426250458,-0.026811107993125916
1789799137658062000,7.54806201171875,0.1293417364358902,0.2135825902223587,-0.0057433731853961945
1789799137668035000,7.55803515625,0.3024858236312866,0.07753420621156693,-0.020388629287481308
1789799137678007000,7.568007080078125,0.39481228590011597,0.04940802976489067,-0.008224107325077057
1789799137687980300,7.577980224609375,0.543562114238739,0.08883906155824661,-0.0014330470003187656
1789799137697952000,7.587951904296875,0.7008638381958008,0.13447658717632294,0.010735735297203064
1789799137707925000,7.597925048828125,0.8448966145515442,0.22549490630626678,0.03482722118496895
1789799137717897200,7.607897216796875,0.9562109112739563,0.3076403737068176,0.05343073606491089
1789799137727870000,7.617869873046875,1.0393848419189453,0.37710094451904297,0.0672655925154686
1789799137737843000,7.627843017578125,1.1289116144180298,0.489921510219574,0.06695400178432465
1789799137747815200,7.637815185546875,1.2187061309814453,0.5612130165100098,0.08000694960355759
1789799137757788200,7.6477880859375,1.306738257408142,0.5979171991348267,0.1331695020198822
1789799137767760100,7.657760009765625,1.4093900918960571,0.6345372796058655,0.20514436066150665
1789799137777733000,7.667733154296875,1.5280296802520752,0.7115569710731506,0.276231050491333
1789799137787705000,7.677705078125,1.6445683240890503,0.7986015677452087,0.34197303652763367
1789799137797678000,7.687677978515625,1.7562103271484375,0.8548153042793274,0.4006451666355133
1789799137807650000,7.697650146484375,1.8426827192306519,0.8943992257118225,0.4526662826538086
1789799137817623000,7.707623046875,1.900449275970459,0.832943856716156,0.5074203610420227
1789799137827595000,7.717594970703125,1.953847050666809,0.7224327921867371,0.5408341884613037
1789799137837568000,7.727568115234375,2.0065712928771973,0.6667348742485046,0.5419756770133972
1789799137847541000,7.737541015625,2.0799145698547363,0.6544806361198425,0.525715172290802
1789799137857513200,7.74751318359375,2.1470274925231934,0.6730164885520935,0.4993610680103302
1789799137867486000,7.75748583984375,2.205610752105713,0.67104172706604,0.467472106218338
1789799137877458200,7.767458251953125,2.25323224067688,0.5998554825782776,0.44022637605667114
1789799137887431200,7.77743115234375,2.284925937652588,0.5258768200874329,0.4165780544281006
1789799137897403000,7.78740283203125,2.27081298828125,0.4583204388618469,0.37825143337249756
1789799137907376000,7.797376220703125,2.217463254928589,0.39638274908065796,0.3065495491027832
1789799137917348000,7.80734814453125,2.169536590576172,0.3404662311077118,0.27622678875923157
1789799137927321000,7.817321044921875,2.1169188022613525,0.2557614743709564,0.25952425599098206
1789799137937294000,7.827294189453125,2.037257194519043,0.1257547289133072,0.24062485992908478
1789799137947266000,7.83726611328125,1.9326852560043335,0.016766995191574097,0.23144227266311646
1789799137957239000,7.847239013671875,1.8129314184188843,-0.08499319106340408,0.22017604112625122
1789799137967211000,7.8572109375,1.7255758047103882,-0.19329729676246643,0.22146688401699066
1789799137977184000,7.86718408203125,1.6231846809387207,-0.2591833770275116,0.20980249345302582
1789799137987156200,7.87715625,1.5148118734359741,-0.32552218437194824,0.17524239420890808
1789799137997129000,7.88712890625,1.4057698249816895,-0.4014070928096771,0.16995760798454285
1789799138007101200,7.89710107421875,1.260473370552063,-0.44134172797203064,0.1910487860441208
1789799138017074200,7.90707421875,1.1602966785430908,-0.43544894456863403,0.20941847562789917
1789799138027046000,7.9170458984375,1.0974079370498657,-0.3543170690536499,0.21135884523391724
1789799138037019100,7.92701904296875,1.0332825183868408,-0.21546517312526703,0.19794690608978271
1789799138046992100,7.9369921875,0.9727560877799988,-0.2213694006204605,0.17625492811203003
1789799138056964000,7.946964111328125,0.9020131826400757,-0.3157832622528076,0.18207313120365143
1789799138066937000,7.95693701171875,0.8352810144424438,-0.32812196016311646,0.19815969467163086
1789799138076909000,7.966908935546875,0.7346199154853821,-0.2934185564517975,0.20984697341918945
1789799138086882000,7.976882080078125,0.5930907726287842,-0.2936156392097473,0.20208625495433807
1789799138096854000,7.98685400390625,0.46848997473716736,-0.28790396451950073,0.20281995832920074
1789799138106827000,7.996826904296875,0.370522677898407,-0.29624924063682556,0.19268156588077545
1789799138116799200,8.00679931640625,0.26167207956314087,-0.27339744567871094,0.17660939693450928
1789799138126772200,8.016772216796875,0.1333567202091217,-0.1718284785747528,0.162958562374115
1789799138136745000,8.026744873046875,0.010236391797661781,-0.1339026689529419,0.13093777000904083
1789799138146717400,8.036717529296874,-0.11935888230800629,-0.09571134299039841,0.08768857270479202
1789799138156690400,8.0466904296875,-0.23935000598430634,-0.025670476257801056,0.05473781377077103
1789799138166662400,8.056662353515625,-0.3453749716281891,0.06298695504665375,0.051950547844171524
1789799138176635400,8.066635498046875,-0.4441486895084381,0.14501577615737915,0.06679847091436386
1789799138186607400,8.076607421875,-0.5172796249389648,0.17972049117088318,0.07972145825624466
1789799138196580400,8.086580322265625,-0.5735011100769043,0.17216084897518158,0.07380232214927673
1789799138206552600,8.096552490234375,-0.5989401340484619,0.14858387410640717,0.06295899301767349
1789799138216525600,8.106525634765624,-0.6157236099243164,0.1489362120628357,0.06096109002828598
1789799138226497500,8.11649755859375,-0.6212598085403442,0.17654600739479065,0.06005588173866272
1789799138236470500,8.126470458984375,-0.6412513852119446,0.21684576570987701,0.03437075763940811
1789799138246443500,8.136443603515625,-0.6778498888015747,0.2640409767627716,-0.006792392116039991
1789799138256415500,8.14641552734375,-0.7322691679000854,0.2787837088108063,-0.026440661400556564
1789799138266388500,8.156388427734376,-0.8165438175201416,0.3042227327823639,-0.013853497803211212
1789799138276360400,8.1663603515625,-0.9188510179519653,0.3361223638057709,0.006521548610180616
1789799138286333400,8.17633349609375,-1.0353001356124878,0.32479432225227356,0.010507501661777496
1789799138296305400,8.186305419921876,-1.1448367834091187,0.28134751319885254,-0.0029734193813055754
1789799138306278400,8.1962783203125,-1.2602189779281616,0.21092581748962402,-0.036257341504096985
1789799138316250600,8.206250732421875,-1.3779875040054321,0.14644695818424225,-0.07109495252370834
1789799138326223400,8.216223388671875,-1.451765775680542,0.057926151901483536,-0.097739078104496
1789799138336195600,8.226195556640626,-1.5004627704620361,-0.06750287860631943,-0.10606145113706589
1789799138346168600,8.23616845703125,-1.50824773311615,-0.23495233058929443,-0.09486313164234161
1789799138356141600,8.2461416015625,-1.5081920623779297,-0.3617270588874817,-0.09368760883808136
1789799138366113500,8.256113525390624,-1.5266536474227905,-0.3754149079322815,-0.10420283675193787
1789799138376086500,8.26608642578125,-1.5292658805847168,-0.3137451410293579,-0.11428609490394592
1789799138386058500,8.27605859375,-1.522135853767395,-0.2286291867494583,-0.14470233023166656
1789799138396031500,8.286031494140625,-1.5388487577438354,-0.14002980291843414,-0.19309090077877045
1789799138406003500,8.29600341796875,-1.5461351871490479,-0.025424666702747345,-0.2340306043624878
1789799138415976400,8.3059765625,-1.5324121713638306,0.00008735168376006186,-0.25255662202835083
1789799138425948400,8.315948486328125,-1.4908252954483032,-0.11116060614585876,-0.20775346457958221
1789799138435921400,8.32592138671875,-1.5040031671524048,-0.2510135769844055,-0.12981551885604858
1789799138445893600,8.3358935546875,-1.5387483835220337,-0.25312092900276184,-0.10824231803417206
1789799138455866400,8.345866455078125,-1.5489890575408936,-0.1028805747628212,-0.1370617151260376
1789799138465839400,8.35583935546875,-1.5429556369781494,-0.037105023860931396,-0.1712963879108429
1789799138475811600,8.3658115234375,-1.523627519607544,-0.15384230017662048,-0.1776442974805832
1789799138485784600,8.37578466796875,-1.5570988655090332,-0.3783033490180969,-0.1604679673910141
1789799138495756300,8.38575634765625,-1.6123205423355103,-0.5536307096481323,-0.15180763602256775
1789799138505729500,8.3957294921875,-1.6526075601577759,-0.6221194863319397,-0.16614289581775665
1789799138515701500,8.405701416015624,-1.6786117553710938,-0.6522371768951416,-0.2215270698070526
1789799138525674200,8.41567431640625,-1.7327468395233154,-0.6401259303092957,-0.2686764597892761
1789799138535646500,8.425646484375,-1.7437574863433838,-0.6113771200180054,-0.3034419119358063
1789799138545619500,8.435619384765625,-1.7425304651260376,-0.6608352065086365,-0.3287845551967621
1789799138555592400,8.445592529296874,-1.7346779108047485,-0.7217680215835571,-0.32553496956825256
1789799138565564400,8.455564453125,-1.6759320497512817,-0.7716037631034851,-0.2951221764087677
1789799138575537400,8.465537353515625,-1.648579478263855,-0.7409281730651855,-0.23861870169639587
1789799138585509600,8.475509521484375,-1.5526149272918701,-0.8047361969947815,-0.23108941316604614
1789799138595482400,8.485482421875,-1.4392966032028198,-0.8399479389190674,-0.23025451600551605
1789799138605454300,8.495454345703125,-1.3063122034072876,-0.836543619632721,-0.20401863753795624
1789799138615427600,8.505427490234375,-1.1828142404556274,-0.7919913530349731,-0.13753655552864075
1789799138625399300,8.5153994140625,-1.072514295578003,-0.7243257761001587,-0.035522039979696274
1789799138635372300,8.525372314453126,-0.9372065663337708,-0.5860158205032349,0.05380171164870262
1789799138645344500,8.535344482421875,-0.8200032711029053,-0.3885485529899597,0.05687925964593887
1789799138655317500,8.5453173828125,-0.7042710781097412,-0.2901498079299927,0.014670555479824543
1789799138665290200,8.555290283203124,-0.6071189641952515,-0.25063008069992065,0.06760673969984055
1789799138675262500,8.565262451171876,-0.49192553758621216,-0.1943122148513794,0.10181477665901184
1789799138685235500,8.5752353515625,-0.36257579922676086,-0.07057483494281769,0.10387047380208969
1789799138695207400,8.58520751953125,-0.23691721260547638,0.07206567376852036,0.13588540256023407
1789799138705180400,8.595180419921874,-0.1265251785516739,0.18095114827156067,0.14279790222644806
1789799138715152400,8.60515234375,-0.0048919604159891605,0.2451828569173813,0.09441625326871872
1789799138725125600,8.615125732421875,0.11368901282548904,0.3483838140964508,0.027638819068670273
1789799138735097300,8.625097412109374,0.24638554453849792,0.4773324728012085,0.005776396486908197
1789799138745070300,8.6350703125,0.3804735839366913,0.5775434970855713,0.02412317879498005
1789799138755042600,8.64504248046875,0.5138190984725952,0.5828903317451477,0.06309987604618073
1789799138765015300,8.655015380859375,0.6344419121742249,0.5187893509864807,0.07484094798564911
1789799138774988300,8.66498828125,0.7615343928337097,0.46943381428718567,0.052071455866098404
1789799138784960500,8.67496044921875,0.9068465828895569,0.5255697965621948,0.021409418433904648
1789799138794933500,8.68493359375,1.0765913724899292,0.6346096992492676,0.0009675264009274542
1789799138804905500,8.694905517578125,1.2463676929473877,0.7107715606689453,0.003938016481697559
1789799138814878500,8.70487841796875,1.404982089996338,0.7295138239860535,0.03496623784303665
1789799138824850400,8.714850341796875,1.538137435913086,0.7070778012275696,0.059126969426870346
1789799138834823400,8.724823486328125,1.643789291381836,0.7222604751586914,0.058575429022312164
1789799138844795400,8.73479541015625,1.7404977083206177,0.8033167123794556,0.043529100716114044
1789799138854768600,8.7447685546875,1.8442389965057373,0.8727464079856873,0.035286083817481995
1789799138864740400,8.754740234375,1.9381577968597412,0.86359041929245,0.04000547155737877
1789799138874713300,8.76471337890625,2.033238172531128,0.8257628679275513,0.03212118521332741
1789799138884685600,8.774685546875,2.121232509613037,0.7870847582817078,0.025611354038119316
1789799138894658600,8.784658447265626,2.186227560043335,0.7344138026237488,0.038722362369298935
1789799138904631300,8.79463134765625,2.23837947845459,0.6701759696006775,0.0291735976934433
1789799138914603500,8.804603515625,2.2940995693206787,0.6307699680328369,0.0048797097988426685
1789799138924576500,8.814576416015624,2.3469245433807373,0.6626991629600525,-0.005432582460343838
1789799138934548500,8.824548583984376,2.3843626976013184,0.6517205238342285,-0.004721784498542547
1789799138944521500,8.834521484375,2.3790109157562256,0.49053484201431274,0.007161240093410015
1789799138954493400,8.844493408203125,2.3388237953186035,0.33670371770858765,0.03267565369606018
1789799138964466400,8.854466552734374,2.3099758625030518,0.289153516292572,0.06288335472345352
1789799138974438400,8.8644384765625,2.2985284328460693,0.3655382990837097,0.06600085645914078
1789799138984411400,8.874411376953125,2.2392752170562744,0.32482123374938965,0.01986638270318508
1789799138994383400,8.88438330078125,2.1620218753814697,0.21142622828483582,0.009808954782783985
1789799139004356400,8.8943564453125,2.065331220626831,0.08727391809225082,0.04430248215794563
1789799139014329300,8.904329345703125,1.965151309967041,-0.07747241854667664,0.06774682551622391
1789799139024301600,8.914301513671875,1.8494186401367188,-0.1982734054327011,0.07058708369731903
1789799139034274300,8.9242744140625,1.7038986682891846,-0.2928028404712677,0.06418883800506592
1789799139044246500,8.93424658203125,1.5458430051803589,-0.3138468861579895,0.06133259832859039
1789799139054219500,8.944219482421875,1.4223849773406982,-0.33638253808021545,0.06530044227838516
1789799139064191200,8.954191162109375,1.307724952697754,-0.35669341683387756,0.09371903538703918
1789799139074164500,8.96416455078125,1.2198781967163086,-0.3798818290233612,0.11126554012298584
1789799139084136400,8.974136474609375,1.1244992017745972,-0.38902178406715393,0.12096503376960754
1789799139094109400,8.984109375,1.0315277576446533,-0.4156203866004944,0.14051637053489685
1789799139104081400,8.994081298828124,0.9788938760757446,-0.43362146615982056,0.15765993297100067
1789799139114054400,9.004054443359376,0.9201514720916748,-0.46452853083610535,0.15025581419467926
1789799139124026600,9.014026611328125,0.8046134114265442,-0.4350089728832245,0.13667023181915283
1789799139133999400,9.023999267578125,0.7087941765785217,-0.31118878722190857,0.11420327425003052
1789799139143972400,9.033972412109375,0.6410428285598755,-0.198859304189682,0.0754910260438919
1789799139153944800,9.04394482421875,0.5048946142196655,-0.13822364807128906,0.04403243958950043
1789799139163917800,9.053917724609375,0.36431005597114563,-0.09688659757375717,0.03407328203320503
1789799139173889500,9.0638896484375,0.21521590650081635,-0.051056258380413055,0.027273166924715042
1789799139183862800,9.07386279296875,0.0448436364531517,-0.01997024565935135,0.01137063279747963
1789799139193834800,9.083834716796876,-0.14709463715553284,0.027471572160720825,-0.003288471372798085
1789799139203807500,9.093807373046875,-0.30932268500328064,0.049020007252693176,-0.00387356779538095
1789799139213779700,9.10377978515625,-0.44518598914146423,0.04779655113816261,0.016024239361286163
1789799139223752700,9.113752685546874,-0.5284393429756165,0.008168181404471397,0.06376592814922333
1789799139233724700,9.123724609375,-0.5826066732406616,-0.020591827109456062,0.11617081612348557
1789799139243697700,9.13369775390625,-0.6306841969490051,-0.007488009985536337,0.15960697829723358
1789799139253669600,9.143669677734374,-0.6956730484962463,0.07416344434022903,0.19085223972797394
1789799139263643000,9.153642822265626,-0.7648516297340393,0.139667347073555,0.19547869265079498
1789799139273615600,9.16361572265625,-0.8010133504867554,0.12718458473682404,0.19563661515712738
1789799139283587600,9.173587646484375,-0.8849322199821472,0.11685151606798172,0.2308609038591385
1789799139293560800,9.183560791015625,-0.9543999433517456,0.04682715982198715,0.2750299572944641
1789799139303532500,9.193532470703126,-1.0073456764221191,-0.012281700037419796,0.30821001529693604
1789799139313505500,9.203505615234375,-1.1021753549575806,-0.027540814131498337,0.31873270869255066
1789799139323477800,9.213477783203125,-1.1794261932373047,-0.1041325256228447,0.28183674812316895
1789799139333450800,9.22345068359375,-1.2388399839401245,-0.18057270348072052,0.23559415340423584
1789799139343422700,9.233422607421875,-1.2529107332229614,-0.24424941837787628,0.18751344084739685
1789799139353395700,9.243395751953125,-1.304111361503601,-0.19068099558353424,0.15739041566848755
1789799139363367700,9.25336767578125,-1.3675686120986938,-0.1483231633901596,0.11363442242145538
1789799139373340700,9.263340576171874,-1.4353969097137451,-0.14276887476444244,0.06833910942077637
1789799139383312600,9.273312744140625,-1.4903485774993896,-0.178965762257576,0.031374700367450714
1789799139393285600,9.28328564453125,-1.5150113105773926,-0.21298284828662872,0.007597998715937138
1789799139403259000,9.2932587890625,-1.5424022674560547,-0.2614632844924927,-0.01010989211499691
1789799139413230600,9.303230712890626,-1.5892038345336914,-0.27315881848335266,-0.03608982637524605
1789799139423203600,9.31320361328125,-1.679499626159668,-0.19913306832313538,-0.12271127104759216
1789799139433175800,9.32317578125,-1.715580940246582,-0.0026056368369609118,-0.23394964635372162
1789799139443148500,9.3331484375,-1.733385443687439,0.18010932207107544,-0.3316352069377899
1789799139453120800,9.343120849609376,-1.7330228090286255,0.17692017555236816,-0.36370497941970825
1789799139463093800,9.35309375,-1.7162896394729614,0.019080750644207,-0.3385404944419861
1789799139473065700,9.363065673828125,-1.7162059545516968,-0.14529301226139069,-0.288897842168808
1789799139483038700,9.373038818359374,-1.7124000787734985,-0.12061189860105515,-0.2580464482307434
1789799139493010700,9.3830107421875,-1.6862249374389648,-0.01661679334938526,-0.2869654595851898
1789799139502984000,9.39298388671875,-1.6679977178573608,0.05028554052114487,-0.3327223062515259
1789799139512955600,9.40295556640625,-1.6528786420822144,0.019089272245764732,-0.3805049955844879
1789799139522928600,9.4129287109375,-1.6761871576309204,-0.05511678010225296,-0.36825019121170044
1789799139532900900,9.42290087890625,-1.6576238870620728,-0.2324811816215515,-0.35602840781211853
1789799139542873600,9.43287353515625,-1.6721471548080444,-0.30854639410972595,-0.3282545804977417
1789799139552846600,9.4428466796875,-1.6678013801574707,-0.455215185880661,-0.3594934642314911
1789799139562818800,9.45281884765625,-1.6607805490493774,-0.6224406361579895,-0.3888172507286072
1789799139572791800,9.462791748046875,-1.6358269453048706,-0.8112894296646118,-0.40677547454833984
1789799139582763800,9.472763671875,-1.6239402294158936,-0.8580704927444458,-0.38873255252838135
1789799139592736800,9.48273681640625,-1.626293659210205,-0.8219287395477295,-0.3576441705226898
1789799139602708700,9.492708740234375,-1.526242971420288,-1.041029930114746,-0.3717602491378784
1789799139612681700,9.502681640625,-1.4614492654800415,-1.294482707977295,-0.3748985230922699
1789799139622653700,9.51265380859375,-1.4136160612106323,-1.4616732597351074,-0.3665276765823364
1789799139632626700,9.522626708984374,-1.3386768102645874,-1.476657509803772,-0.32244303822517395
1789799139642598700,9.5325986328125,-1.252183198928833,-1.3601360321044922,-0.2480556070804596
1789799139652571600,9.542571533203125,-1.1362706422805786,-1.1973094940185547,-0.17784030735492706
1789799139662544000,9.5525439453125,-0.9932323098182678,-0.935092568397522,-0.09242207556962967
1789799139672516600,9.5625166015625,-0.8317315578460693,-0.6579512357711792,-0.0246675293892622
1789799139682488600,9.572488525390625,-0.6873589158058167,-0.4812332093715668,0.02538152225315571
1789799139692461800,9.5824619140625,-0.5686930418014526,-0.40300098061561584,0.08558787405490875
1789799139702434800,9.592434814453124,-0.47294890880584717,-0.3114825189113617,0.12213309854269028
1789799139712406500,9.602406494140626,-0.38540521264076233,-0.16649870574474335,0.11504030227661133
1789799139722379800,9.6123798828125,-0.27733734250068665,-0.002796585438773036,0.14580540359020233
1789799139732351700,9.622351806640625,-0.1720079779624939,0.13036812841892242,0.21016734838485718
1789799139742324500,9.632324462890624,-0.029581859707832336,0.24882926046848297,0.24347470700740814
1789799139752296700,9.642296630859375,0.13777917623519897,0.34713584184646606,0.23439732193946838
1789799139762269700,9.652269775390625,0.30410236120224,0.40648654103279114,0.2074354737997055
1789799139772241700,9.66224169921875,0.4703030586242676,0.4929830729961395,0.20691056549549103
1789799139782214700,9.672214599609376,0.635323166847229,0.6349127888679504,0.23012827336788177
1789799139792186600,9.6821865234375,0.7845430374145508,0.7713454365730286,0.24728728830814362
1789799139802159900,9.692159912109375,0.9291574358940125,0.8575048446655273,0.23236559331417084
1789799139812131600,9.702131591796874,1.0816670656204224,0.8766170144081116,0.20189504325389862
1789799139822104600,9.7121044921875,1.221706748008728,0.8343630433082581,0.17152062058448792
1789799139832076800,9.722076904296875,1.334391713142395,0.6942490935325623,0.15015888214111328
1789799139842049500,9.732049560546875,1.447435975074768,0.673350989818573,0.1452147215604782
1789799139852022500,9.7420224609375,1.580119013786316,0.766751766204834,0.12672944366931915
1789799139861994800,9.751994873046876,1.7033815383911133,0.8101921677589417,0.12329050898551941
1789799139871967700,9.7619677734375,1.7782509326934814,0.7192966341972351,0.12154107540845871
1789799139881939700,9.771939697265625,1.8261127471923828,0.6463299989700317,0.1029847040772438
1789799139891912700,9.78191259765625,1.8971000909805298,0.6280524730682373,0.06112939864397049
1789799139901884700,9.791884765625,2.0077521800994873,0.6875858306884766,0.00971441250294447
1789799139911857700,9.801857666015625,2.1039626598358154,0.7662164568901062,-0.012838033959269524
1789799139921829600,9.81182958984375,2.161731719970703,0.8336392045021057,-0.027720578014850616
1789799139931802600,9.821802734375,2.212451457977295,0.8876004219055176,-0.04903199151158333
1789799139941774600,9.831774658203125,2.2967638969421387,0.9404926896095276,-0.07641248404979706
1789799139951747600,9.84174755859375,2.380449056625366,0.955044686794281,-0.10789930075407028
1789799139961719800,9.8517197265625,2.4118247032165527,0.8762982487678528,-0.13352982699871063
1789799139971692800,9.86169287109375,2.4208106994628906,0.8273434638977051,-0.1727861613035202
1789799139981664800,9.871664794921875,2.4186360836029053,0.7294544577598572,-0.21725162863731384
1789799139991637800,9.8816376953125,2.4099674224853516,0.7164851427078247,-0.2344103753566742
1789799140001609700,9.891609619140626,2.3523261547088623,0.6591891050338745,-0.25840359926223755
1789799140011582700,9.901582763671875,2.2490413188934326,0.530650794506073,-0.275404155254364
1789799140021554700,9.9115546875,2.1441850662231445,0.30910617113113403,-0.2740517854690552
1789799140031527700,9.921527587890624,2.021690607070923,0.1361684948205948,-0.2563313841819763
1789799140041501000,9.9315009765625,1.9022892713546753,0.032883912324905396,-0.2409801185131073
1789799140051472600,9.94147265625,1.7938627004623413,-0.031618911772966385,-0.26033198833465576
1789799140061445600,9.951445556640625,1.696164846420288,-0.06108226254582405,-0.30983054637908936
1789799140071417900,9.96141796875,1.5798462629318237,-0.08297450840473175,-0.3581749200820923
1789799140081390600,9.971390625,1.451690912246704,-0.22666536271572113,-0.3885565400123596
1789799140091362800,9.98136279296875,1.3468071222305298,-0.4086522161960602,-0.3671337962150574
1789799140101335800,9.991335693359375,1.2104511260986328,-0.5004556179046631,-0.3099285662174225
1789799140111307500,10.0013076171875,1.0733431577682495,-0.5569583177566528,-0.24800100922584534
1789799140121280800,10.01128076171875,0.9486643075942993,-0.5905213356018066,-0.1967783123254776
1789799140131252700,10.021252685546875,0.827053964138031,-0.5803009271621704,-0.1440277397632599
1789799140141225700,10.031225830078125,0.7241257429122925,-0.5194340944290161,-0.10408751666545868
1789799140151198200,10.0411982421875,0.6125571131706238,-0.3964695930480957,-0.07378154247999191
1789799140161171000,10.0511708984375,0.5252795219421387,-0.2453242689371109,-0.05114920437335968
1789799140171143200,10.06114306640625,0.4193818271160126,-0.12822268903255463,-0.04741625115275383
1789799140181116200,10.0711162109375,0.28916895389556885,-0.01690894179046154,-0.04483857750892639
1789799140191087900,10.081087890625,0.1471439152956009,0.0633387565612793,-0.02682788483798504
1789799140201061000,10.09106103515625,-0.021091969683766365,0.0907839685678482,-0.011595137417316437
1789799140211033000,10.101033203125,-0.21266353130340576,0.0758897066116333,0.00549356872215867
1789799140221006000,10.111006103515624,-0.3663622736930847,0.02063603699207306,0.04495362564921379
1789799140230978000,10.12097802734375,-0.4728096127510071,-0.04030374810099602,0.11262214928865433
1789799140240951000,10.130950927734375,-0.540064811706543,-0.0757935643196106,0.16770058870315552
1789799140250924000,10.140924072265625,-0.5893972516059875,-0.06956682354211807,0.21211332082748413
1789799140260896000,10.15089599609375,-0.6341465711593628,-0.030126210302114487,0.23897795379161835
1789799140270869000,10.160868896484375,-0.6839490532875061,0.014132330194115639,0.2499416619539261
1789799140280841200,10.17084130859375,-0.7576855421066284,0.06439017504453659,0.2615908682346344
1789799140290814200,10.180814208984375,-0.843040943145752,0.09501253068447113,0.28482988476753235
1789799140300786000,10.190785888671876,-0.9130243062973022,0.06882593780755997,0.3049202263355255
1789799140310759200,10.20075927734375,-0.9729201197624207,0.01230460312217474,0.32208988070487976
1789799140320731100,10.210731201171875,-1.0145149230957031,-0.04180630296468735,0.3451922833919525
1789799140330704000,10.220703857421874,-1.07107675075531,-0.05048021674156189,0.3645326793193817
1789799140340676000,10.230676025390625,-1.1282061338424683,-0.011456119827926159,0.3571211099624634
1789799140350649000,10.240649169921875,-1.2383449077606201,0.008040083572268486,0.3280918598175049
1789799140360621000,10.25062109375,-1.3608068227767944,-0.05792668089270592,0.26484498381614685
1789799140370594000,10.260593994140624,-1.4740761518478394,-0.19080750644207,0.15411047637462616
1789799140380566000,10.27056591796875,-1.5689842700958252,-0.31372544169425964,0.02918345108628273
1789799140390539300,10.280539306640625,-1.5978388786315918,-0.3471347987651825,-0.08361074328422546
1789799140400511000,10.290510986328124,-1.5744861364364624,-0.2660852074623108,-0.15031281113624573
1789799140410484000,10.30048388671875,-1.573569416999817,-0.15851853787899017,-0.19134998321533203
1789799140420456200,10.310456298828125,-1.6196951866149902,-0.13295698165893555,-0.2118813544511795
1789799140430429000,10.320428955078125,-1.691987156867981,-0.21652324497699738,-0.2378157526254654
1789799140440401200,10.330401123046874,-1.7357208728790283,-0.3166450560092926,-0.2501818835735321
1789799140450374100,10.3403740234375,-1.762281060218811,-0.3709844648838043,-0.27545100450515747
1789799140460345900,10.350345947265625,-1.7527719736099243,-0.3171803653240204,-0.33442750573158264
1789799140470319000,10.360319091796875,-1.6776793003082275,-0.21445104479789734,-0.36720091104507446
1789799140480291000,10.370291015625,-1.5906802415847778,-0.12984001636505127,-0.34887516498565674
1789799140490264000,10.38026416015625,-1.5693928003311157,-0.100494384765625,-0.29991135001182556
1789799140500236000,10.390236083984375,-1.584520936012268,-0.09076479077339172,-0.25426796078681946
1789799140510209000,10.400208984375,-1.6124457120895386,-0.15374429523944855,-0.23707273602485657
1789799140520182000,10.41018212890625,-1.6513193845748901,-0.24071940779685974,-0.2427002638578415
1789799140530154000,10.420154052734375,-1.6591455936431885,-0.27452823519706726,-0.26280179619789124
1789799140540127000,10.430126953125,-1.6872531175613403,-0.3105786442756653,-0.26991990208625793
1789799140550099200,10.44009912109375,-1.7589153051376343,-0.3378046751022339,-0.2559305727481842
1789799140560072200,10.450072265625,-1.797990083694458,-0.508902907371521,-0.26170989871025085
1789799140570044200,10.460044189453125,-1.8494449853897095,-0.6465004682540894,-0.26104065775871277
1789799140580017200,10.47001708984375,-1.901475191116333,-0.7030676007270813,-0.2569662928581238
1789799140589989000,10.479989013671876,-1.909940242767334,-0.6905661821365356,-0.22694286704063416
1789799140599962000,10.489962158203125,-1.8178201913833618,-0.876504123210907,-0.23369558155536652
1789799140609934000,10.49993408203125,-1.738734245300293,-0.9910405278205872,-0.20797796547412872
1789799140619907000,10.509906982421874,-1.6489368677139282,-1.052710771560669,-0.16796530783176422
1789799140629879000,10.519879150390626,-1.5752507448196411,-1.004671335220337,-0.0969073697924614
1789799140639852000,10.52985205078125,-1.4118578433990479,-1.0447375774383545,-0.05134681239724159
1789799140649824300,10.53982421875,-1.2480227947235107,-0.9452770352363586,0.020052537322044373
1789799140659797200,10.54979736328125,-1.0896480083465576,-0.79648756980896,0.08032812923192978
1789799140669769000,10.55976904296875,-0.9542438983917236,-0.636445939540863,0.13862526416778564
1789799140679742200,10.5697421875,-0.8309888243675232,-0.4602283239364624,0.22290711104869843
1789799140689714200,10.579714111328125,-0.7031653523445129,-0.26302656531333923,0.2978503406047821
1789799140699687000,10.58968701171875,-0.5782212615013123,-0.11100108921527863,0.33234333992004395
1789799140709659100,10.5996591796875,-0.433211088180542,-0.0009941579774022102,0.33373910188674927
1789799140719632100,10.609632080078125,-0.27887532114982605,0.11517319083213806,0.3241426646709442
1789799140729604000,10.61960400390625,-0.13948465883731842,0.20314939320087433,0.34064626693725586
1789799140739577000,10.6295771484375,0.005943909287452698,0.3309430480003357,0.32832062244415283
1789799140749549000,10.639549072265625,0.14763766527175903,0.4157327711582184,0.27010098099708557
1789799140759522000,10.64952197265625,0.3075479567050934,0.4870295822620392,0.2240472137928009
1789799140769494000,10.659493896484374,0.45065826177597046,0.5191842913627625,0.22064848244190216
1789799140779467000,10.669467041015626,0.581080973148346,0.5312750935554504,0.20574544370174408
1789799140789439000,10.67943896484375,0.714297890663147,0.5886651277542114,0.15877819061279297
1789799140799412000,10.689411865234375,0.8860132098197937,0.7049214243888855,0.10788598656654358
1789799140809384200,10.69938427734375,1.0557827949523926,0.787004292011261,0.07869081944227219
1789799140819357200,10.709357177734375,1.1961617469787598,0.7980849146842957,0.056594569236040115
1789799140829329000,10.719328857421875,1.3312660455703735,0.7720815539360046,0.029049495235085487
1789799140839302100,10.72930224609375,1.4817527532577515,0.8067132830619812,0.004333761986345053
1789799140849275100,10.739275146484376,1.6311030387878418,0.8802391886711121,-0.025000957772135735
1789799140859246800,10.749246826171875,1.7432165145874023,0.9183487296104431,-0.04308781400322914
1789799140869220000,10.75922021484375,1.8296688795089722,0.9350385069847107,-0.07158124446868896
1789799140879192000,10.769192138671874,1.920921802520752,0.9137111306190491,-0.10020969063043594
1789799140889165000,10.7791650390625,2.035550117492676,0.8633017539978027,-0.11029987782239914
1789799140899137000,10.789136962890625,2.1584513187408447,0.8372554779052734,-0.12652012705802917
1789799140909110000,10.799110107421875,2.2537059783935547,0.8087450265884399,-0.14839638769626617
1789799140919082200,10.809082275390624,2.3273427486419678,0.7478092312812805,-0.15613394975662231
1789799140929055000,10.819054931640625,2.3948311805725098,0.6431959867477417,-0.14442509412765503
1789799140939027000,10.82902685546875,2.4742624759674072,0.5762955546379089,-0.15526734292507172
1789799140949000200,10.839000244140625,2.5785739421844482,0.5682493448257446,-0.16949714720249176
1789799140958972000,10.848971923828126,2.670154094696045,0.565457820892334,-0.1661253273487091
1789799140968945200,10.858945068359375,2.7079296112060547,0.5402590036392212,-0.1600695550441742
1789799140978917000,10.868917236328125,2.689277410507202,0.4526345729827881,-0.16669577360153198
1789799140988890000,10.87889013671875,2.6614770889282227,0.41539108753204346,-0.14615774154663086
1789799140998862000,10.888862060546876,2.609938144683838,0.37723222374916077,-0.1174217015504837
1789799141008835000,10.8988349609375,2.4763035774230957,0.2871718406677246,-0.10252850502729416
1789799141018807300,10.908807373046875,2.3183443546295166,0.2043302357196808,-0.07803487777709961
1789799141028780000,10.918780029296874,2.162336826324463,0.1585550159215927,-0.06352757662534714
1789799141038752000,10.928751953125,1.9872020483016968,0.11285384744405746,-0.047152597457170486
1789799141048725200,10.938725341796875,1.8416829109191895,-0.046541135758161545,-0.03548955172300339
1789799141058697000,10.948697021484374,1.7227144241333008,-0.20359200239181519,-0.020477578043937683
1789799141068670000,10.958669921875,1.5597553253173828,-0.3235064148902893,0.0037057886365801096
1789799141078642200,10.96864208984375,1.3945496082305908,-0.42310279607772827,0.01684955321252346
1789799141088615200,10.978615234375,1.2218161821365356,-0.45503994822502136,0.03537530079483986
1789799141098587100,10.988587158203124,1.048299789428711,-0.5137911438941956,0.05181046575307846
1789799141108560100,10.99856005859375,0.8901349306106567,-0.58585524559021,0.07269258052110672
1789799141118532000,11.008531982421875,0.7387997508049011,-0.5536330938339233,0.12275814265012741
1789799141128505000,11.018505126953125,0.6251634955406189,-0.47286343574523926,0.16097024083137512
1789799141138477000,11.02847705078125,0.5557540655136108,-0.3461630046367645,0.16759751737117767
1789799141148449500,11.038449462890625,0.4472709894180298,-0.300743043422699,0.15705779194831848
1789799141158421800,11.048421875,0.3162495791912079,-0.28828826546669006,0.14906485378742218
1789799141168394800,11.058394775390624,0.21390029788017273,-0.25645893812179565,0.16208717226982117
1789799141178366700,11.06836669921875,0.10293304175138474,-0.20202286541461945,0.1882079839706421
1789799141188339700,11.078339599609375,-0.03936418518424034,-0.13992221653461456,0.22353269159793854
1789799141198311700,11.088311767578125,-0.19453805685043335,-0.11148445308208466,0.2514415681362152
1789799141208284700,11.09828466796875,-0.3346048891544342,-0.1494438201189041,0.2595069408416748
1789799141218256600,11.108256591796875,-0.43617305159568787,-0.19461369514465332,0.27774637937545776
1789799141228230000,11.11822998046875,-0.5186777710914612,-0.1268189251422882,0.3301731050014496
1789799141238201600,11.12820166015625,-0.557626485824585,-0.06348523497581482,0.37887275218963623
1789799141248174600,11.138174560546876,-0.6430167555809021,0.025139441713690758,0.4050156772136688
1789799141258146800,11.148146728515625,-0.7233997583389282,0.03759797662496567,0.3661841154098511
1789799141268119800,11.158119873046875,-0.7805259227752686,-0.022343654185533524,0.3044869303703308
1789799141278091800,11.168091796875,-0.8731203079223633,-0.07047256827354431,0.28300774097442627
1789799141288064800,11.178064697265626,-0.9487593770027161,-0.14479394257068634,0.26875317096710205
1789799141298036700,11.18803662109375,-1.0432502031326294,-0.1630736142396927,0.255201131105423
1789799141308009700,11.198009765625,-1.1472543478012085,-0.09816012531518936,0.2315722405910492
1789799141317981700,11.207981689453124,-1.2545193433761597,-0.029825007542967796,0.195159912109375
1789799141327954700,11.21795458984375,-1.3436342477798462,0.0321161262691021,0.14719077944755554
1789799141337926700,11.2279267578125,-1.4081515073776245,0.08460649847984314,0.07617359608411789
1789799141347899600,11.237899658203125,-1.4276015758514404,0.09848529100418091,-0.0075873457826673985
1789799141357871900,11.247871826171876,-1.4437673091888428,0.09583678096532822,-0.07609610259532928
1789799141367844900,11.257844970703125,-1.4347470998764038,0.03596971929073334,-0.14205993711948395
1789799141377816600,11.267816650390625,-1.4789042472839355,-0.043656934052705765,-0.17159944772720337
1789799141387789800,11.277789794921874,-1.5484329462051392,-0.13557539880275726,-0.19093187153339386
1789799141397761500,11.287761474609376,-1.6338013410568237,-0.1770205795764923,-0.19329622387886047
1789799141407734500,11.297734619140625,-1.6979726552963257,-0.13466034829616547,-0.1947774738073349
1789799141417706800,11.307706787109375,-1.752350091934204,-0.018037855625152588,-0.25830772519111633
1789799141427679700,11.3176796875,-1.786184549331665,0.1192273274064064,-0.36546745896339417
1789799141437651700,11.327651611328125,-1.809561014175415,0.21117828786373138,-0.46670272946357727
1789799141447624700,11.337624755859375,-1.8013110160827637,0.1889888346195221,-0.5015866756439209
1789799141457596700,11.3475966796875,-1.7837077379226685,0.061410628259181976,-0.4938770830631256
1789799141467569700,11.357569580078126,-1.7766634225845337,-0.10230852663516998,-0.47483521699905396
1789799141477541600,11.367541748046875,-1.7693405151367188,-0.2169155329465866,-0.4345402717590332
1789799141487514600,11.3775146484375,-1.7784779071807861,-0.21425797045230865,-0.40836405754089355
1789799141497486600,11.387486572265624,-1.7823344469070435,-0.1496448814868927,-0.42050275206565857
1789799141507459600,11.39745947265625,-1.795066475868225,-0.1794629693031311,-0.4594693183898926
1789799141517431800,11.407431884765625,-1.835275411605835,-0.2111159712076187,-0.4757702648639679
1789799141527404800,11.41740478515625,-1.81444251537323,-0.4212617576122284,-0.5073026418685913
1789799141537376800,11.427376708984376,-1.7877589464187622,-0.6545602679252625,-0.5190130472183228
1789799141547349800,11.437349853515625,-1.7996078729629517,-0.8478232026100159,-0.5131309628486633
1789799141557321700,11.44732177734375,-1.8731598854064941,-0.9098353981971741,-0.47158029675483704
1789799141567294700,11.457294677734374,-1.8496567010879517,-1.0151610374450684,-0.47885075211524963
1789799141577266700,11.4672666015625,-1.831924557685852,-1.0950721502304077,-0.4800723195075989
1789799141587239700,11.47723974609375,-1.7504990100860596,-1.1429730653762817,-0.4691016972064972
1789799141597211600,11.487211669921875,-1.6824342012405396,-1.0990029573440552,-0.4099276065826416
1789799141607184600,11.4971845703125,-1.5544650554656982,-1.1082875728607178,-0.36539262533187866
1789799141617156900,11.507156982421876,-1.4169443845748901,-1.1083879470825195,-0.32218071818351746
1789799141627129900,11.5171298828125,-1.2839405536651611,-1.0539106130599976,-0.25772368907928467
1789799141637101600,11.5271015625,-1.1353579759597778,-1.0669350624084473,-0.18230269849300385
1789799141647074800,11.53707470703125,-0.9854364395141602,-1.0607365369796753,-0.09982086718082428
1789799141657046800,11.547046875,-0.8309038281440735,-0.9453811645507812,0.001597363967448473
1789799141667019500,11.55701953125,-0.6951447129249573,-0.7580187320709229,0.08150418102741241
1789799141676991700,11.56699169921875,-0.5745812654495239,-0.5313344597816467,0.0994938313961029
1789799141686964700,11.57696484375,-0.42661309242248535,-0.3096095323562622,0.07855206727981567
1789799141696936700,11.586936767578125,-0.2641701400279999,-0.13894882798194885,0.09613478928804398
1789799141706909700,11.59690966796875,-0.11255744099617004,0.013176255859434605,0.12322872132062912
1789799141716881700,11.606881591796874,0.046554453670978546,0.1899760663509369,0.13092073798179626
1789799141726855000,11.61685498046875,0.23030723631381989,0.38440757989883423,0.14730796217918396
1789799141736826600,11.62682666015625,0.40301111340522766,0.574951708316803,0.20547060668468475
1789799141746799600,11.636799560546875,0.5544490814208984,0.6933379769325256,0.26849430799484253
1789799141756771800,11.646771728515626,0.6692276000976562,0.7175543904304504,0.2985938787460327
1789799141766744600,11.65674462890625,0.7962731719017029,0.7393760681152344,0.2921655476093292
1789799141776716800,11.666716796875,0.9599934220314026,0.8227100968360901,0.26457521319389343
1789799141786689800,11.676689697265624,1.120620846748352,0.9037743210792542,0.2578784227371216
1789799141796661500,11.68666162109375,1.2558053731918335,0.9328067898750305,0.2878166139125824
1789799141806634800,11.696634765625,1.3829675912857056,0.9193871021270752,0.3215934634208679
1789799141816606700,11.706606689453125,1.5229175090789795,0.915132462978363,0.33051666617393494
1789799141826579700,11.716579833984374,1.6672546863555908,0.9244409799575806,0.3246752917766571
1789799141836551700,11.7265517578125,1.7982382774353027,0.9517615437507629,0.31366631388664246
1789799141846524700,11.736524658203125,1.9148404598236084,0.9821016192436218,0.2851009666919708
1789799141856497000,11.746496826171875,2.0500640869140625,1.0080045461654663,0.23986852169036865
1789799141866469600,11.7564697265625,2.1770522594451904,0.9848209619522095,0.1899406462907791
1789799141876441600,11.766441650390625,2.2680702209472656,0.9414618015289307,0.15493765473365784
1789799141886414800,11.776414794921875,2.317138195037842,0.8687268495559692,0.13299453258514404
1789799141896386600,11.786386474609374,2.351667881011963,0.8233556747436523,0.11291936039924622
1789799141906359600,11.796359619140626,2.3840885162353516,0.7921383380889893,0.06837106496095657
1789799141916331800,11.806331787109375,2.4389822483062744,0.7538532614707947,0.008567122742533684
1789799141926304800,11.8163046875,2.4913711547851562,0.6869251132011414,-0.046786680817604065
1789799141936276700,11.82627685546875,2.510580062866211,0.6260684132575989,-0.0827002078294754
1789799141946248700,11.836248779296875,2.4888951778411865,0.5454005002975464,-0.1014893427491188
1789799141956221700,11.8462216796875,2.446280002593994,0.4653879404067993,-0.09733134508132935
1789799141966193700,11.856193603515624,2.404554843902588,0.3809627890586853,-0.07136791944503784
1789799141976166700,11.866166748046876,2.304872751235962,0.1813892275094986,-0.07874647527933121
1789799141986139000,11.876138916015625,2.1735966205596924,-0.0038807583041489124,-0.07654350996017456
1789799141996111600,11.886111572265625,2.056792736053467,-0.07623884826898575,-0.06478991359472275
1789799142006083800,11.896083740234374,1.9499715566635132,-0.08914532512426376,-0.072859026491642
1789799142016056800,11.906056884765626,1.8202450275421143,-0.12232085317373276,-0.08709202706813812
1789799142026028500,11.916028564453125,1.716844081878662,-0.22656843066215515,-0.09860753268003464
1789799142036001800,11.926001708984375,1.6235284805297852,-0.35658687353134155,-0.11585043370723724
1789799142045973800,11.935973876953126,1.5200151205062866,-0.4537754952907562,-0.12306653708219528
1789799142055946500,11.945946533203125,1.3970530033111572,-0.5287423729896545,-0.11711064726114273
1789799142065918700,11.955918701171875,1.256229281425476,-0.5343238711357117,-0.0880289226770401
1789799142075891700,11.9658916015625,1.1377540826797485,-0.5598347783088684,-0.05639323592185974
1789799142085863700,11.97586376953125,1.0345962047576904,-0.605438232421875,-0.01655660569667816
1789799142095836700,11.985836669921875,0.8880241513252258,-0.6086183190345764,0.02371465042233467
1789799142105808600,11.99580859375,0.7520769238471985,-0.5093148946762085,0.053233660757541656
1789799142115782000,12.005781982421874,0.6287342309951782,-0.3276391327381134,0.05578549951314926
1789799142125753600,12.015753662109375,0.506892204284668,-0.18076418340206146,0.020908743143081665
1789799142135726600,12.0257265625,0.36751464009284973,-0.16427309811115265,-0.026507241651415825
1789799142145698800,12.03569873046875,0.18661701679229736,-0.22977301478385925,-0.03909653425216675
1789799142155671800,12.045671875,0.04042598605155945,-0.2531382441520691,-0.010352239944040775
1789799142165644000,12.05564404296875,-0.13501454889774323,-0.2012188583612442,0.02522199973464012
1789799142175617000,12.065616943359375,-0.30700042843818665,-0.17447726428508759,0.049853574484586716
1789799142185588700,12.075588623046874,-0.4564194679260254,-0.13575570285320282,0.08025196194648743
1789799142195562000,12.08556201171875,-0.5803903937339783,-0.04295732080936432,0.11699346452951431
1789799142205534000,12.095533935546875,-0.6629353761672974,0.04766179621219635,0.1438051015138626
1789799142215507000,12.1055068359375,-0.726617157459259,0.10057001560926437,0.15846793353557587
1789799142225479000,12.11547900390625,-0.7688287496566772,0.0480375662446022,0.16353513300418854
1789799142235451000,12.125450927734375,-0.8072288632392883,-0.045816488564014435,0.16743320226669312
1789799142245424000,12.135424072265625,-0.8437357544898987,-0.05597378686070442,0.18184596300125122
1789799142255395800,12.145395751953124,-0.8793637752532959,-0.012103800661861897,0.18895234167575836
1789799142265368800,12.155368896484376,-0.967284083366394,0.057735733687877655,0.18613764643669128
1789799142275341000,12.165341064453125,-1.0318012237548828,0.07272959500551224,0.16678285598754883
1789799142285313800,12.175313720703125,-1.1101605892181396,0.05866198241710663,0.14671939611434937
1789799142295286000,12.1852861328125,-1.206238031387329,0.06679794192314148,0.11520089209079742
1789799142305259000,12.195259033203126,-1.3053483963012695,0.08659934252500534,0.06554785370826721
1789799142315230700,12.205230712890625,-1.417382836341858,0.08781827241182327,-0.010354103520512581
1789799142325204000,12.215203857421875,-1.5244154930114746,0.08362432569265366,-0.10791421681642532
1789799142335176000,12.225176025390626,-1.5978444814682007,0.07361695915460587,-0.229755699634552
1789799142345149000,12.23514892578125,-1.6392678022384644,0.06456940621137619,-0.3653169870376587
1789799142355121000,12.245120849609375,-1.6887993812561035,0.07995954900979996,-0.4779393970966339
1789799142365094000,12.255093994140625,-1.745639443397522,-0.02654079720377922,-0.5521481037139893
1789799142375066000,12.265066162109376,-1.8029296398162842,-0.2693060338497162,-0.5401580333709717
1789799142385038800,12.275038818359375,-1.8529443740844727,-0.560911238193512,-0.4774682819843292
1789799142395011000,12.285010986328125,-1.9056289196014404,-0.6664062738418579,-0.46304407715797424
1789799142404984000,12.294984130859374,-1.9470815658569336,-0.45026808977127075,-0.5530107021331787
1789799142414955800,12.304955810546875,-1.8618345260620117,-0.046662043780088425,-0.6254734992980957
1789799142424929000,12.314928955078125,-1.740769624710083,0.19179899990558624,-0.6113131642341614
1789799142434901000,12.32490087890625,-1.6604846715927124,0.057434529066085815,-0.5394940972328186
1789799142444874000,12.3348740234375,-1.6778117418289185,-0.2823542058467865,-0.4675733149051666
1789799142454846000,12.344845947265625,-1.7269686460494995,-0.5722174644470215,-0.452789843082428
1789799142464818000,12.35481787109375,-1.760254144668579,-0.6671591401100159,-0.4758208692073822
1789799142474791200,12.364791259765624,-1.7952443361282349,-0.6538504958152771,-0.5192519426345825
1789799142484763000,12.374762939453126,-1.8198093175888062,-0.6450064182281494,-0.5359760522842407
1789799142494736000,12.38473583984375,-1.8620017766952515,-0.6779494881629944,-0.5192689895629883
1789799142504708000,12.3947080078125,-1.9308913946151733,-0.7191837430000305,-0.4818230867385864
