time,seconds_elapsed,z,y,x
1789620372594649600,0.044649658203125,6.02710340423584,6.430376746368408,0.16505027694702148
1789620372604620500,0.05462060546875,6.6784758934021,6.613233898162841,-0.2678513107299805
1789620372614592500,0.064592529296875,7.426813549804687,6.405536904144287,-0.13302782974243163
1789620372624563500,0.0745634765625,7.291990068817138,5.875370874023437,-0.010025719451904296
1789620372634534700,0.08453466796875,6.320243470001221,5.462670362854004,-0.08738836059570312
1789620372644505600,0.094505615234375,5.932382801055907,4.824017070007324,-0.7839514060974121
1789620372654477600,0.1044775390625,6.505195548248291,4.582501977539062,-0.5059247383117675
1789620372664448500,0.114448486328125,6.2487166954040525,4.761917464447021,-0.3199251968383789
1789620372674419700,0.124419677734375,6.569090805053711,5.447856240081787,-0.16250643768310546
1789620372684390700,0.134390625,7.714716299438476,5.757905355072021,0.2946364418029785
1789620372694362600,0.144362548828125,8.352920679473877,5.140949514770507,1.2382511711120605
1789620372704333600,0.15433349609375,7.795670243072509,4.045452617645264,2.3116017028808593
1789620372714304500,0.164304443359375,7.2057988090515135,3.5221699172973633,2.7965771766662595
1789620372724275700,0.174275634765625,6.7924997474670405,4.074482312774658,2.0433014793395996
1789620372734247400,0.184247314453125,6.195146433258056,4.991012635803222,1.537227103424072
1789620372744218600,0.194218505859375,6.099827279663086,5.990442191314697,1.7061679580688476
1789620372754189300,0.204189208984375,6.531531766510009,6.836942115783691,2.0060417160034176
1789620372764160300,0.21416015625,6.8134490119934075,6.60799658203125,2.2617723808288575
1789620372774132200,0.22413232421875,6.842927619934081,5.172074136352538,1.8432360031127928
1789620372784103200,0.234103271484375,8.809016095733641,7.160608252716064,2.736722135162353
1789620372794074400,0.244074462890625,7.661894225311279,4.746055878448486,1.5927426544189451
1789620372804045300,0.25404541015625,7.114819145965575,4.074033399963379,0.2539350135803223
1789620372814017300,0.264017333984375,5.850082118988037,6.074239249420166,-0.6507739387512207
1789620372823988200,0.27398828125,2.5098715278625487,8.067262493896484,-0.6124667121887206
1789620372833959400,0.28395947265625,3.799298759460449,7.1038956008911125,-0.039055414581298825
1789620372843930400,0.293930419921875,5.002534731292724,4.454861101531982,-1.5984288833618163
1789620372853902300,0.30390234375,3.487753268432617,3.2704794677734372,-2.2043115409851075
1789620372863873300,0.313873291015625,2.842815196228027,0.8506897773742675,-1.660528488922119
1789620372873844200,0.32384423828125,3.2769138847351074,-1.285087741088867,-0.6619967590332031
1789620372883815200,0.333815185546875,4.819677579498291,-1.8789993904113769,-0.921917276763916
1789620372893786000,0.3437861328125,7.231087564086914,-2.1805191619873048,-2.927210804748535
1789620372903758300,0.35375830078125,8.845527671051025,-2.518101596069336,-4.524891500091552
1789620372913729300,0.363729248046875,8.928875816345215,-3.2248399986267087,-4.237587300872803
1789620372923700200,0.3737001953125,9.381230292510987,-3.571400688934326,-3.0904654304504393
1789620372933671200,0.383671142578125,9.363273780059814,-3.565714459991455,-2.9665654945373534
1789620372943643400,0.393643310546875,11.84291851196289,-2.4389433036804196,-2.0036475143432617
1789620372953614300,0.4036142578125,14.782249962615966,-0.7255927406311035,-0.3372831588745117
1789620372963585000,0.4135849609375,14.337826279449462,0.3372831588745117,1.839345425415039
1789620372973556200,0.42355615234375,15.21305662384033,1.7708114028930664,4.337245944976806
1789620372983528200,0.433528076171875,15.122226598358154,2.71966344833374,6.3076739112854
1789620372993499400,0.44349951171875,13.629591500854492,2.855684030151367,7.286303839874267
1789620373003470000,0.453469970703125,13.20312433013916,3.134009973144531,7.109581829833984
1789620373013441300,0.463441162109375,13.479056071472167,3.571999239349365,6.615328824615478
1789620373023413200,0.473413330078125,13.348721718597412,3.5972879943847653,6.3156047042846675
1789620373033384400,0.483384521484375,12.759897747802734,3.496581887054443,6.416909362030029
1789620373043355100,0.493355224609375,11.983428221893309,3.9318776763916015,7.108085453796386
1789620373053326300,0.503326416015625,11.24302135848999,4.707599014282226,8.064718654632568
1789620373063298300,0.51329833984375,11.111938817596435,5.2171150550842285,8.821286379241943
1789620373073269200,0.523269287109375,10.841842942810057,5.261557423400879,9.118765935516358
1789620373083240200,0.533240234375,9.19313582458496,5.63086302947998,9.072378278350829
1789620373093211100,0.543211181640625,6.67129328842163,5.896320138549805,8.798541463470459
1789620373103183400,0.553183349609375,4.623203405761719,5.914575926208496,7.717409776306152
1789620373113154000,0.563154052734375,3.323750454711914,6.0330889083862305,6.989722109222412
1789620373123125200,0.573125244140625,2.745850028991699,6.264578281402588,7.678354361724853
1789620373133096200,0.58309619140625,2.922123126220703,6.302586232757568,9.162160840606688
1789620373143068400,0.593068359375,4.0092403175354,5.804442649841309,10.384400788116455
1789620373153039000,0.6030390625,4.933402158355713,4.350414054107666,10.327388861083984
1789620373163010300,0.61301025390625,5.261407785797119,4.370914405822754,10.581024599456786
1789620373172981200,0.622981201171875,5.610811590576172,4.372710057067871,9.958382530212402
1789620373182953500,0.632953369140625,5.929838961791992,4.209605068969727,9.169642720794677
1789620373192924200,0.642924072265625,6.456563327026367,4.323628923034668,9.303568376159667
1789620373202895000,0.65289501953125,6.973860523223877,4.005649015045166,9.59476315307617
1789620373212866300,0.6628662109375,7.1209542877197265,3.5410242553710933,9.620201545715332
1789620373222837200,0.672837158203125,6.887519625854492,3.2134675407409667,9.275137231445312
1789620373232809200,0.682809326171875,6.419153926086425,3.014150252532959,8.230666757202147
1789620373242780200,0.6927802734375,5.677101049041748,2.8781296707153317,6.92088881149292
1789620373252751400,0.70275146484375,5.006874221801757,2.4999954460144043,5.920411792755127
1789620373262722300,0.712722412109375,4.930409406280518,2.281674182128906,5.290437480926514
1789620373272694300,0.7226943359375,5.3853077217102046,1.9500772521972656,5.028422036743164
1789620373282665200,0.732665283203125,6.3989528495788575,1.7164929527282713,5.316923336791992
1789620373292636200,0.74263623046875,7.152078909301758,1.5179238525390624,6.034435646820068
1789620373302607400,0.752607421875,7.093720243835449,1.2476783401489258,6.209661280822753
1789620373312579000,0.7625791015625,5.8913820976257325,0.6114192489624023,5.490054044342041
1789620373322550300,0.77255029296875,3.603872048950195,0.2512415367126465,4.598662838745117
1789620373332521200,0.782521240234375,1.753154165649414,0.5163993705749511,4.507533538055419
1789620373342492400,0.792492431640625,1.2179004570007324,0.8450035484313965,5.081244110870361
1789620373352464100,0.802464111328125,2.0355203239440915,0.8447042732238769,5.645677152252197
1789620373362435300,0.812435302734375,3.2713772933959957,0.5325602317810059,6.0136360198974605
1789620373372406300,0.82240625,3.9074867469787598,-0.08065466842651367,5.862053127288818
1789620373382377200,0.832377197265625,3.8334161331176757,-1.1139023223876952,5.014206464385986
1789620373392349200,0.84234912109375,3.3328783485412594,-2.198924587249756,3.8768110382080074
1789620373402320100,0.852320068359375,3.052457479095459,-3.171120098876953,2.8784289459228516
1789620373412291300,0.862291259765625,3.0639795745849607,-3.6355952209472653,2.5043349365234375
1789620373422262300,0.87226220703125,3.42176308517456,-3.6379894226074216,2.8170775283813474
1789620373432234200,0.882234130859375,3.2761656967163084,-3.5965398063659664,3.3948283164978026
1789620373442205200,0.892205078125,3.4247558372497555,-4.539705622863769,3.9969700340270995
1789620373452176400,0.90217626953125,4.087201509094238,-5.875969424438476,4.317344143676758
1789620373462147300,0.912147216796875,4.752041382598876,-6.968473569488525,4.627692533874511
1789620373472119300,0.922119384765625,4.513070129394531,-7.774571340942383,6.658424454498291
1789620373482090200,0.93209033203125,4.802319617462158,-8.001870861053467,5.30540124130249
1789620373492061200,0.942061279296875,4.963628954315185,-7.911489748382568,6.279841316986084
1789620373502032400,0.952032470703125,4.43106872253418,-9.329455681610106,8.236502623748779
1789620373512004000,0.962004150390625,4.85184966430664,-9.532064997100829,9.503035301971435
1789620373521975300,0.971975341796875,5.335777674865723,-8.981548252868652,11.675324395751952
1789620373531946200,0.9819462890625,5.184494057464599,-8.54939485321045,13.121272560882568
1789620373541917400,0.99191748046875,5.243451273345947,-7.967154936981201,13.524695540618895
1789620373551889200,1.00188916015625,5.5367409767150875,-7.770231850433349,14.290091883850097
1789620373561860400,1.0118603515625,5.6854807548522945,-7.803750673675537,15.809811387634277
1789620373571831300,1.021831298828125,5.649418092346191,-8.0437693901062,17.668310426330564
1789620373581802500,1.031802490234375,5.587917037200928,-7.249343351745605,20.100220762634276
1789620373591774200,1.041774169921875,4.828356560516357,-6.00151537399292,22.627749527740477
1789620373601745400,1.051745361328125,3.633949207305908,-4.779125788879394,24.628404290008543
1789620373611716400,1.06171630859375,1.274313833618164,-3.047669075775146,24.971224040222168
1789620373621687300,1.071687255859375,0.34401685104370117,-1.9032406822204588,24.305635978698728
1789620373631659300,1.0816591796875,-3.605966975402832,-1.4131775299072264,23.765444229125976
1789620373641630200,1.091630126953125,-11.139023223876952,0.2889502128601074,23.880066633605956
1789620373651601400,1.101601318359375,-13.543100965881347,1.9268834236145018,24.211065013122557
1789620373661572000,1.111572021484375,-9.995193380737303,2.529922966766357,25.492411814117432
1789620373671544300,1.12154443359375,-7.41828420639038,2.395548398590088,23.844752159118652
1789620373681515300,1.131515380859375,-3.400364907836914,1.1367968757629394,21.039047088623047
1789620373691486500,1.141486572265625,-0.14604630126953125,0.20096330184936523,18.41036330337524
1789620373701457200,1.15145703125,1.0742483573913573,0.22774843292236327,15.52639776611328
1789620373711429400,1.161429443359375,-0.26695348510742184,0.5557540603637695,14.802451039123534
1789620373721400300,1.171400390625,-2.341678861236572,0.4586392555236816,15.974861664581297
1789620373731371300,1.181371337890625,-3.7790976829528806,0.8644564369201659,13.453168766021728
1789620373741342200,1.19134228515625,-4.959738376617431,0.201112939453125,10.216357759094238
1789620373751314700,1.201314697265625,-2.8871079269409177,-1.263539926147461,9.654169281768798
1789620373761285600,1.21128564453125,-1.0218751960754393,-2.4172458511352537,9.360729940795897
1789620373771256600,1.221256591796875,0.6425438705444335,-2.0979192047119137,9.147047442626953
1789620373781227500,1.2312275390625,0.3333925811767578,-1.3603554557800293,10.87236901397705
1789620373791199700,1.24119970703125,-0.5461772537231445,-0.6666355247497558,10.414777221679687
1789620373801170700,1.251170654296875,-0.14125789794921875,-0.15696984634399413,9.414599478149414
1789620373811141600,1.2611416015625,-0.9165303230285644,-0.08798691101074219,8.285583757781982
1789620373821112600,1.271112548828125,-1.0944494338989257,0.3694552436828613,8.15255592803955
1789620373831084800,1.281084716796875,-0.08693944778442382,-0.46507367248535153,6.894402955627441
1789620373841055700,1.2910556640625,-0.5722141967773438,-1.9844939010620115,2.811690574645996
1789620373851026400,1.3010263671875,0.016160861206054686,-1.537227103424072,2.278531792449951
1789620373860997600,1.31099755859375,0.577152237701416,-2.005742440795898,1.8963573524475097
1789620373870969600,1.320969482421875,-0.09711480484008789,-0.8234557334899902,2.573467509460449
1789620373880940800,1.33094091796875,0.45010991210937495,0.9840168823242187,5.134814373016357
1789620373890911500,1.340911376953125,-0.11566986770629882,3.9366660797119137,7.95473501586914
1789620373900883700,1.3508837890625,-1.2702736183166503,-1.8828899681091307,4.1852141395568845
1789620373910854700,1.360854736328125,-0.11043255157470702,-1.980453685760498,1.854009910583496
1789620373920825600,1.37082568359375,2.050035171508789,-4.107851498413086,0.849791951751709
1789620373930796500,1.380796630859375,1.0995371124267577,-3.519626078033447,2.0124761329650878
1789620373940768800,1.390768798828125,0.4269160835266113,-3.7084687339782714,4.428674520874023
1789620373950739700,1.40073974609375,0.24166473007202147,-6.485144109344482,5.09471149520874
1789620373960710400,1.41071044921875,-1.0458172126770018,-7.224204234313964,2.5694272941589356
1789620373970681600,1.420681640625,-3.030460751342773,-7.362020467376708,2.3216274223327638
1789620373980653600,1.430653564453125,-4.44363828125,-2.6300305236816404,3.0080151107788082
1789620373990624800,1.440624755859375,-2.211344508361816,-2.940229276275635,5.806238301086426
1789620374000595500,1.450595458984375,-0.931494083404541,-7.377732415771484,9.025691345977783
1789620374010566700,1.460566650390625,2.22166950302124,-7.353341486358642,5.150376683807373
1789620374020538600,1.47053857421875,0.3950432739257812,-8.981847528076171,7.848791592407226
1789620374030509800,1.480509765625,-0.8776245460510254,-9.315539384460449,11.214141300964355
1789620374040480500,1.49048046875,-1.5432126075744628,-7.272986093139648,14.126986895751953
1789620374050451500,1.500451416015625,-0.4387374542236328,-7.174823825073242,13.593229563140868
1789620374060423700,1.510423583984375,-1.0619780738830567,-8.017882084655762,13.272406540679931
1789620374070394600,1.52039453125,-0.42766427154541015,-8.700678470611571,12.058396661376952
1789620374080365600,1.530365478515625,-0.19258359603881836,-9.880122063446045,10.714650979614257
1789620374090336500,1.54033642578125,0.7154173835754394,-9.699509475708007,8.15854143218994
1789620374100308700,1.550308837890625,-0.814028564453125,-6.012438919067383,8.736441857910156
1789620374110279700,1.56027978515625,-2.855085479736328,0.8390180442810058,18.158373578643797
1789620374120874800,1.570874755859375,6.015880583953857,-1.2288240020751953,17.97731207809448
1789620374130845400,1.580845458984375,5.595548554992676,-6.006902327728271,15.910667132568358
1789620374140817700,1.590817626953125,4.419845902252197,-8.720430634307862,16.53375811462402
1789620374150788600,1.60078857421875,2.286013672637939,-2.8501474388122556,15.018527738952637
1789620374160759800,1.610759765625,-1.6350900962829589,-4.037222549438476,16.70823556060791
1789620374170730500,1.62073046875,-0.8345289161682128,-6.229114169311523,15.059977355194091
1789620374180702700,1.63070263671875,-0.7287351303100585,-11.46598138809204,8.692897315216063
1789620374190673700,1.640673583984375,-0.31977555923461914,-9.666589202880859,6.654234601593017
1789620374200644600,1.65064453125,0.43843817901611326,-10.920552322387694,7.953986827850342
1789620374210615600,1.660615478515625,0.7091326042175292,-9.241319132995605,8.407538404846191
1789620374220587800,1.670587890625,2.0220529396057128,-7.134720947265625,9.824007962036132
1789620374230558700,1.680558837890625,4.396652073669434,-5.896320138549805,9.516652323913574
1789620374240529700,1.69052978515625,3.8899791473388667,-3.1304186706542967,11.781267819213866
1789620374250500600,1.70050048828125,3.2043396469116208,-4.065653694152831,11.60664073562622
1789620374260472600,1.71047265625,1.9601029716491698,-6.041767889404296,8.554033618927
1789620374270443800,1.72044384765625,-0.2753331909179687,-2.2813749069213864,5.961262858581542
1789620374280414500,1.73041455078125,-1.127519344329834,0.14679448928833008,6.092943949890136
1789620374290385700,1.7403857421875,-0.266205297088623,-1.3845967475891112,11.041309868621825
1789620374300357600,1.750357666015625,0.05192424850463867,0.3871124809265136,11.53062483291626
1789620374310328800,1.760328857421875,0.9097966308593749,-1.2036848846435546,7.236474517822265
1789620374320299500,1.770299560546875,0.539443561553955,0.26710312271118164,6.036380935668945
1789620374330271700,1.780271728515625,-0.5582978996276855,1.0103531005859374,6.737283471679687
1789620374340242700,1.79024267578125,-0.748936206817627,-1.9087772735595703,6.366481489562988
1789620374350213600,1.800213623046875,0.010025719451904296,-4.727351177978515,6.343736573791504
1789620374360184600,1.8101845703125,0.9763853645324706,-5.937769754791259,8.672845876312255
1789620374370156500,1.820156494140625,0.6607996582031249,-5.6489691795349115,10.989984170532226
1789620374380127700,1.830127685546875,-0.0570119270324707,-4.988917709350585,11.666046864318847
1789620374390098700,1.8400986328125,-0.8421604339599609,-4.797082301330566,11.438148793792724
1789620374400069600,1.850069580078125,-0.9938929641723632,-4.817582653045654,10.571447792816162
1789620374410041600,1.86004150390625,-0.6631938598632812,-4.859331544494629,10.273818598937988
1789620374420012800,1.8700126953125,-1.1429320175170898,-4.580855963897704,11.135431921386719
1789620374429983500,1.8799833984375,-2.4293664970397946,-4.548534241485595,11.904569204711914
1789620374439954400,1.889954345703125,-1.8671780197143553,-4.9905637229919435,10.881796183013915
1789620374449926700,1.8999267578125,-2.6167127769470215,0.3317465675354004,8.81709652633667
1789620374459897600,1.909897705078125,0.9063549659729003,2.6631004341125486,7.810185090637207
1789620374469868500,1.91986865234375,2.1302409271240235,-1.82587804107666,7.972392253112792
1789620374479840500,1.929840576171875,-1.2533645690917967,-0.5553051475524902,9.4879219039917
1789620374489811700,1.939811767578125,-2.2475568084716797,0.25737667846679685,10.720337208557128
1789620374499782700,1.94978271484375,-1.65992993850708,-1.6437690773010254,11.764059494781494
1789620374509753600,1.959753662109375,-1.0577882209777831,-3.754557115936279,12.215665782928466
1789620374519725600,1.9697255859375,-0.49634793167114255,-4.133289891052246,11.21683477783203
1789620374529696800,1.97969677734375,-0.4278139091491699,-4.089146797943115,9.620051908111572
1789620374539667700,1.989667724609375,-0.5539584091186524,-3.49852717590332,8.641272341918945
1789620374549639700,1.9996396484375,-0.6528688652038573,-3.0228292335510254,8.290821073913573
1789620374559610600,2.009610595703125,-0.41105449752807616,-2.2596774543762206,8.722525560760497
1789620374569581600,2.01958154296875,-0.6489782875061034,-0.41270051116943357,8.959551525115966
1789620374579552800,2.029552734375,-1.2105682144165038,1.6518495079040527,6.855197903442383
1789620374589524500,2.0395244140625,-0.45175592575073237,3.3988685317993164,3.566163372802734
1789620374599495700,2.04949560546875,0.7089829666137695,3.974225118255615,1.6654665298461913
1789620374609466600,2.059466552734375,0.3990834892272949,3.2435446990966796,2.3240216239929197
1789620374619437600,2.0694375,0.4451718711853027,2.693626505279541,3.347243558502197
1789620374629409500,2.079409423828125,1.0001777435302734,1.43008657913208,3.3942297660827636
1789620374639380700,2.089380615234375,0.09367313995361327,0.967856021118164,3.755305303955078
1789620374649351700,2.0993515625,0.4004302276611328,0.026485855865478514,5.280860674285888
1789620374659323600,2.10932373046875,-1.368735161590576,-2.455253802490234,7.652167781066894
1789620374669294600,2.119294677734375,-2.1179706436157226,-2.4500164863586424,8.404096739959716
1789620374679265800,2.129265869140625,-1.9871873779296874,-1.4347253448486328,7.323264328002929
1789620374689236700,2.13923681640625,-0.6959644950866699,-1.4945803863525389,7.361870829772949
1789620374699208700,2.149208740234375,0.5187935722351074,-5.876867250061035,7.494300109100341
1789620374709179600,2.1591796875,0.7962216896057128,-9.485078789520264,5.857264723968505
1789620374719150600,2.169150634765625,1.272368544769287,-9.200916979980468,6.127659873962402
1789620374729122600,2.17912255859375,-1.1640309196472167,-11.10236201095581,10.839598378753662
1789620374739093500,2.189093505859375,-3.720140467071533,-3.9905356170654294,3.5473090347290035
1789620374749064200,2.199064208984375,-1.5888520767211913,0.4782417816162109,-2.0382138008117674
1789620374759035400,2.209035400390625,-0.7401075881958007,-15.007155281066893,3.7515643638610836
1789620374769007000,2.219007080078125,1.4450503395080565,-12.27641865005493,2.602497204589844
1789620374778978300,2.228978271484375,4.254645987701416,-10.72557452468872,7.495946122741699
1789620374788949200,2.23894921875,2.620902629852295,-10.061931752014159,11.718420025634765
1789620374798920200,2.248920166015625,-0.4439747703552246,-10.814459261322021,12.201001297760008
1789620374808892200,2.25889208984375,-1.897404815673828,-11.701810251617431,10.62995609588623
1789620374818863000,2.268863037109375,-2.592920397949219,-10.682927807617187,9.189843797302245
1789620374828834300,2.278834228515625,-2.392256371307373,-9.082254360198974,7.8824600532531734
1789620374838806300,2.28880615234375,-0.14933832855224607,-7.835773120880127,6.986878994750976
1789620374848777200,2.298777099609375,1.7622820594787596,-6.263830093383788,8.410531156921387
1789620374858748200,2.308748046875,1.2984054878234863,-5.336825138092041,10.472387699127196
1789620374868719400,2.31871923828125,-0.19048866958618163,-5.19077883682251,11.296142707824707
1789620374878691000,2.328691162109375,-0.8866028022766113,-5.09471149520874,10.296413877105712
1789620374888662300,2.338662353515625,-1.0797849487304687,-5.1517234222412105,8.335263442230223
1789620374898633200,2.34863330078125,1.0978910987854003,-5.945550910186768,5.437231970214843
1789620374908605400,2.35860546875,3.0825346374511717,-6.234650760650634,4.9175405723571775
1789620374918576000,2.368576171875,2.192939083099365,-5.634603969573974,6.989572471618652
1789620374928547000,2.378547119140625,-0.3995324020385742,-4.962581491088867,9.750236623382568
1789620374938518300,2.388518310546875,-0.11103110198974608,-4.5239936744689935,10.946888540649413
1789620374948490200,2.398490234375,1.672050584411621,-4.672134902191162,9.606285248565673
1789620374958461200,2.408461181640625,0.6389525680541992,-2.7780221138000485,6.659920830535889
1789620374968432000,2.41843212890625,2.0801123298645017,-2.8526912780761715,7.1018006744384765
1789620374978404400,2.428404296875,2.3823802894592285,-3.8627451034545897,6.473322738647461
1789620374988375300,2.438375244140625,1.8353052101135252,-4.140622133636475,6.74805737915039
1789620374998346200,2.44834619140625,0.6540659660339355,-4.151844953918457,7.344213592529297
1789620375008317200,2.458317138671875,1.9615993476867675,-5.80339518661499,8.220491400146484
1789620375018289400,2.468289306640625,2.8802245971679685,-7.537246101379394,9.73572177581787
1789620375028260400,2.47826025390625,2.7041011375427244,-8.514678929138183,10.968735630798339
1789620375038231000,2.48823095703125,2.5692776565551756,-9.83747534637451,12.816460762023924
1789620375048203300,2.498203369140625,2.646341022491455,-10.8915226272583,13.723563916015625
1789620375058174200,2.50817431640625,1.424849263000488,-11.10221237335205,12.220005273437499
1789620375068145200,2.518145263671875,-0.012868833923339843,-10.086472319030761,10.172513941192626
1789620375078116000,2.5281162109375,0.6914753669738769,-8.737788596343993,8.45916337814331
1789620375088088300,2.53808837890625,1.426196001434326,-7.490259893798828,7.1601593399047845
1789620375098059300,2.548059326171875,0.809539436340332,-6.948122855377197,6.928221054077148
1789620375108030200,2.5580302734375,1.2671312286376952,-7.1038956008911125,7.724143468475341
1789620375118002200,2.568002197265625,2.8197710052490232,-7.659649661254883,7.676109797668457
1789620375127973400,2.577973388671875,3.0469208877563476,-8.135646878814697,7.074566630554199
1789620375137944300,2.5879443359375,2.440140404510498,-8.578274910736084,6.776189248657226
1789620375147915300,2.597915283203125,1.9268834236145018,-8.826523695373535,6.370521704864502
1789620375157887200,2.60788720703125,1.2761094848632812,-8.321047869873047,5.326350505828857
1789620375167858400,2.6178583984375,0.886153889465332,-7.574206589508056,4.427627057647705
1789620375177829400,2.627829345703125,0.6823474731445313,-7.11870972366333,4.443189368438721
1789620375187801300,2.63780126953125,-0.02319382858276367,-6.556221971130371,5.76523759765625
1789620375197772300,2.647772216796875,-0.8044517578125,-6.137087042999267,7.0473325866699215
1789620375207743200,2.6577431640625,-0.6524199523925781,-6.1076084350585935,7.529764221191406
1789620375217714400,2.66771435546875,0.29822774429321286,-6.017376959991455,8.090605960083007
1789620375227686100,2.67768603515625,1.3295301094055174,-5.665429315948486,7.922712568664551
1789620375237657300,2.6876572265625,1.7776947326660155,-5.913678100585937,7.042544183349609
1789620375247628300,2.697628173828125,1.556530354309082,-6.611887159729004,7.006331883239746
1789620375257600300,2.707600341796875,1.4827590156555175,-7.302315063476562,7.679102549743652
1789620375267571200,2.7175712890625,2.3505074798583983,-8.432378247070313,8.604461491394042
1789620375277542400,2.72754248046875,3.4766800857543942,-9.396792603302002,10.075698411560058
1789620375287513300,2.737513427734375,3.9600095458984375,-9.661501524353026,10.260201576995849
1789620375297485300,2.7474853515625,3.3414076919555664,-10.01000750350952,8.558822022247314
1789620375307456300,2.757456298828125,1.7262193969726563,-9.987262587738037,7.493551921081543
1789620375317427200,2.76742724609375,1.0886135673522948,-9.540594340515137,7.08653763885498
1789620375327399200,2.777399169921875,1.0562918449401855,-9.224559721374511,6.405686541748047
1789620375337370000,2.7873701171875,1.1034276901245117,-9.178620977020262,5.137208574676514
1789620375347341300,2.79734130859375,0.572663109588623,-8.826224420166016,4.364330351257324
1789620375357312300,2.807312255859375,-0.6750152305603027,-8.324040621948242,4.529081352996826
1789620375367284200,2.8172841796875,-1.309478670501709,-8.168267876434326,5.342212091827392
1789620375377255200,2.827255126953125,-0.3058592620849609,-8.405443478393554,5.9299885993957515
1789620375387226400,2.837226318359375,1.0449193870544433,-8.45332751159668,6.247669232177734
1789620375397198000,2.847197998046875,1.9726725303649901,-7.649623941802978,6.677578067779541
1789620375407169300,2.857169189453125,2.4519617752075193,-6.140827983093262,7.390750887298584
1789620375417140200,2.86714013671875,2.015468885040283,-4.893748193359374,8.064419379425049
1789620375427112400,2.877112548828125,0.8307879760742187,-4.648791436004639,8.636633576202392
1789620375437083100,2.887083251953125,0.6792050834655762,-5.134066184997558,9.227552473449707
1789620375447054000,2.89705419921875,2.047491332244873,-6.026205578613281,8.646808933258056
1789620375457025300,2.907025390625,1.182436344909668,-6.600813977050781,8.092700886535644
1789620375466997200,2.916997314453125,-0.8152256652832031,-6.4609028175354,8.507346686553955
1789620375476968200,2.92696826171875,-1.2455834136962889,-6.177938108825683,9.375544063568114
1789620375486939100,2.936939208984375,-0.14006079711914063,-5.929539686584472,10.071209283447265
1789620375496911400,2.946911376953125,1.6338929954528807,-6.241085177612304,10.1506668510437
1789620375506882300,2.95688232421875,2.436848377227783,-6.602459990692139,10.441113439941406
1789620375516853200,2.966853271484375,3.181445093536377,-6.829909148406982,10.12597664642334
1789620375526824200,2.97682421875,2.868253588867187,-6.838288854217529,9.61481459197998
1789620375536796400,2.98679638671875,1.9137153144836425,-6.654084963989257,8.481309743499756
1789620375546767400,2.996767333984375,1.0978910987854003,-6.271012698364258,7.3802762550354
1789620375556738000,3.006738037109375,0.8379705810546875,-5.7882817886352536,6.779032363128661
1789620375566710300,3.016710205078125,0.7939771255493163,-5.692364084625244,6.834697551727294
1789620375576681200,3.02668115234375,1.1531073745727538,-5.722141967773437,7.218518005371093
1789620375586652200,3.036652099609375,1.1577461402893066,-5.781997009277344,7.851036156463622
1789620375596623000,3.046623046875,1.230918928527832,-5.863998416137695,8.49058727493286
1789620375606595300,3.05659521484375,1.4053963745117186,-6.257395676422119,7.960570882415771
1789620375616566300,3.066566162109375,1.3133692481994628,-6.757185272979736,6.428581095123291
1789620375626537200,3.076537109375,0.6006453414916992,-6.655880615234374,5.741295581054687
1789620375636509200,3.08650927734375,0.019303250885009764,-6.216993523406982,6.181080498504638
1789620375646480400,3.09648046875,0.08409633331298827,-5.751321300506591,7.35483786239624
1789620375656451300,3.106451416015625,0.21218612213134763,-5.257966120910644,9.08464856185913
1789620375666423300,3.11642333984375,0.131531453704834,-5.350891072845458,10.471340235900879
1789620375676394200,3.126394287109375,-0.1680430290222168,-6.418555375671386,9.797073193359374
1789620375686365400,3.136365478515625,-0.16609774017333984,-7.528866395568847,7.537844651794433
1789620375696336400,3.14633642578125,0.45325230178833004,-7.477241422271728,6.896048969268798
1789620375706308400,3.156308349609375,1.0600327850341795,-6.32652824935913,8.371026829528809
1789620375716279300,3.166279296875,1.0904092185974121,-5.112668007659912,10.831517948150633
1789620375726250200,3.176250244140625,0.6069301208496093,-5.118054961395264,12.490699698638915
1789620375736222200,3.18622216796875,-0.49410336761474605,-6.849212399291992,11.939883679199218
1789620375746193200,3.196193115234375,-0.9847650703430175,-8.479214817047119,10.052205307769775
1789620375756164600,3.20616455078125,-0.41958384094238277,-8.079383139801024,8.71504368057251
1789620375766136600,3.216136474609375,-0.12943652725219726,-6.433519136047363,7.970147689056396
1789620375776107500,3.226107421875,-0.16430208892822265,-5.081094473266601,8.43372498550415
1789620375786078700,3.23607861328125,-0.07616554031372069,-4.099022879791259,9.587730185699462
1789620375796049700,3.246049560546875,0.09217676391601562,-4.329764064788818,8.68885709991455
1789620375806021600,3.256021728515625,0.3016694091796875,-5.558887342071533,6.515969455718993
1789620375815992600,3.26599267578125,0.16130933685302734,-5.314678772735595,5.67530539779663
1789620375825963800,3.2759638671875,-0.4923077163696289,-3.7358524154663084,5.175515801239014
1789620375835935500,3.285935546875,-0.032172084808349606,-3.0515596534729004,4.170549654388427
1789620375845906700,3.29590673828125,1.0600327850341795,-2.9619267288208007,4.011933794403076
1789620375855877600,3.305877685546875,1.3513771995544432,-1.3340192375183104,5.225644398498535
1789620375865849900,3.315849853515625,0.9121908325195311,-0.428412459564209,5.364508094787597
1789620375875820500,3.325820556640625,0.8420107963562011,-2.396745499420166,4.561851988220215
1789620375885791500,3.33579150390625,0.1001075569152832,-3.7472248733520503,4.317044868469238
1789620375895762700,3.3457626953125,0.6536170532226562,-3.1720179244995115,4.848856912231445
1789620375905734700,3.355734619140625,1.9589058708190916,-3.1739632133483884,5.147982482147216
1789620375915705600,3.36570556640625,1.8299182563781737,-2.498947982788086,6.353612655639648
1789620375925676500,3.375676513671875,0.4643254844665527,-1.3572130661010742,8.351573941040039
1789620375935648800,3.385648681640625,0.15861585998535155,-1.8254291282653807,10.287285983276366
1789620375945619500,3.395619384765625,-1.6922516609191893,-4.253748162078857,10.31152727508545
1789620375955590700,3.405590576171875,-2.9038673385620117,-5.074360781097412,9.581595043945311
1789620375965562600,3.415562744140625,-0.8725368675231933,-4.1757869705200195,8.7463179397583
1789620375975533800,3.425533935546875,0.3570353225708008,-4.417451700592041,6.1094040863037105
1789620375985504500,3.43550439453125,0.6974608711242676,-2.4666262603759765,6.705410662078857
1789620375995476700,3.445476806640625,-0.11596914291381835,-1.082029512786865,6.966079367828368
1789620376005447700,3.45544775390625,-1.1080664558410644,-1.613991194152832,6.251110897064208
1789620376015418600,3.465418701171875,-0.3603273498535156,-2.50268892288208,5.519233377075195
1789620376025389600,3.4753896484375,0.03621230010986328,-2.634070738983154,5.636100345611572
1789620376035361500,3.485361572265625,-0.5180453842163085,-2.168697791290283,6.479308242797851
1789620376045332700,3.495332763671875,-0.37933132553100585,-2.360832474517822,6.061220777893066
1789620376055303700,3.5053037109375,0.35778351058959956,-2.657713480377197,5.831377418518066
1789620376065275600,3.515275634765625,-0.0032920272827148436,-2.7551275604248047,6.659471917724609
1789620376075246600,3.52524658203125,-1.283890640258789,-3.1667806083679197,7.885303167724609
1789620376085217800,3.5352177734375,-1.4041992736816404,-4.187458703613281,7.819612259674072
1789620376095189500,3.545189453125,-0.45938744354248046,-5.10084663696289,7.311442957305908
1789620376105160700,3.55516064453125,-0.16310498809814453,-5.448155515289306,7.550264572906494
1789620376115131600,3.565131591796875,-1.010652375793457,-5.396081629180908,7.9934911552429195
1789620376125103600,3.575103515625,-2.1217115837097165,-5.28579871520996,7.757811929321289
1789620376135074600,3.585074462890625,-1.0060136100769042,-5.346401944732666,6.797288150787353
1789620376145045500,3.59504541015625,1.1569979522705078,-5.281159949493408,5.686977130889892
1789620376155016700,3.6050166015625,1.9313725517272948,-4.595071536254882,6.340743821716308
1789620376164988400,3.614988525390625,0.19213468322753904,-4.070741372680664,8.941295737457274
1789620376174959600,3.624959716796875,-0.5009866973876953,-4.5802574134826655,10.786177754211424
1789620376184930600,3.6349306640625,-0.20171148986816406,-5.703736542510986,12.024129650115967
1789620376194902800,3.64490283203125,-0.43409868850708005,-7.114220595550536,12.23856033630371
1789620376204873500,3.65487353515625,-0.8806172981262207,-8.041225550842285,11.686696853637695
1789620376214844700,3.6648447265625,-0.0474351203918457,-7.704540942382812,10.15769981842041
1789620376224816600,3.674816650390625,1.4797662635803221,-6.32652824935913,8.583661864471434
1789620376234787600,3.68478759765625,1.4808137268066406,-5.023783271026611,8.365041325378417
1789620376244758500,3.694758544921875,0.32127193527221676,-4.515165055847167,9.67242506942749
1789620376254730800,3.704730712890625,0.8539818046569824,-5.545120682525634,9.945663333892822
1789620376264701700,3.71470166015625,2.1881506797790524,-7.427711375427245,9.58922656173706
1789620376274672400,3.72467236328125,2.655319278717041,-8.73285055541992,9.795576817321777
1789620376284643600,3.7346435546875,2.8458079483032224,-9.166350693511962,8.954613484191894
1789620376294615600,3.744615478515625,2.665494635772705,-8.894010254669189,7.402422620391845
1789620376304586800,3.754586669921875,1.8701707717895506,-8.696338980102539,6.341043096923828
1789620376314557400,3.764557373046875,0.4750993919372558,-8.281842817687988,6.609343320465087
1789620376324529700,3.77452978515625,0.7106289802551269,-7.332541859436034,6.976554000091553
1789620376334500600,3.78450048828125,2.188749230194092,-6.4184057380676265,7.3198226631164545
1789620376344471800,3.794471923828125,2.197577848815918,-6.155193193054199,8.875904104614257
1789620376354443500,3.804443603515625,0.958279214477539,-7.111377481079101,10.317812054443358
1789620376364414700,3.814414794921875,0.39579146194458004,-8.047061417388916,9.824157599639893
1789620376374385700,3.8243857421875,1.3281833709716797,-7.5266218315124505,7.99962629699707
1789620376384357600,3.834357666015625,2.0892402236938477,-7.071124965667724,6.1550435554504395
1789620376394328600,3.84432861328125,2.0519804603576657,-6.899789909362792,5.820753148651122
1789620376404299800,3.8542998046875,1.4145242683410644,-7.209240473937988,6.86941347579956
1789620376414271500,3.864271484375,1.1852794593811034,-8.536376381683349,8.853757739257812
1789620376424242700,3.87424267578125,1.7060183204650878,-9.931148486328125,10.24000050048828
1789620376434213600,3.884213623046875,2.357690084838867,-9.520243626403808,9.13028803100586
1789620376444185900,3.894185791015625,1.7069161460876463,-8.225579078674317,7.228394087219238
1789620376454156500,3.904156494140625,0.4831798225402832,-6.9527616210937495,6.576123772430419
1789620376464127500,3.91412744140625,-0.2576759536743164,-6.041169338989257,6.218938812255859
1789620376474098700,3.9240986328125,-0.0743698890686035,-6.044611003875732,6.142174721527099
1789620376484070700,3.934070556640625,0.46806642456054687,-6.7085530517578125,6.880037745666503
1789620376494041600,3.94404150390625,0.6109703361511231,-7.773673515319824,8.39571703414917
1789620376504012500,3.954012451171875,1.2208932090759277,-9.094973556518553,9.965415497589111
1789620376513984800,3.96398486328125,2.5481787544250487,-10.849923373413086,11.348366231536865
1789620376523955500,3.97395556640625,3.787028475952148,-11.499500211334228,12.312630950164793
1789620376533926700,3.9839267578125,5.6434325881958,-10.419565624999999,9.143306502532958
1789620376543898600,3.993898681640625,4.021510601043701,-9.321674526214599,5.729923123168945
1789620376553869800,4.003869873046875,0.8613140472412109,-7.961767983245849,5.380968231201171
1789620376563840500,4.013840576171875,0.05401917495727539,-7.6187985954284665,5.23492192993164
1789620376573812700,4.023812744140625,0.7077858657836914,-8.019528098297119,5.869983920288085
1789620376583783700,4.03378369140625,1.0857704528808594,-8.093598712158203,6.906673239135742
1789620376593754600,4.043754638671875,1.0911574066162109,-7.786542349243164,6.810755535125732
1789620376603726600,4.0537265625,1.0239701225280762,-6.907122151947021,6.070049396514892
1789620376613697500,4.063697509765625,0.5475239921569824,-5.915473751831055,5.530306559753417
1789620376623668700,4.073668701171875,-0.4129997863769531,-5.238812507629394,6.0236617393493646
1789620376633640400,4.083640380859375,-0.3699041564941406,-5.008669873046875,6.18646745223999
1789620376643611600,4.093611572265625,1.4691419937133787,-5.431246466064453,5.460874711608886
1789620376653582600,4.10358251953125,2.570175482177734,-5.985204875183105,5.760598831939697
1789620376663553800,4.1135537109375,1.6955436882019042,-6.341043096923828,8.44015940246582
1789620376673525500,4.123525390625,0.6043862815856933,-6.48634121017456,11.706149742126463
1789620376683496700,4.13349658203125,1.0962450851440428,-7.248894438934326,12.133514738464354
1789620376693467600,4.143467529296875,0.9689034843444824,-8.028655992126465,11.259481494903564
1789620376703439600,4.153439697265625,0.6552630668640136,-8.131606663513184,8.761132062530518
1789620376713410600,4.16341064453125,0.36376901473999024,-6.9819409538269035,7.015010864257812
1789620376723381500,4.173381591796875,-0.6841431243896484,-5.249736052703857,8.084321180725096
1789620376733353700,4.183353759765625,-0.06329670639038086,-4.58998385772705,10.103680643463134
1789620376743324400,4.193324462890625,1.8091186294555663,-5.07525860671997,10.740089372253417
1789620376753296000,4.2032958984375,2.1329344039916993,-6.013037469482422,9.571868599700927
1789620376763267800,4.213267822265625,1.6035165618896483,-6.4661401336669915,8.24233849029541
1789620376773238800,4.22323876953125,1.229572190093994,-6.185569626617431,7.514950098419189
1789620376783209700,4.233209716796875,0.8394669570922851,-5.580734432220459,7.30381143951416
1789620376793182000,4.243181884765625,0.7202057868957519,-5.348347233581543,7.29722738494873
1789620376803153000,4.25315283203125,0.8764274452209472,-5.4990323005676265,7.153276010131836
1789620376813123600,4.26312353515625,1.3634978454589843,-5.852177045440674,6.187963828277588
1789620376823095800,4.273095703125,1.8372504989624023,-5.72034631652832,5.726032545471191
1789620376833066800,4.283066650390625,1.8432360031127928,-5.442918199157715,6.00794979095459
1789620376843038000,4.293037841796875,1.11719434967041,-5.378574029541015,7.072022791290283
1789620376853009700,4.303009765625,0.7818564796447753,-5.593453628540039,8.678083192443847
1789620376862980900,4.31298095703125,1.0488099647521971,-6.612635347747802,10.883891109466552
1789620376872951800,4.322951904296875,1.336862351989746,-8.392275369262695,12.611606882476806
1789620376882923800,4.332923828125,0.8967781593322753,-9.841515561676024,13.435511528778076
1789620376892894700,4.342894775390625,0.22086510314941404,-9.551966798400878,13.544148429107665
1789620376902866000,4.352865966796875,0.3054103492736816,-7.838466597747802,12.25083061981201
1789620376912837600,4.362837646484375,0.018854338073730468,-7.130082181549072,9.728988083648682
1789620376922808800,4.372808837890625,-0.19437924728393555,-6.559364360809326,8.790161757659911
1789620376932779800,4.38277978515625,0.0005985504150390625,-5.97577770614624,9.100061235046386
1789620376942752000,4.392751953125,0.1039981346130371,-5.180753117370605,9.772981539154053
1789620376952722700,4.40272265625,-0.005087678527832031,-5.202600207519531,9.29578722076416
1789620376962693600,4.412693603515625,0.9961375282287597,-5.928941136169433,8.396016309356689
1789620376972665900,4.422665771484375,1.4148235435485839,-6.14845950088501,7.558494641113281
1789620376982636800,4.43263671875,0.6667851623535156,-5.449202978515625,7.692719571685791
1789620376992607700,4.442607666015625,0.426467170715332,-4.140173220825195,8.036586785125731
1789620377002578700,4.45257861328125,0.05117606048583984,-3.743783208465576,6.747608466339111
1789620377012551000,4.462551025390625,0.22685060729980466,-3.9453450607299803,5.608118113708496
1789620377022521900,4.47252197265625,-0.09457096557617187,-4.105756571960449,4.273350688171386
1789620377032492800,4.482492919921875,-0.4095581214904785,-4.596118999481201,2.5258827514648434
1789620377042464800,4.49246484375,-0.21951836471557615,-4.188805442047119,2.509721890258789
1789620377052436000,4.50243603515625,0.5674257934570313,-1.9815011489868164,4.241028965759277
1789620377062406700,4.51240673828125,1.2126631408691406,-0.1858499038696289,5.567566323089599
1789620377072379000,4.52237890625,1.7395371437072753,-1.103876602935791,6.030545069122314
1789620377082349800,4.532349853515625,1.789516103363037,-2.6364649406433105,6.89530078125
1789620377092320800,4.54232080078125,0.9105448188781737,-3.3258453811645508,7.9834654357910155
1789620377102292700,4.552292724609375,0.0618003303527832,-3.135356711578369,8.20956785507202
1789620377112263700,4.562263671875,0.23597850112915036,-3.7478234237670898,7.077858657836914
1789620377122235000,4.57223486328125,0.17462708358764648,-3.4454058265686034,6.9621887901306145
1789620377132206600,4.58220654296875,-0.32606033859252925,-2.964320930480957,7.442375860595702
1789620377142177800,4.592177734375,-0.7457938171386719,-3.771765440368652,7.098508647155762
1789620377152148700,4.602148681640625,-0.6272808349609375,-3.3411084167480465,7.9649103729248045
1789620377162120700,4.61212060546875,-1.195754091644287,-2.635417477416992,8.195352282714843
1789620377172091600,4.622091552734375,-1.168968960571289,-3.182791831970215,5.622333686065674
1789620377182062800,4.632062744140625,0.32097266006469727,-2.9046155265808102,4.349366590881347
1789620377192034800,4.642034912109375,0.5777507881164551,-1.848922232055664,5.594052178955078
1789620377202005800,4.652005859375,0.25962124252319335,-2.01741417388916,5.661838013458252
1789620377211976700,4.661976806640625,0.20126257705688474,-2.692878317260742,6.066158818817138
1789620377221949000,4.671948974609375,-0.18210896377563476,-2.552518244934082,7.9375266914367675
1789620377231919900,4.681919921875,-0.6787561706542968,-3.021183219909668,8.046163591766357
1789620377241890800,4.691890869140625,-1.0531494552612304,-3.9852983009338376,7.4411787597656245
1789620377251862800,4.70186279296875,-0.8264484855651855,-4.717026183319091,6.344484761810302
1789620377261834000,4.711833984375,0.37663784866333005,-5.4415714607238765,5.760449194335937
1789620377271805000,4.721804931640625,1.2949638229370117,-5.306897617340088,7.158064413452148
1789620377281777000,4.73177685546875,-0.3372831588745117,-4.476408916473388,9.827000714111328
1789620377291747800,4.741747802734375,-2.486528061676025,-4.225765930175781,10.62367131652832
1789620377301718800,4.75171875,-2.0609587165832517,-4.689941777038574,9.280673822784424
1789620377311690800,4.761690673828125,-0.5834370170593262,-5.326200868225097,7.558045728302002
1789620377321661700,4.77166162109375,0.11477204208374023,-5.290587118530273,7.202057868957519
1789620377331633000,4.7816328125,0.8285434120178222,-4.765359129333496,7.0461354858398435
1789620377341604600,4.7916044921875,0.7984662536621093,-3.9303813003540036,7.515249373626709
1789620377351575800,4.801575927734375,-0.7457938171386719,-3.540126429748535,7.532158422851562
1789620377361546800,4.811546630859375,-1.3181576515197753,-4.134636629486084,6.848464211273193
1789620377371519000,4.82151904296875,0.1640028137207031,-5.341912816619873,5.946598373413085
1789620377381489700,4.83148974609375,1.5496470245361327,-6.051494333648681,6.867019274139404
1789620377391460900,4.8414609375,1.2173019065856934,-5.96305850982666,9.399186804962158
1789620377401432800,4.851432861328125,-0.1414075355529785,-6.316652167510986,9.776273566436767
1789620377411403800,4.86140380859375,-0.2516904495239258,-7.0187518043518065,8.304438095855712
1789620377421374700,4.871374755859375,0.7130231819152831,-7.246649874877929,6.982240229034423
1789620377431347000,4.881346923828125,1.0054150596618652,-6.807613145446777,6.988824283599853
1789620377441318000,4.89131787109375,1.0084078117370605,-6.171354054260253,8.392873919677735
1789620377451288600,4.90128857421875,0.6404489440917969,-5.835866546630859,10.362703335571288
1789620377461260800,4.9112607421875,0.6147112762451171,-6.745812815093994,10.653000286865234
1789620377471231700,4.921231689453125,0.7921814743041992,-7.830236529541015,10.000281059265136
1789620377481203000,4.931202880859375,1.8887258346557616,-8.104671894836425,9.100210872650146
1789620377491174700,4.941174560546875,2.562693601989746,-8.35785872039795,8.834454488372803
1789620377501145900,4.951145751953125,1.3162123626708984,-8.930222554779052,10.643273842620848
1789620377511116800,4.96111669921875,0.6527192276000976,-9.904064080047608,12.465560581207274
1789620377521088000,4.971087890625,1.281346800994873,-10.422408739471434,12.018443421173094
1789620377531059700,4.981059814453125,2.1013608695983885,-9.556007013702391,10.231620794677733
1789620377541031000,4.991031005859375,2.356492984008789,-8.628403507995605,7.705588405609131
1789620377551001900,5.001001953125,1.6633716033935546,-8.764573727416991,6.504896273040771
1789620377560973800,5.010973876953125,1.1730091758728027,-9.039607643127441,6.904727950286865
1789620377570944800,5.02094482421875,1.1596914291381835,-9.332149158477783,7.671770307159424
1789620377580915700,5.030915771484375,1.0245686729431152,-9.239972394561766,8.901342497253417
1789620377590887700,5.0408876953125,1.1894693122863769,-8.406490941619873,8.95610986022949
1789620377600858600,5.050858642578125,1.6825252166748046,-7.8016557472229,7.608174325561523
1789620377610829800,5.060829833984375,1.4917372718811035,-7.9086466339111325,6.987327907562255
1789620377620801800,5.0708017578125,0.9922469505310058,-8.14597187347412,7.198616204071045
1789620377630772700,5.080772705078125,1.011849476623535,-8.08851103363037,7.089979303741455
1789620377640743700,5.09074365234375,0.8857049766540527,-7.406462835693359,7.471555193328857
1789620377650716000,5.1007158203125,0.7595604766845703,-5.7523687637329095,7.537096463775634
1789620377660686800,5.110686767578125,1.4649521408081054,-4.5227965736389155,5.53539423828125
1789620377670657800,5.12065771484375,0.6943184814453125,-4.221276802062988,5.036203192138672
1789620377680629800,5.130629638671875,-0.44277766952514647,-4.211550357818603,6.243180104064941
1789620422201081000,49.6510810546875,5.243151998138427,8.470236560821533,-0.7936778503417968
1789620422211052300,49.66105224609375,5.026626385498046,8.208819667053222,-0.8423100715637206
1789620422221023000,49.67102294921875,5.550208361053467,7.760655043792724,-0.6364087287902832
1789620422230994200,49.680994140625,5.9293900489807125,7.426813549804687,-0.251540811920166
1789620422240965000,49.690965087890625,6.29480507736206,7.052120989990234,-0.08409633331298827
1789620422250936000,49.70093603515625,6.55682052154541,6.7082537765502925,-0.00852934341430664
1789620422260907300,49.7109072265625,6.48664048538208,6.557419071960449,-0.020350714111328123
1789620422270878000,49.7208779296875,6.124517484283447,6.589890431976318,-0.09980828170776367
1789620422280849200,49.73084912109375,5.8834513046264645,6.8302084236145015,-0.2109890213012695
1789620422290820000,49.740820068359376,6.156689569091797,6.982539504241943,-0.3097498397827148
1789620422300791000,49.750791015625,6.740725136566161,6.805368581390381,-0.28012159423828126
1789620422310762200,49.76076220703125,7.277624858856201,6.499060406494141,-0.21158757171630857
1789620422320733200,49.77073315429688,7.464522225952148,6.3241340476989745,-0.2485480598449707
1789620422330704100,49.7807041015625,7.314585346984863,6.247968507385253,-0.4376899909973144
1789620422340675000,49.79067504882813,7.033117014312744,6.246172856140136,-0.7719803977966309
1789620422350646000,49.80064599609375,6.915501857757568,6.241683728027343,-1.147870058441162
1789620422360617200,49.8106171875,7.0844427124023435,6.143820735168457,-1.4167688323974608
1789620422370588200,49.82058813476562,7.288398766326904,6.02022007446289,-1.4610615631103514
1789620422380559000,49.83055908203125,7.4968439483642575,5.991040741729736,-1.4119804290771483
1789620422390530000,49.84053002929687,7.768585836791992,6.045359191894531,-1.2843395530700683
1789620422400501000,49.8505009765625,7.958924868774414,6.085162794494629,-1.07245270614624
1789620422410472200,49.86047216796875,8.072948722839355,6.094739601135253,-0.841412245941162
1789620422420443100,49.87044311523437,8.286032670593261,6.09040011062622,-0.5339069702148437
1789620422430414000,49.8804140625,8.52335791015625,6.100874742889404,-0.24226328048706053
1789620422440385000,49.89038500976562,8.686313260650634,6.092495037078857,-0.03725976333618164
1789620422450356000,49.90035595703125,8.760383874511719,6.144868198394775,0.20216040267944335
1789620422460327200,49.9103271484375,8.852859913635253,6.245424668121338,0.4321533996582031
1789620422470298000,49.920298095703124,8.89266351623535,6.324283685302734,0.6733692169189452
1789620422480269300,49.930269287109375,8.588749542999267,6.395660822296143,0.8889970039367675
1789620422490240000,49.940239990234375,7.97388862915039,6.442796667480469,0.9470563941955565
1789620422500211200,49.950211181640626,7.229142275238036,6.503100621795654,0.7725789482116698
1789620422510182100,49.96018212890625,6.522852785491943,6.5300353904724115,0.4921580787658691
1789620422520153000,49.970153076171876,6.054337448120116,6.534524518585204,0.2745850028991699
1789620422530124300,49.98012426757813,5.870133557891846,6.513425616455078,0.32411504974365235
1789620422540095000,49.990094970703126,5.974730242919922,6.499958232116699,0.6536170532226562
1789620422550066200,50.00006616210938,6.216245335388183,6.453271299743652,1.0128969398498535
1789620422560037000,50.010037109375,6.410175669860839,6.503549534606933,1.2352584190368652
1789620422570008000,50.02000805664063,6.519261483001708,6.591237170410156,1.2780547737121581
1789620422579979300,50.02997924804688,6.5482911781311035,6.688501612854004,1.13649760055542
1789620422589950200,50.0399501953125,6.527790826416015,6.785766055297851,0.9543886367797851
1789620422599921200,50.04992114257813,6.37141953048706,6.89530078125,0.8424597091674804
1789620422609892000,50.05989208984375,6.266972483062744,7.0278796981811515,0.8044517578125
1789620422619863000,50.06986303710938,6.2304609077453605,7.069329314422607,0.7636006919860839
1789620422629834200,50.07983422851562,6.206967803955078,7.0634934478759765,0.6905775413513183
1789620422639805200,50.08980517578125,6.1656678253173824,7.09970574798584,0.5517138450622558
1789620422649776000,50.09977612304687,6.251709447479247,7.125892328643799,0.3359364204406738
1789620422659747000,50.1097470703125,6.507889025115967,7.144297753906249,0.17896657409667968
1789620422669718000,50.11971801757812,6.927921778869629,7.172429623413086,0.15427636947631834
1789620422679689200,50.129689208984374,7.3478048950195305,7.235726329803466,0.2678513107299805
1789620422689660200,50.13966015625,7.606079399108887,7.297975572967529,0.4041711677551269
1789620422699631000,50.149631103515624,7.7687354743957515,7.406313198089599,0.4387374542236328
1789620422709602000,50.15960205078125,7.969698776245116,7.5068696678161615,0.34311902542114253
1789620422719573000,50.169572998046874,8.199691773223876,7.526322556304931,0.18914193115234373
1789620422729544200,50.179544189453125,8.303839545440674,7.41903239440918,0.04055179061889648
1789620422739515100,50.18951513671875,8.17799432067871,7.184699906921386,-0.1771709228515625
1789620422749486000,50.199486083984375,7.882310415649414,6.938546048736572,-0.44143093109130854
1789620422759457000,50.20945703125,7.628375402069091,6.76107585067749,-0.7538742477416992
1789620422769428000,50.219427978515625,7.439083833312988,6.725761376190185,-1.1201871017456053
1789620422779399200,50.22939916992188,7.272836455535888,6.740874774169922,-1.4065934753417968
1789620422789370000,50.2393701171875,7.105242339324951,6.756885997772216,-1.354070676422119
1789620422799341800,50.249341796875,6.964732629394531,6.691793640136718,-1.0893617553710937
1789620422809312800,50.25931274414062,6.822127993011474,6.583007102203369,-0.7368155609130859
1789620422819284000,50.26928393554687,6.705560299682617,6.580163987731933,-0.43933600463867184
1789620422829255000,50.2792548828125,6.766163529205322,6.656479165649413,-0.26830022354125976
1789620422839226000,50.28922607421875,7.079953584289551,6.712593267059326,-0.16924012985229492
1789620422849196800,50.29919677734375,7.508366043853759,6.608295857238769,-0.09950900650024413
1789620422859167700,50.309167724609374,7.851784344482422,6.462099918365478,-0.028431144714355466
1789620422869139000,50.319138916015625,7.951293350982666,6.420799939727782,0.08753799819946288
1789620422879110000,50.32910986328125,7.783100684356689,6.527341913604736,0.17223288192749023
1789620422889081000,50.3390810546875,7.403769358825683,6.786663880920409,0.24061726684570311
1789620422899052000,50.349052001953126,6.9792474769592285,7.086088726043701,0.21742343826293944
1789620422909022700,50.359022705078125,6.5972226745605465,7.407659936523437,0.17028759307861327
1789620422918994000,50.368993896484376,6.434416961669921,7.6737155960083,0.10175357055664062
1789620422928964900,50.37896484375,6.465092670440673,7.798363719940185,0.11866261978149413
1789620422938936000,50.38893603515625,6.525845537567139,7.803152123260498,0.2754828285217285
1789620422948907000,50.39890698242188,6.747309191131591,7.7513775123596185,0.5092167655944824
1789620422958877700,50.40887768554688,7.16330172958374,7.653963432312011,0.7378630241394043
1789620422968849000,50.41884887695313,7.5713634750366205,7.453598680877685,0.9496002334594726
1789620422978819800,50.42881982421875,7.829039428710937,7.336282799530029,1.0911574066162109
1789620422988791000,50.438791015625,7.812878567504883,7.363367205810547,1.100584575653076
1789620422998762000,50.44876196289062,7.528118207550048,7.479785261535644,1.010652375793457
1789620423008733000,50.45873291015625,7.196222002410888,7.564629782867431,0.840215145111084
1789620423018704000,50.46870385742187,6.860135944366455,7.654412345123291,0.6676829879760742
1789620423028674800,50.4786748046875,6.497414392852783,7.681796026611328,0.48228199691772455
1789620423038646000,50.48864599609375,6.177040283203125,7.642441336822509,0.37184944534301756
1789620423048617000,50.49861694335937,5.9032034683227534,7.545326531982422,0.23687632675170897
1789620423058588000,50.508587890625,5.598840582275391,7.48262837600708,-0.025737667846679687
1789620423068558800,50.51855883789062,5.467309128570556,7.559542104339599,-0.11701660614013672
1789620423078529800,50.52852978515625,5.449202978515625,7.622090622711181,-0.07481880187988281
1789620423088501000,50.5385009765625,5.446958414459228,7.619247508239746,-0.027383681488037107
1789620423098472000,50.548471923828124,5.550507636260986,7.568221085357665,0.050727147674560547
1789620423108443100,50.558443115234375,5.613654705047607,7.548169646453857,0.2018611274719238
1789620423118413800,50.568413818359375,5.530605834960937,7.651868505859374,0.35134909362792965
1789620423128384800,50.578384765625,5.481524700927734,7.732523174285888,0.42242695541381836
1789620423138356000,50.58835595703125,5.5546974891662595,7.651868505859374,0.37484219741821284
1789620423148327000,50.598326904296876,5.698349588775635,7.5525091369628905,0.3000233955383301
1789620423158298000,50.60829809570313,5.814169094085693,7.477540697479248,0.2193687271118164
1789620423168268800,50.618268798828126,5.935375553131103,7.446266438293456,0.04055179061889648
1789620423178239700,50.62823974609375,5.892130285644531,7.453299405670165,-0.1409586227416992
1789620423188211000,50.6382109375,5.729623847961426,7.560290292358398,-0.3425204750061035
1789620423198182000,50.64818188476563,5.6564510597229,7.690325370025635,-0.6073790336608886
1789620423208153000,50.65815307617188,5.72678073348999,7.887847006988525,-0.8200140686035156
1789620423218124000,50.6681240234375,5.756857891845703,8.106467546081543,-0.812083275604248
1789620423228094700,50.6780947265625,5.7207952293396,8.167968601226805,-0.6242880828857421
1789620423238066000,50.68806591796875,5.8092310531616205,8.147617887115478,-0.5102642288208008
1789620423248036900,50.69803686523438,6.07139613494873,8.217648285675049,-0.45340193939208984
1789620423258008000,50.70800805664062,6.332214478302002,8.358008358001708,-0.2570774032592773
1789620423267979000,50.71797900390625,6.580912175750732,8.446893094635008,0.12674305038452147
1789620423277949700,50.72794970703125,6.911611280059814,8.364143499755858,0.3872621185302734
1789620423287921000,50.7379208984375,7.299023036193847,8.166023312377929,0.4375403533935547
1789620423297891800,50.74789184570312,7.789684738922118,7.934533939361572,0.41150341033935545
1789620423307863000,50.757863037109374,8.266729419708252,7.606079399108887,0.37663784866333005
1789620423317834000,50.767833984375,8.544157537078856,7.171531797790527,0.23403321228027343
1789620423327805000,50.777804931640624,8.573336869812012,6.790853733825683,-0.017357962036132813
1789620423337775900,50.78777587890625,8.339453295135497,6.583605652618408,-0.3103483901977539
1789620423347746800,50.797746826171874,8.01758280944824,6.488885049438476,-0.5199906730651855
1789620423357718000,50.807718017578125,7.662043862915039,6.4448915939331055,-0.7477391059875488
1789620423367689000,50.81768896484375,7.124246315002441,6.438906089782715,-0.8122329132080077
1789620423377660000,50.827659912109375,6.421697765350341,6.573131020355224,-0.6750152305603027
1789620423387630800,50.837630859375,5.765836148071289,6.942586264038085,-0.4499602745056152
1789620423397601800,50.847601806640625,5.4707507934570305,7.425766086578369,-0.22655133209228515
1789620423407573000,50.85757299804688,5.434837768554687,7.752873888397216,0.127042325592041
1789620423417544000,50.8675439453125,5.4135892288208005,7.838616235351562,0.5204395858764648
1789620423427515100,50.87751513671875,5.079747734832764,7.889941933441162,0.8075941474914551
1789620423437485800,50.88748583984375,4.636221877288818,7.9846625366210935,0.9904512992858886
1789620423447456800,50.89745678710938,4.363582163238525,8.017882084655762,1.0516530792236327
1789620423457428000,50.90742797851563,4.500051657867432,7.825448126220703,0.953790086364746
1789620423467400000,50.91739990234375,4.8989855094909665,7.435492530822754,0.7722796730041503
1789620423477371000,50.927370849609375,5.31827007522583,7.021445281219482,0.7167641220092773
1789620423487341800,50.937341796875,5.65031591796875,6.7173816703796385,0.7211036125183105
1789620423497313000,50.94731298828125,5.838260748291015,6.588244418334961,0.6938695686340332
1789620423507284000,50.957283935546876,5.952134964752197,6.5677440666198725,0.6177040283203125
1789620423517255000,50.9672548828125,6.156240656280517,6.492177076721191,0.34237083740234375
1789620423527225900,50.977225830078126,6.514772354888915,6.309170287322997,-0.19482816009521484
1789620423537196800,50.98719677734375,6.830657336425781,6.106560971832275,-0.6970119583129882
1789620423547168000,50.99716796875,7.021744556427001,5.974730242919922,-0.9784802909851074
1789620423557139000,51.00713891601563,7.16285281677246,5.9777229949951165,-1.0803834991455077
1789620423567110000,51.01710986328125,7.6087728759765625,6.0054059516906735,-1.0832266136169433
1789620423577081000,51.0270810546875,8.370877191925048,5.966350537109375,-1.0269628746032715
1789620423587051800,51.0370517578125,9.108889853668213,5.838859298706054,-0.8366238426208495
1789620423597023000,51.04702294921875,9.573813888549804,5.864746604156494,-0.5790975265502929
1789620423606994000,51.05699389648437,9.708936644744872,5.974580605316162,-0.4670189613342285
1789620423616964900,51.06696484375,9.651924717712403,6.087856271362305,-0.4878185882568359
1789620423626936000,51.07693603515625,9.527575868988036,6.147412037658691,-0.4616320075988769
1789620423636906800,51.08690673828125,9.217377116394042,6.159233408355712,-0.41195232315063474
1789620423646878000,51.0968779296875,9.036914166259765,6.234650760650634,-0.23837270278930664
1789620423656849000,51.10684887695312,8.51048907623291,6.453570574951171,0.03232172241210937
1789620423666819800,51.11681982421875,7.864653178405761,6.554725595092773,-0.07930792999267577
1789620423676791000,51.126791015625,7.614309467315674,6.60141252746582,-0.09442132797241211
1789620423686762000,51.136761962890624,7.392097625732421,6.617872663879394,-0.027832594299316404
1789620423696733000,51.14673291015625,7.155969486999512,6.6524389503479,0.03426701126098632
1789620423706704000,51.156703857421874,7.089231115722656,6.674585315704345,0.16175824966430663
1789620423716674800,51.1666748046875,7.266402038574219,6.74820701675415,0.34551322708129883
1789620423726646000,51.17664599609375,7.521983065795898,6.884377236175537,0.567575431060791
1789620423736617000,51.186616943359375,7.730727523040771,7.02907679901123,0.8096890739440917
1789620423746588000,51.196587890625,8.09524472579956,6.874950067138672,1.2434884872436522
