time,seconds_elapsed,z,y,x
1789620372598388500,0.048388427734375,0.10039452463388443,-0.2816789448261261,-0.2843632996082306
1789620372608360400,0.0583603515625,0.12260878831148148,-0.3121955394744873,-0.18633392453193665
1789620372618331400,0.068331298828125,0.2284768968820572,-0.10937795788049698,-0.16170208156108856
1789620372628302600,0.078302490234375,0.38254082202911377,0.5291236639022827,-0.5315356850624084
1789620372638273500,0.0882734375,0.7506794929504395,1.1223257780075073,-0.9952103495597839
1789620372648245500,0.09824560546875,1.0037784576416016,1.7655118703842163,-1.230840802192688
1789620372658216400,0.108216552734375,1.2081201076507568,2.021657705307007,-1.4037175178527832
1789620372668187600,0.118187744140625,1.347235918045044,1.9588088989257812,-1.5577023029327393
1789620372678158600,0.12815869140625,1.3872268199920654,1.9769086837768555,-1.6243581771850586
1789620372688130600,0.138130615234375,1.3837065696716309,2.1117825508117676,-1.6264991760253906
1789620372698101500,0.1481015625,1.3943067789077759,2.11910080909729,-1.7054115533828735
1789620372708072400,0.158072509765625,1.3866240978240967,2.2556447982788086,-1.7924153804779053
1789620372718043600,0.168043701171875,1.51033353805542,2.594641923904419,-1.811784267425537
1789620372728015400,0.178015380859375,1.7188340425491333,2.899918556213379,-1.748173475265503
1789620372737986600,0.187986572265625,1.8295583724975586,3.044853687286377,-1.6163341999053955
1789620372747957200,0.197957275390625,1.746172547340393,2.9386963844299316,-1.4137738943099976
1789620372757928200,0.20792822265625,1.4874613285064697,2.653590440750122,-1.1635854244232178
1789620372767900200,0.217900146484375,1.3019263744354248,2.197629690170288,-0.8334656357765198
1789620372777871000,0.22787109375,0.7469712495803833,2.5351755619049072,-0.5116151571273804
1789620372787842300,0.23784228515625,0.3578704297542572,2.326777458190918,-0.0828435868024826
1789620372797813200,0.247813232421875,0.03197569027543068,1.848816990852356,0.3511326313018799
1789620372807785200,0.25778515625,-0.5818658471107483,0.7506349086761475,0.503113329410553
1789620372817756200,0.267756103515625,-1.536599040031433,-1.2366727590560913,-0.01754188723862171
1789620372827727400,0.277727294921875,-2.2922983169555664,-2.495591640472412,-0.2573661506175995
1789620372837698300,0.2876982421875,-2.6298880577087402,-3.0122175216674805,-0.333758682012558
1789620372847670300,0.297670166015625,-2.7475385665893555,-3.7470543384552,-0.661230742931366
1789620372857641200,0.30764111328125,-2.57501220703125,-4.8585920333862305,-1.1417536735534668
1789620372867612400,0.3176123046875,-2.2482893466949463,-6.107828140258789,-1.449994683265686
1789620372877583400,0.327583251953125,-1.9256500005722046,-7.051922798156738,-1.518310785293579
1789620372887554000,0.337553955078125,-1.6160436868667603,-7.237011909484863,-1.6057584285736084
1789620372897526300,0.3475263671875,-1.201479434967041,-6.476553916931152,-1.902840495109558
1789620372907497200,0.357497314453125,-0.5987561345100403,-5.2354817390441895,-2.2666923999786377
1789620372917468400,0.367468505859375,0.012720590457320213,-3.9677083492279053,-2.3805856704711914
1789620372927439000,0.377439208984375,0.7690807580947876,-3.130398988723755,-2.3272488117218018
1789620372937411300,0.387411376953125,1.4812270402908325,-2.1470882892608643,-2.190932035446167
1789620372947382300,0.39738232421875,2.0575008392333984,-0.840981125831604,-1.9354902505874634
1789620372957353500,0.407353515625,2.522956132888794,-0.3524399399757385,-1.4693349599838257
1789620372967324200,0.41732421875,2.629459857940674,0.014524058438837528,-0.9497935771942139
1789620372977296400,0.42729638671875,2.4392898082733154,0.2447037249803543,-0.5184594988822937
1789620372987267300,0.437267333984375,2.0646121501922607,-0.026009734719991684,-0.2910965085029602
1789620372997238300,0.44723828125,1.6907328367233276,-0.6906458139419556,-0.13762278854846954
1789620373007209200,0.457209228515625,1.4680339097976685,-1.2125647068023682,0.14188259840011597
1789620373017181200,0.46718115234375,1.401577353477478,-1.3939858675003052,0.4885343015193939
1789620373027152400,0.47715234375,1.420892357826233,-1.3695757389068604,0.7805792093276978
1789620373037123300,0.487123291015625,1.4240705966949463,-1.353014588356018,0.9529357552528381
1789620373047094300,0.49709423828125,1.3333147764205933,-1.4943814277648926,1.0363543033599854
1789620373057066200,0.507066162109375,1.1649103164672852,-1.6178381443023682,1.0891940593719482
1789620373067037400,0.517037353515625,0.9632418751716614,-1.578139305114746,1.1726019382476807
1789620373077008100,0.527008056640625,0.7147164344787598,-1.4993818998336792,1.2430646419525146
1789620373086979000,0.53697900390625,0.49748289585113525,-1.555740475654602,1.2071166038513184
1789620373096951300,0.546951416015625,0.39723435044288635,-1.718641996383667,1.0995837450027466
1789620373106922200,0.556922119140625,0.4208073318004608,-2.0213611125946045,1.0124948024749756
1789620373116893200,0.56689306640625,0.4429459273815155,-2.5277466773986816,0.9407657384872437
1789620373126864100,0.576864013671875,0.34921225905418396,-3.1289122104644775,0.8171576857566833
1789620373136836400,0.58683642578125,0.21982470154762268,-3.6421658992767334,0.6628695726394653
1789620373146807300,0.596807373046875,0.35568854212760925,-3.9918665885925293,0.4550130367279053
1789620373156778200,0.6067783203125,0.47223007678985596,-4.032395362854004,0.10777410864830017
1789620373166749200,0.616749267578125,0.4795161485671997,-3.7959837913513184,-0.2530558109283447
1789620373176720100,0.62672021484375,0.40130898356437683,-3.3648386001586914,-0.5772112607955933
1789620373186692400,0.6366923828125,0.20468448102474213,-2.72867751121521,-0.7901320457458496
1789620373196663000,0.6466630859375,-0.027601493522524834,-2.0770606994628906,-0.8284823298454285
1789620373206634200,0.65663427734375,-0.22210663557052612,-1.6684750318527222,-0.7315885424613953
1789620373216605200,0.666605224609375,-0.3638283312320709,-1.5450586080551147,-0.550489068031311
1789620373226577400,0.676577392578125,-0.46890145540237427,-1.5751694440841675,-0.3729965090751648
1789620373236548000,0.686548095703125,-0.5135597586631775,-1.686031699180603,-0.2584155797958374
1789620373246519300,0.696519287109375,-0.463667094707489,-1.8361849784851074,-0.21987853944301605
1789620373256490200,0.706490234375,-0.32069796323776245,-2.040616750717163,-0.1586465984582901
1789620373266462200,0.716462158203125,-0.14705941081047058,-2.4234094619750977,0.001412348123267293
1789620373276433200,0.72643310546875,-0.030777014791965485,-2.961059093475342,0.36313992738723755
1789620373286404000,0.736404052734375,0.06016849726438522,-3.5257129669189453,0.8887868523597717
1789620373296375300,0.746375244140625,0.15077535808086395,-3.9139297008514404,1.3900489807128906
1789620373306347000,0.756346923828125,0.28811925649642944,-4.1007561683654785,1.749358892440796
1789620373316318200,0.766318115234375,0.49683597683906555,-4.318405628204346,1.9027093648910522
1789620373326289200,0.7762890625,0.7061396241188049,-4.561422348022461,1.8544946908950806
1789620373336260400,0.78626025390625,0.8659207224845886,-4.659492015838623,1.6620434522628784
1789620373346232000,0.796232177734375,0.9764485955238342,-4.49265193939209,1.4184484481811523
1789620373356203300,0.806203369140625,1.0758795738220215,-4.163006782531738,1.2372589111328125
1789620373366174200,0.81617431640625,1.206631064414978,-3.830021619796753,1.1289088726043701
1789620373376145400,0.8261455078125,1.411561369895935,-3.5326828956604004,1.0504761934280396
1789620373386117000,0.8361171875,1.7022989988327026,-3.302785873413086,0.9384937882423401
1789620373396088300,0.84608837890625,2.08455753326416,-3.0484180450439453,0.7736403942108154
1789620373406059300,0.856059326171875,2.507668972015381,-2.781735420227051,0.6034939885139465
1789620373416030200,0.8660302734375,2.9194998741149902,-2.5532827377319336,0.4689100384712219
1789620373426002200,0.876002197265625,3.2722206115722656,-2.4424028396606445,0.3301302492618561
1789620373435973000,0.88597314453125,3.540132761001587,-2.350592851638794,0.19425471127033234
1789620373445944300,0.8959443359375,3.793837547302246,-2.0976665019989014,0.07863077521324158
1789620373455915300,0.905915283203125,4.112696647644043,-1.6281847953796387,-0.02436857670545578
1789620373465887200,0.91588720703125,4.240850925445557,-1.1009247303009033,-0.22496291995048523
1789620373475858200,0.925858154296875,4.491054534912109,-0.5677687525749207,-0.3897111415863037
1789620373485829400,0.935829345703125,4.760046482086182,-0.07812699675559998,-0.4938708543777466
1789620373495800300,0.94580029296875,4.896505832672119,0.3175329566001892,-0.5576319694519043
1789620373505772300,0.955772216796875,4.998278617858887,0.5620970129966736,-0.5726131796836853
1789620373515743200,0.9657431640625,4.978323459625244,0.7492948174476624,-0.44701263308525085
1789620373525714200,0.975714111328125,4.835265159606934,0.8215397596359253,-0.2419196516275406
1789620373535685400,0.985685302734375,4.729148864746094,0.7933882474899292,-0.023744717240333557
1789620373545657000,0.995656982421875,4.648211479187012,0.8585570454597473,0.23119473457336426
1789620373555628300,1.005628173828125,4.5355095863342285,0.8527345657348633,0.5018057227134705
1789620373565599200,1.01559912109375,4.360629558563232,0.822589635848999,0.7871952652931213
1789620373575570400,1.0255703125,4.054912090301514,0.8028819561004639,1.1043529510498047
1789620373585542100,1.035542236328125,3.5836997032165527,0.7462394833564758,1.4143518209457397
1789620373595513300,1.045513427734375,3.003430128097534,0.5381025075912476,1.6818146705627441
1789620373605484300,1.055484375,2.4433674812316895,0.4487214684486389,1.7320077419281006
1789620373615455200,1.065455322265625,2.0014126300811768,0.35474276542663574,1.7908686399459839
1789620373625427200,1.07542724609375,1.6729294061660767,0.597298264503479,1.4650368690490723
1789620373635398100,1.085398193359375,1.3576990365982056,1.5532917976379395,0.2867196500301361
1789620373645369300,1.095369384765625,0.9729913473129272,2.033503532409668,-1.1487289667129517
1789620373655340300,1.10534033203125,0.3032670319080353,2.198831796646118,-1.9879413843154907
1789620373665312300,1.115312255859375,-0.39357689023017883,1.748317837715149,-2.3421640396118164
1789620373675283200,1.125283203125,-0.9354504942893982,1.2647902965545654,-2.1796727180480957
1789620373685254400,1.13525439453125,-1.1952886581420898,0.9802044034004211,-1.7291358709335327
1789620373695225300,1.145225341796875,-1.369974136352539,0.2610637843608856,-1.016958475112915
1789620373705197300,1.155197265625,-1.3509390354156494,-0.183541938662529,-0.4370449483394623
1789620373715168300,1.165168212890625,-1.6233357191085815,-0.7541860342025757,-0.05474260449409485
1789620373725139200,1.17513916015625,-1.7912110090255737,-1.4310622215270996,0.18352481722831726
1789620373735110400,1.1851103515625,-1.586229681968689,-1.6492518186569214,0.11995171010494232
1789620373745082000,1.19508203125,-1.6737350225448608,-1.7194315195083618,0.10581715404987335
1789620373755053600,1.205053466796875,-1.723527431488037,-1.8817442655563354,0.24413935840129852
1789620373765024800,1.215024658203125,-1.8352211713790894,-1.6915863752365112,0.46458348631858826
1789620373774995500,1.224995361328125,-2.1311018466949463,-1.5875310897827148,0.6190604567527771
1789620373784967700,1.2349677734375,-2.3970401287078857,-1.6279163360595703,0.6929466724395752
1789620373794938600,1.244938720703125,-2.5549330711364746,-1.7099370956420898,0.7729483246803284
1789620373804909800,1.254909912109375,-2.667450189590454,-2.011793613433838,0.8233935236930847
1789620373814880500,1.264880615234375,-2.792137861251831,-2.371077537536621,0.8831421136856079
1789620373824852700,1.274852783203125,-2.7914273738861084,-2.444798707962036,0.9995717406272888
1789620373834823700,1.28482373046875,-2.378883123397827,-2.350005626678467,0.9936065077781677
1789620373844794600,1.294794677734375,-1.9496781826019287,-1.905068039894104,0.9734798669815063
1789620373854765600,1.304765625,-1.5284652709960938,-1.8214111328125,1.0350250005722046
1789620373864737500,1.314737548828125,-1.3114908933639526,-1.847573161125183,1.0845110416412354
1789620373874708700,1.324708740234375,-1.1500684022903442,-1.8905144929885864,1.2585357427597046
1789620373884679700,1.3346796875,-1.3731919527053833,-1.7698009014129639,1.3837623596191406
1789620373894650600,1.344650634765625,-0.9913876056671143,-1.7094522714614868,1.237823486328125
1789620373904622600,1.35462255859375,-0.6945185661315918,-1.772818684577942,1.1147916316986084
1789620373914593800,1.36459375,-0.1699053943157196,-1.5658841133117676,1.0667468309402466
1789620373924564500,1.374564453125,0.29629048705101013,-0.9386287927627563,0.6585949063301086
1789620373934535700,1.38453564453125,0.5854243040084839,-0.037247054278850555,0.10828139632940292
1789620373944507600,1.394507568359375,0.7183719873428345,0.6740034818649292,-0.30360662937164307
1789620373954478800,1.404478759765625,0.8853098154067993,1.0043973922729492,-0.5360715389251709
1789620373964449500,1.414449462890625,1.2416698932647705,0.9150872826576233,-0.7475388050079346
1789620373974421800,1.424421875,1.6388581991195679,0.9234568476676941,-0.9881841540336609
1789620373984392700,1.434392822265625,1.9229120016098022,0.6962987780570984,-0.9178463816642761
1789620373994363600,1.44436376953125,1.6605768203735352,0.2790413498878479,-0.7478339076042175
1789620374004334600,1.45433447265625,1.999312400817871,0.43790343403816223,-0.2757048010826111
1789620374014306600,1.464306640625,2.265857696533203,0.18501685559749603,-0.08962944895029068
1789620374024277800,1.47427783203125,2.3268871307373047,0.35868334770202637,-0.15581069886684418
1789620374034248700,1.484248779296875,2.217602252960205,0.6079006195068359,-0.28754687309265137
1789620374044219600,1.4942197265625,2.231541872024536,0.9010820388793945,-0.26261866092681885
1789620374054191600,1.504191650390625,2.382164716720581,1.1528775691986084,-0.3372790515422821
1789620374064162800,1.514162841796875,2.586951494216919,1.5257070064544678,-0.4306262135505676
1789620374074133800,1.5241337890625,2.861830949783325,2.005617618560791,-0.5601354837417603
1789620374084104400,1.5341044921875,3.3326430320739746,2.735065221786499,-0.7408721446990967
1789620374094076700,1.54407666015625,3.7294232845306396,3.0095133781433105,-0.9372022151947021
1789620374104047600,1.554047607421875,3.0607903003692627,2.3614728450775146,-0.9519016146659851
1789620374114018600,1.5640185546875,2.0581953525543213,3.6653904914855957,-0.49630796909332275
1789620374124613600,1.574613525390625,1.3299342393875122,4.609066963195801,-0.145610973238945
1789620374134584600,1.58458447265625,0.39828717708587646,4.939837455749512,-0.6679713726043701
1789620374144555500,1.594555419921875,-0.2534966766834259,5.530278205871582,-1.069628119468689
1789620374154526700,1.604526611328125,-0.9529751539230347,3.8009021282196045,-1.0647821426391602
1789620374164498700,1.614498779296875,-2.101926565170288,1.858423113822937,-0.6814852356910706
1789620374174469600,1.6244697265625,-2.1628007888793945,0.13826879858970642,-0.2887515425682068
1789620374184440600,1.634440673828125,-1.817600131034851,-1.1067360639572144,0.22515317797660828
1789620374194411500,1.64441162109375,-1.251686930656433,-1.711457371711731,0.5206460952758789
1789620374204383500,1.654383544921875,-0.9438691735267639,-1.251344084739685,0.10277161002159119
1789620374214354400,1.6643544921875,-1.1715718507766724,-0.645596444606781,-0.6786547303199768
1789620374224325600,1.67432568359375,-1.083296537399292,0.15478384494781494,-0.7435708045959473
1789620374234297600,1.684297607421875,-1.2695492506027222,0.005157870706170797,0.030249029397964478
1789620374244268500,1.6942685546875,-1.7094422578811646,-0.5839531421661377,0.8080496788024902
1789620374254239500,1.704239501953125,-1.6993225812911987,-0.9519311785697937,1.2408043146133423
1789620374264210700,1.714210693359375,-0.7426015734672546,-1.6293385028839111,1.5001038312911987
1789620374274182700,1.7241826171875,0.7302729487419128,-2.0203163623809814,1.7978196144104004
1789620374284153600,1.734153564453125,0.7543197274208069,-1.6084383726119995,1.8925683498382568
1789620374294124500,1.74412451171875,-0.17777331173419952,-1.4041558504104614,1.454031229019165
1789620374304095500,1.754095458984375,-0.30764317512512207,-1.2507816553115845,0.6329308152198792
1789620374314067700,1.764067626953125,-0.1204405352473259,-1.4402540922164917,0.204228475689888
1789620374324038400,1.774038330078125,-0.36895647644996643,-1.3960661888122559,-0.22014987468719482
1789620374334009600,1.784009521484375,-0.7541739344596863,-1.3137010335922241,-0.8202152252197266
1789620374343980500,1.79398046875,-0.9464890360832214,-1.5751398801803589,-1.4913876056671143
1789620374353952800,1.803952880859375,-1.1760194301605225,-1.7362041473388672,-2.008690118789673
1789620374363923500,1.81392333984375,-1.4018720388412476,-1.8444361686706543,-2.315455913543701
1789620374373894700,1.823894775390625,-1.4884151220321655,-1.8598891496658325,-2.4212520122528076
1789620374383866600,1.83386669921875,-1.4306039810180664,-1.5947667360305786,-2.3508782386779785
1789620374393837600,1.843837646484375,-1.2712247371673584,-0.8445281982421875,-2.0452511310577393
1789620374403808500,1.85380859375,-1.041623830795288,0.05308166891336441,-1.366776466369629
1789620374413779700,1.86377978515625,-0.8625583052635193,0.40483811497688293,-0.34029701352119446
1789620374423751700,1.873751708984375,-0.8247024416923523,-0.21443547308444977,0.5303799510002136
1789620374433722600,1.88372265625,-0.8149640560150146,-0.725676953792572,0.9441739320755005
1789620374443693600,1.893693603515625,-0.570610761642456,-0.8850398659706116,-0.23990578949451447
1789620374453664500,1.90366455078125,-0.576066255569458,-0.17785903811454773,-1.2134579420089722
1789620374463636700,1.91363671875,-0.47861364483833313,0.5170603394508362,-0.7539401054382324
1789620374473607400,1.923607421875,-0.6573250889778137,0.5561568737030029,-0.6208142638206482
1789620374483578600,1.93357861328125,-0.9366331100463867,0.31495675444602966,-0.8500311970710754
1789620374493550600,1.943550537109375,-1.186692476272583,0.018524542450904846,-0.7456965446472168
1789620374503521800,1.953521728515625,-1.427534818649292,-0.00747696403414011,-0.575928270816803
1789620374513492500,1.963492431640625,-1.5986474752426147,0.1438497006893158,-0.32149940729141235
1789620374523463700,1.973463623046875,-1.658231258392334,0.18016935884952545,-0.01982874423265457
1789620374533435600,1.983435546875,-1.604209065437317,-0.004400215111672878,0.13849405944347382
1789620374543406800,1.99340673828125,-1.3593175411224365,-0.3248853385448456,0.16344435513019562
1789620374553377500,2.00337744140625,-1.1067332029342651,-0.5103220343589783,0.15749591588974
1789620374563348500,2.013348388671875,-0.9619799852371216,-0.5545684695243835,0.16957935690879822
1789620374573320700,2.02332080078125,-0.7627962827682495,-0.5686113238334656,0.18052440881729126
1789620374583291600,2.033291748046875,-0.36529600620269775,-0.4907750189304352,0.2805156111717224
1789620374593262600,2.0432626953125,0.2283678650856018,-0.2986191511154175,0.48199358582496643
1789620374603234600,2.053234619140625,0.7655327916145325,0.07621297985315323,0.5766850113868713
1789620374613205800,2.063205810546875,1.1533820629119873,0.4295484125614166,0.69774329662323
1789620374623176400,2.073176513671875,1.642358660697937,0.9558511972427368,0.7551701664924622
1789620374633147600,2.083147705078125,2.1762259006500244,1.2258498668670654,0.6521926522254944
1789620374643119600,2.09311962890625,2.483002185821533,1.457647681236267,0.6595642566680908
1789620374653090800,2.1030908203125,2.433292865753174,1.3442606925964355,0.5286818742752075
1789620374663061500,2.1130615234375,2.0950098037719727,0.7934398651123047,0.3898840844631195
1789620374673033700,2.12303369140625,1.7546520233154297,0.37740856409072876,0.2345062494277954
1789620374683004700,2.133004638671875,1.4344985485076904,0.4163535237312317,0.358894407749176
1789620374692975600,2.1429755859375,1.243116021156311,0.9152389168739319,0.4250401556491852
1789620374702946600,2.152946533203125,1.4421483278274536,1.4642049074172974,0.478694885969162
1789620374712918500,2.16291845703125,1.6067423820495605,1.8414355516433716,0.5670899748802185
1789620374722889700,2.1728896484375,1.1216404438018799,1.3627487421035767,0.4681881070137024
1789620374732860700,2.182860595703125,0.6229305863380432,1.0434767007827759,0.11288461089134216
1789620374742831600,2.19283154296875,0.5329161286354065,1.0982757806777954,-0.12422778457403183
1789620374752803300,2.20280322265625,0.5917083621025085,1.2896853685379028,-0.03847426176071167
1789620374762774300,2.212774169921875,0.9225512146949768,1.404314398765564,0.1192031279206276
1789620374772745200,2.2227451171875,0.9080479145050049,1.7482763528823853,0.6215227246284485
1789620374782717200,2.23271728515625,0.7706533670425415,2.347903251647949,1.0168265104293823
1789620374792688000,2.242688232421875,0.647179901599884,2.566929578781128,1.0215554237365723
1789620374802659300,2.252659423828125,0.6147029995918274,2.265758752822876,0.8043577075004578
1789620374812630300,2.26263037109375,0.6593143939971924,1.5362730026245117,0.511378824710846
1789620374822602200,2.272602294921875,0.7990131974220276,0.8478878140449524,0.19481410086154938
1789620374832573200,2.2825732421875,1.0255299806594849,0.48196759819984436,-0.015082141384482384
1789620374842544400,2.29254443359375,1.1241772174835205,0.5627777576446533,-0.08688496053218842
1789620374852516000,2.30251611328125,1.0889928340911865,0.7308210730552673,-0.16314910352230072
1789620374862487300,2.3124873046875,1.070289134979248,0.7331033945083618,-0.3143973648548126
1789620374872458200,2.322458251953125,1.0517876148223877,0.5211977958679199,-0.5139187574386597
1789620374882429400,2.332429443359375,1.047463297843933,0.27183133363723755,-0.7084651589393616
1789620374892401200,2.342401123046875,1.174429178237915,0.2617848217487335,-0.755355179309845
1789620374902372400,2.352372314453125,1.3958990573883057,0.4163026809692383,-0.6119673848152161
1789620374912343300,2.36234326171875,1.4762381315231323,0.5183419585227966,-0.4443913996219635
1789620374922315300,2.372315185546875,1.4155206680297852,0.5044717192649841,-0.4008520543575287
1789620374932286200,2.3822861328125,1.320581078529358,0.5435038208961487,-0.3911459147930145
1789620374942257200,2.392257080078125,1.4127306938171387,0.6626425385475159,-0.34123319387435913
1789620374952228400,2.402228271484375,2.001877546310425,0.5412631034851074,-0.5820687413215637
1789620374962200000,2.412199951171875,2.033555507659912,0.87852942943573,-0.6141965389251709
1789620374972171300,2.422171142578125,1.956852674484253,0.8880558609962463,-0.5934481024742126
1789620374982142200,2.43214208984375,1.7309190034866333,0.6746651530265808,-0.5680076479911804
1789620374992114400,2.442114501953125,1.5778783559799194,0.3999238610267639,-0.5346880555152893
1789620375002085000,2.452085205078125,1.562280535697937,0.4905782639980316,-0.401615172624588
1789620375012056300,2.462056396484375,1.5157109498977661,0.5838178992271423,-0.31522834300994873
1789620375022027300,2.47202734375,1.4001834392547607,0.7395023107528687,-0.4079328775405884
1789620375031999200,2.481999267578125,1.2680445909500122,0.8599528670310974,-0.46440231800079346
1789620375041970200,2.49197021484375,1.1394444704055786,0.8603532314300537,-0.3686691224575043
1789620375051941000,2.501941162109375,1.1000325679779053,0.622654378414154,-0.31414276361465454
1789620375061912300,2.511912353515625,1.016287922859192,0.27551016211509705,-0.4894205331802368
1789620375071884000,2.521884033203125,0.925257682800293,-0.06658858805894852,-0.604920506477356
1789620375081855200,2.531855224609375,0.8745964169502258,-0.35803285241127014,-0.5583513975143433
1789620375091826200,2.541826171875,0.9020360708236694,-0.594707190990448,-0.5214354395866394
1789620375101798400,2.55179833984375,0.8908873796463013,-0.5664929747581482,-0.46576163172721863
1789620375111769000,2.56176904296875,0.8055762052536011,-0.22861556708812714,-0.3675498366355896
1789620375121740300,2.571740234375,0.7425801157951355,0.024656735360622406,-0.25354596972465515
1789620375131711200,2.581711181640625,0.7176393270492554,0.15295664966106415,-0.20876944065093994
1789620375141683500,2.591683349609375,0.6979345679283142,0.2903767228126526,-0.23967315256595612
1789620375151654100,2.601654052734375,0.7316890358924866,0.3147544860839844,-0.30184969305992126
1789620375161625000,2.611625,0.8161839246749878,0.2551351487636566,-0.3065115213394165
1789620375171597300,2.621597412109375,0.8791415691375732,0.18300797045230865,-0.2692387104034424
1789620375181568300,2.631568359375,0.8653044104576111,0.016481896862387657,-0.25268682837486267
1789620375191539200,2.641539306640625,0.7883211970329285,-0.24431321024894714,-0.24561479687690735
1789620375201510100,2.65151025390625,0.7209927439689636,-0.4011395275592804,-0.24434953927993774
1789620375211482400,2.661482421875,0.5922355651855469,-0.37961772084236145,-0.23987968266010284
1789620375221453300,2.671453369140625,0.44055476784706116,-0.27628231048583984,-0.20964360237121582
1789620375231424300,2.68142431640625,0.3067983090877533,-0.20385420322418213,-0.15745070576667786
1789620375241396200,2.691396240234375,0.17255979776382446,-0.2295132279396057,-0.134706512093544
1789620375251367400,2.701367431640625,0.016346236690878868,-0.278134822845459,-0.12137392163276672
1789620375261338000,2.711338134765625,-0.09184189140796661,-0.2784106135368347,-0.04796984791755676
1789620375271309000,2.72130908203125,-0.22354958951473236,-0.3025234043598175,0.10806529223918915
1789620375281281300,2.73128125,-0.4232224225997925,-0.1456989198923111,0.2621731758117676
1789620375291252200,2.741252197265625,-0.5443299412727356,0.142197847366333,0.3209214210510254
1789620375301223200,2.75122314453125,-0.5364810228347778,0.22438257932662964,0.2917438745498657
1789620375311195100,2.761195068359375,-0.5222253799438477,0.23064526915550232,0.280967652797699
1789620375321166300,2.771166259765625,-0.5554167628288269,0.2741142809391022,0.2897206246852875
1789620375331137300,2.78113720703125,-0.5755864381790161,0.3625408113002777,0.3009850084781647
1789620375341109200,2.791109130859375,-0.535736620426178,0.30909937620162964,0.3223123252391815
1789620375351080200,2.801080078125,-0.4405498504638672,-0.011352662928402424,0.29577285051345825
1789620375361051400,2.811051513671875,-0.28283312916755676,-0.4463461935520172,0.26077163219451904
1789620375371022300,2.821022216796875,-0.15811730921268463,-0.6582571268081665,0.24504351615905762
1789620375380994300,2.830994384765625,-0.06266474723815918,-0.7020688652992249,0.2407246083021164
1789620375390965200,2.84096533203125,-0.042846035212278366,-0.5966231822967529,0.24329456686973572
1789620375400936400,2.8509365234375,-0.19967655837535858,-0.3012984097003937,0.24944151937961578
1789620375410908200,2.860908203125,-0.4362052083015442,-0.13496802747249603,0.25241172313690186
1789620375420879400,2.87087939453125,-0.6111088991165161,-0.2883508801460266,0.21618027985095978
1789620375430850300,2.880850341796875,-0.6988903880119324,-0.6483399271965027,0.25460806488990784
1789620375440821200,2.8908212890625,-0.8157880306243896,-0.5942577719688416,0.35951220989227295
1789620375450793200,2.900793212890625,-0.9056079387664795,-0.525854229927063,0.3064194321632385
1789620375460764200,2.91076416015625,-0.9847173690795898,-0.6183191537857056,0.09930699318647385
1789620375470735400,2.9207353515625,-1.1175692081451416,-0.7009459137916565,-0.08426469564437866
1789620375480707000,2.93070703125,-1.2665692567825317,-0.8040345311164856,-0.13719187676906586
1789620375490678300,2.94067822265625,-1.3661423921585083,-0.9178335070610046,-0.08040875196456909
1789620375500649200,2.950649169921875,-1.4485173225402832,-1.0871260166168213,-0.024706052616238594
1789620375510621200,2.96062109375,-1.5290113687515259,-0.9530594944953918,0.02268117107450962
1789620375520592100,2.970592041015625,-1.5726715326309204,-0.7041798830032349,0.03379013389348984
1789620375530563300,2.980563232421875,-1.5613009929656982,-0.48955386877059937,0.000017523299902677536
1789620375540534300,2.9905341796875,-1.4989500045776367,-0.48111897706985474,-0.04423369839787483
1789620375550506200,3.00050634765625,-1.422742247581482,-0.5472838878631592,-0.07850698381662369
1789620375560477200,3.010477294921875,-1.354902982711792,-0.6025901436805725,-0.1021430492401123
1789620375570448100,3.0204482421875,-1.3024392127990723,-0.5302405953407288,-0.08383569121360779
1789620375580420400,3.03042041015625,-1.2536412477493286,-0.3920167088508606,-0.04321087524294853
1789620375590391000,3.04039111328125,-1.2785460948944092,-0.2134149968624115,0.02522064745426178
1789620375600362200,3.0503623046875,-1.314822793006897,-0.025884203612804413,0.1011355072259903
1789620375610333200,3.060333251953125,-1.2624019384384155,0.09741029888391495,0.15058374404907227
1789620375620305400,3.070305419921875,-1.2133333683013916,0.0763917863368988,0.1195346787571907
1789620375630276000,3.080276123046875,-1.1993898153305054,-0.10677245259284973,0.03459448367357254
1789620375640247300,3.090247314453125,-1.2340006828308105,-0.28895509243011475,-0.028955738991498947
1789620375650219300,3.10021923828125,-1.3247196674346924,-0.39155974984169006,-0.043565839529037476
1789620375660190500,3.1101904296875,-1.494126319885254,-0.38485977053642273,-0.04372815042734146
1789620375670161200,3.1201611328125,-1.6343425512313843,-0.2814047634601593,-0.11766469478607178
1789620375680133400,3.13013330078125,-1.557769775390625,-0.1250760853290558,-0.23398135602474213
1789620375690104300,3.140104248046875,-1.3980785608291626,-0.06282656639814377,-0.3003489375114441
1789620375700075300,3.1500751953125,-1.3456064462661743,-0.1021873876452446,-0.2580868899822235
1789620375710046200,3.160046142578125,-1.4028619527816772,-0.1897457391023636,-0.1461089700460434
1789620375720018200,3.17001806640625,-1.5134572982788086,-0.20428510010242462,-0.06593439728021622
1789620375729989400,3.1799892578125,-1.4625160694122314,-0.1612369567155838,-0.1120278537273407
1789620375739960300,3.189960205078125,-1.255083441734314,-0.14817240834236145,-0.23311078548431396
1789620375749932500,3.1999326171875,-1.1796698570251465,-0.2011735737323761,-0.2924550473690033
1789620375759903700,3.20990380859375,-1.2000834941864014,-0.35732370615005493,-0.2955971956253052
1789620375769874700,3.219874755859375,-1.2393758296966553,-0.5516585111618042,-0.28253358602523804
1789620375779845600,3.229845703125,-1.352398157119751,-0.6431505680084229,-0.23855523765087128
1789620375789817600,3.239817626953125,-1.3955312967300415,-0.5322482585906982,-0.2591817080974579
1789620375799788800,3.249788818359375,-1.199702501296997,-0.3189156651496887,-0.3490377962589264
1789620375809759700,3.259759765625,-0.9952684044837952,-0.21409548819065094,-0.420465886592865
1789620375819731700,3.269731689453125,-0.8984229564666748,-0.3999292254447937,-0.4401829242706299
1789620375829702700,3.27970263671875,-0.858208954334259,-0.6073993444442749,-0.40208160877227783
1789620375839673600,3.289673583984375,-0.805016815662384,-0.6633182168006897,-0.32708796858787537
1789620375849645600,3.2996455078125,-0.794118344783783,-0.5526044964790344,-0.2315388172864914
1789620375859616500,3.309616455078125,-0.7209009528160095,-0.27169114351272583,-0.2008235901594162
1789620375869587700,3.319587646484375,-0.5187457203865051,0.09396033734083176,-0.17264601588249207
1789620375879559400,3.329559326171875,-0.22057460248470306,-0.0562928132712841,-0.18297752737998962
1789620375889530600,3.339530517578125,-0.12462782114744186,-0.35185468196868896,-0.07855871319770813
1789620375899501600,3.34950146484375,-0.07756860554218292,-0.3077542781829834,0.08509615808725357
1789620375909472800,3.35947265625,-0.04198744148015976,0.21298106014728546,0.19794733822345734
1789620375919444500,3.369444580078125,-0.0704413503408432,0.7381146550178528,0.23778146505355835
1789620375929415700,3.379415771484375,-0.0642593577504158,0.9024702906608582,0.36993497610092163
1789620375939386600,3.38938671875,0.06323252618312836,0.7794921398162842,0.3258173167705536
1789620375949358600,3.399358642578125,0.17007534205913544,0.37790530920028687,0.08115030825138092
1789620375959329500,3.40932958984375,0.17370125651359558,0.2725968658924103,-0.03513301908969879
1789620375969300500,3.419300537109375,0.27441108226776123,0.38978368043899536,-0.01280348002910614
1789620375979272700,3.429272705078125,0.301121324300766,0.5548840761184692,0.17067717015743256
1789620375989243400,3.439243408203125,0.3053261935710907,0.6142281293869019,0.3053971529006958
1789620375999214600,3.449214599609375,0.39348384737968445,0.5453979969024658,0.27301767468452454
1789620376009186600,3.4591865234375,0.5573561191558838,0.6126841306686401,0.18910570442676544
1789620376019157800,3.46915771484375,0.7563257217407227,0.7153504490852356,0.12218266725540161
1789620376029128400,3.47912841796875,0.8851132392883301,0.7324570417404175,0.05840715020895004
1789620376039099600,3.489099609375,0.9709071516990662,0.8558796048164368,0.0024379994720220566
1789620376049071600,3.499071533203125,1.0574113130569458,1.0891294479370117,0.010074613615870476
1789620376059042800,3.509042724609375,1.1926662921905518,1.0991250276565552,0.06134090572595596
1789620376069013500,3.519013427734375,1.2651420831680298,0.9039256572723389,0.03588348627090454
1789620376078985700,3.52898583984375,1.3358010053634644,0.7384927868843079,-0.03170429542660713
1789620376088956700,3.538956787109375,1.4334999322891235,0.689463198184967,-0.053569644689559937
1789620376098927600,3.548927734375,1.512037992477417,0.6906675100326538,-0.06387124210596085
1789620376108899600,3.558899658203125,1.5625094175338745,0.636935293674469,-0.12829338014125824
1789620376118870800,3.568870849609375,1.6133958101272583,0.4654792845249176,-0.2635459005832672
1789620376128841700,3.578841796875,1.6787298917770386,0.34487804770469666,-0.31410467624664307
1789620376138813700,3.588813720703125,1.7852504253387451,0.46434885263442993,-0.2362505942583084
1789620376148784600,3.59878466796875,1.8357658386230469,0.8329569697380066,-0.1621771603822708
1789620376158755600,3.608755615234375,1.7663911581039429,0.9928399324417114,-0.25698304176330566
1789620376168726800,3.618726806640625,1.6818310022354126,1.01357102394104,-0.38057446479797363
1789620376178698500,3.628698486328125,1.615457534790039,0.9938615560531616,-0.42807257175445557
1789620376188669700,3.638669677734375,1.6403791904449463,0.9957132935523987,-0.4956188499927521
1789620376198640600,3.648640625,1.7613428831100464,0.8516667485237122,-0.6073835492134094
1789620376208612600,3.658612548828125,1.8375718593597412,0.7036235332489014,-0.684224545955658
1789620376218583600,3.66858349609375,1.8450672626495361,0.5245208144187927,-0.631236732006073
1789620376228554800,3.6785546875,1.7842843532562256,0.36033162474632263,-0.5413798093795776
1789620376238526500,3.6885263671875,1.621419072151184,0.19236275553703308,-0.5378534197807312
1789620376248497700,3.69849755859375,1.4954293966293335,0.15151892602443695,-0.5352789759635925
1789620376258468600,3.708468505859375,1.4664573669433594,0.22112078964710236,-0.47528398036956787
1789620376268440800,3.71844091796875,1.4093400239944458,0.3216865360736847,-0.43586307764053345
1789620376278411500,3.72841162109375,1.3371838331222534,0.5062103271484375,-0.4462467432022095
1789620376288382500,3.738382568359375,1.3346549272537231,0.5904860496520996,-0.4405113458633423
1789620376298353700,3.748353759765625,1.4295704364776611,0.5102424025535583,-0.43348270654678345
1789620376308325600,3.75832568359375,1.510343313217163,0.14531370997428894,-0.42295095324516296
1789620376318296600,3.768296630859375,1.5183721780776978,-0.10381963849067688,-0.4074538052082062
1789620376328267500,3.778267578125,1.4665387868881226,-0.02060730755329132,-0.3288666009902954
1789620376338239700,3.78823974609375,1.349911093711853,0.018480120226740837,-0.25957733392715454
1789620376348210700,3.798210693359375,1.1651122570037842,-0.14814960956573486,-0.23189190030097961
1789620376358181600,3.808181640625,0.9761139154434204,-0.28996676206588745,-0.2822345793247223
1789620376368153600,3.818153564453125,0.8470810651779175,-0.26325470209121704,-0.31786900758743286
1789620376378124800,3.828124755859375,0.8237797021865845,-0.15582074224948883,-0.292826771736145
1789620376388095700,3.838095703125,0.7469483017921448,-0.016208510845899582,-0.2495591938495636
1789620376398067700,3.848067626953125,0.6328814625740051,0.014973749406635761,-0.2156982421875
1789620376408038700,3.85803857421875,0.5577049255371094,-0.021074531599879265,-0.1574714183807373
1789620376418009600,3.868009521484375,0.4486332833766937,0.09133020043373108,-0.07934220135211945
1789620376427981600,3.877981689453125,0.26099705696105957,0.37952950596809387,-0.09049499034881592
1789620376437952500,3.887952392578125,0.18425986170768738,0.42971184849739075,-0.19325421750545502
1789620376447923700,3.897923828125,0.11827339977025986,0.20978084206581116,-0.2844392657279968
1789620376457895400,3.9078955078125,0.0718901976943016,-0.10552225261926651,-0.30042770504951477
1789620376467866600,3.91786669921875,0.07646763324737549,-0.32620057463645935,-0.26726415753364563
1789620376477837600,3.927837646484375,0.08664349466562271,-0.40803036093711853,-0.23914016783237457
1789620376487808800,3.937808837890625,0.02014515921473503,-0.46440574526786804,-0.23478269577026367
1789620376497780500,3.947780517578125,-0.08894567936658859,-0.5271134376525879,-0.1957217901945114
1789620376507751700,3.957751708984375,-0.12252281606197357,-0.6407129764556885,-0.09481701254844666
1789620376517722600,3.96772265625,-0.16439111530780792,-0.7119796872138977,0.05305135250091553
1789620376527694600,3.977694580078125,-0.2913759648799896,-0.10524501651525497,0.25883063673973083
1789620376537665500,3.98766552734375,-0.3417203724384308,0.23194526135921478,0.3314659595489502
1789620376547636500,3.997636474609375,-0.367520272731781,-0.06864573061466217,0.3086509108543396
1789620376557608700,4.007608642578125,-0.3434814214706421,-0.366959810256958,0.29049447178840637
1789620376567579400,4.017579345703125,-0.3097679316997528,-0.4344874620437622,0.2718992233276367
1789620376577550600,4.027550537109375,-0.3221886456012726,-0.3818264901638031,0.2411266267299652
1789620376587522600,4.0375224609375,-0.36159729957580566,-0.29244333505630493,0.20305700600147247
1789620376597493800,4.04749365234375,-0.4488186538219452,-0.1656760275363922,0.1754070669412613
1789620376607464400,4.05746435546875,-0.532171905040741,-0.18186244368553162,0.1884419173002243
1789620376617436700,4.067436767578125,-0.6168020963668823,-0.5242425203323364,0.2238021194934845
1789620376627407600,4.07740771484375,-0.6582605838775635,-0.7746366262435913,0.23830169439315796
1789620376637378800,4.08737890625,-0.7064536213874817,-0.5454354286193848,0.26281481981277466
1789620376647350500,4.0973505859375,-0.7923102378845215,-0.2766076326370239,0.2534596621990204
1789620376657321700,4.10732177734375,-0.8826894164085388,-0.522023618221283,0.21049709618091583
1789620376667292700,4.117292724609375,-1.0812588930130005,-0.9285546541213989,0.17954929172992706
1789620376677263600,4.127263671875,-1.2325447797775269,-0.8987012505531311,0.19760455191135406
1789620376687235600,4.137235595703125,-1.2729158401489258,-0.7138232588768005,0.10160452872514725
1789620376697206800,4.147206787109375,-1.180090308189392,-0.34333497285842896,-0.07332467287778854
1789620376707177700,4.157177734375,-1.0704498291015625,-0.052825912833213806,-0.18529435992240906
1789620376717149700,4.167149658203125,-1.0678471326828003,-0.35599374771118164,-0.23152762651443481
1789620376727120600,4.17712060546875,-1.2206315994262695,-0.9053106904029846,-0.18706534802913666
1789620376737091600,4.187091552734375,-1.4690946340560913,-1.039426565170288,-0.10079105198383331
1789620376747063600,4.1970634765625,-1.542995572090149,-0.9759599566459656,-0.08393164724111557
1789620376757034800,4.20703466796875,-1.4181430339813232,-0.7542668581008911,-0.13895508646965027
1789620376767005700,4.217005615234375,-1.2706878185272217,-0.5089161992073059,-0.1957499235868454
1789620376776977700,4.226977783203125,-1.1844433546066284,-0.4548132121562958,-0.20465776324272156
1789620376786948600,4.236948486328125,-1.160179853439331,-0.5150072574615479,-0.16184665262699127
1789620376796919800,4.246919921875,-1.1592341661453247,-0.5675162672996521,-0.09882640093564987
1789620376806891800,4.256891845703125,-1.1288822889328003,-0.5351159572601318,-0.05681263282895088
1789620376816862700,4.26686279296875,-1.10364830493927,-0.48358532786369324,-0.029945673421025276
1789620376826833700,4.276833740234375,-1.1001644134521484,-0.35336899757385254,-0.045512113720178604
1789620376836806000,4.286805908203125,-1.1632016897201538,-0.15609444677829742,-0.08587043732404709
1789620376846776800,4.29677685546875,-1.2695342302322388,0.11694826185703278,-0.07409926503896713
1789620376856747800,4.306747802734375,-1.420446753501892,0.22394171357154846,0.015562955290079117
1789620376866719700,4.3167197265625,-1.5162771940231323,0.09935078769922256,0.1569317877292633
1789620376876691000,4.32669091796875,-1.5163358449935913,-0.16206005215644836,0.20897120237350464
1789620376886662000,4.336661865234375,-1.4727928638458252,-0.46741488575935364,0.17259055376052856
1789620376896633900,4.3466337890625,-1.5729306936264038,-0.5559681057929993,0.1492905616760254
1789620376906604800,4.356604736328125,-1.6198878288269043,-0.6174359917640686,0.10440272092819214
1789620376916576000,4.366575927734375,-1.603905439376831,-0.7614710927009583,0.07001546025276184
1789620376926547700,4.376547607421875,-1.5564221143722534,-0.8694052696228027,0.03507852181792259
1789620376936519000,4.386518798828125,-1.5459070205688477,-0.9693543910980225,0.020433885976672173
1789620376946489900,4.39648974609375,-1.4632060527801514,-1.214759111404419,-0.051885053515434265
1789620376956461800,4.4064619140625,-1.4507379531860352,-1.2305644750595093,-0.09019576758146286
1789620376966432800,4.416432861328125,-1.4479634761810303,-1.035803198814392,-0.0637039765715599
1789620376976403700,4.42640380859375,-1.4190200567245483,-0.8409214615821838,-0.019485726952552795
1789620376986375000,4.436375,-1.473429799079895,-0.624233603477478,0.047000087797641754
1789620376996346600,4.4463466796875,-1.4207079410552979,-0.6394212245941162,0.04767921194434166
1789620377006317800,4.45631787109375,-1.3574059009552002,-0.6156578660011292,0.011888191103935242
1789620377016288800,4.466288818359375,-1.2925324440002441,-0.5416006445884705,-0.027755971997976303
1789620377026260700,4.4762607421875,-1.2010760307312012,-0.4674752950668335,-0.06503330171108246
1789620377036231700,4.486231689453125,-1.0883244276046753,-0.5355703234672546,-0.06614723801612854
1789620377046203000,4.496202880859375,-1.0575942993164062,-0.563488781452179,0.04389910399913788
1789620377056174800,4.5061748046875,-1.039145588874817,-0.47584182024002075,0.12690779566764832
1789620377066145800,4.516145751953125,-0.8923971056938171,-0.07265441864728928,0.1507100611925125
1789620377076116700,4.52611669921875,-0.6261778473854065,0.31638482213020325,0.18381308019161224
1789620377086089000,4.5360888671875,-0.41553109884262085,0.3374248743057251,0.23679453134536743
1789620377096060000,4.546059814453125,-0.2978280186653137,0.2121550589799881,0.28650325536727905
1789620377106030600,4.556030517578125,-0.15762563049793243,0.21104611456394196,0.33482152223587036
1789620377116002800,4.5660029296875,-0.06253234297037125,0.34903642535209656,0.3804430067539215
1789620377125973800,4.575973876953125,-0.013632443733513355,0.5262354612350464,0.3771129846572876
1789620377135945000,4.585945068359375,0.08496252447366714,0.6045132279396057,0.3340092599391937
1789620377145916700,4.595916748046875,0.14283487200737,0.5510436296463013,0.33882585167884827
1789620377155887900,4.605887939453125,0.18369118869304657,0.33482909202575684,0.3113193213939667
1789620377165858800,4.61585888671875,0.3081479072570801,0.3667435944080353,0.20203198492527008
1789620377175830800,4.625830810546875,0.5218439698219299,0.6012623906135559,0.1967855542898178
1789620377185801700,4.6358017578125,0.6522485613822937,0.7119492292404175,0.2608252763748169
1789620377195773000,4.64577294921875,0.7599455714225769,0.8531386256217957,0.27534958720207214
1789620377205744600,4.65574462890625,0.9075978994369507,1.001455545425415,0.26261699199676514
1789620377215715800,4.6657158203125,0.950498640537262,0.9468134045600891,0.2674027383327484
1789620377225686800,4.675686767578125,0.9676669836044312,0.8978205919265747,0.24569398164749146
1789620377235659000,4.685658935546875,1.021325945854187,0.8593721389770508,0.20340855419635773
1789620377245629700,4.695629638671875,1.1047168970108032,0.831407368183136,0.2146604061126709
1789620377255600600,4.7056005859375,1.2425355911254883,0.8508155345916748,0.3194552958011627
1789620377265572900,4.71557275390625,1.3605844974517822,0.9530931711196899,0.4720757305622101
1789620377275543800,4.725543701171875,1.387734293937683,0.9036620855331421,0.48954662680625916
1789620377285514800,4.7355146484375,1.419694423675537,0.6844855546951294,0.30220362544059753
1789620377295486700,4.74548681640625,1.5114651918411255,0.4897225797176361,0.12677855789661407
1789620377305458000,4.7554580078125,1.6740514039993286,0.4933266341686249,0.06177638843655586
1789620377315428600,4.7654287109375,1.792788028717041,0.5004673004150391,0.0755993202328682
1789620377325400800,4.77540087890625,1.8387738466262817,0.6290300488471985,0.12172526866197586
1789620377335371800,4.785371826171875,1.7730985879898071,0.8825527429580688,0.1450699269771576
1789620377345343000,4.795343017578125,1.7063440084457397,0.9825989007949829,0.046368904411792755
1789620377355314700,4.805314697265625,1.7489982843399048,0.843431830406189,-0.0843929722905159
1789620377365286000,4.815285888671875,1.8949370384216309,0.7475582957267761,-0.11237054318189621
1789620377375256800,4.8252568359375,1.9609752893447876,0.7802866697311401,-0.08256117254495621
1789620377385228800,4.835228759765625,1.83686363697052,0.8780907392501831,-0.10034523159265518
1789620377395199700,4.84519970703125,1.752372145652771,0.9805864095687866,-0.2210930436849594
1789620377405170700,4.855170654296875,1.81034255027771,1.015146255493164,-0.29330334067344666
1789620377415142700,4.865142578125,1.9111857414245605,0.9344245791435242,-0.27060389518737793
1789620377425113600,4.875113525390625,1.9377847909927368,0.7295936942100525,-0.27753743529319763
1789620377435084800,4.885084716796875,1.802924394607544,0.5371289253234863,-0.347308486700058
1789620377445056800,4.895056884765625,1.5522255897521973,0.360558420419693,-0.3998398780822754
1789620377455027700,4.90502783203125,1.4260321855545044,0.33444952964782715,-0.4137113690376282
1789620377464998700,4.91499853515625,1.4107671976089478,0.3858754336833954,-0.4112735092639923
1789620377474969900,4.924969970703125,1.398010492324829,0.490800142288208,-0.4517481327056885
1789620377484941800,4.93494189453125,1.421237587928772,0.520250678062439,-0.4861742854118347
1789620377494912800,4.944912841796875,1.3901880979537964,0.28801998496055603,-0.5151679515838623
1789620377504883700,4.9548837890625,1.271863341331482,0.12086960673332214,-0.4953095614910126
1789620377514856000,4.96485595703125,1.1545459032058716,0.20246891677379608,-0.4625299870967865
1789620377524827000,4.974826904296875,0.9744373559951782,0.21399827301502228,-0.40132203698158264
1789620377534797800,4.9847978515625,0.8212084174156189,0.16249482333660126,-0.3780076503753662
1789620377544769800,4.994769775390625,0.8129686117172241,0.11281434446573257,-0.4307345151901245
1789620377554741000,5.004740966796875,0.868287980556488,0.045062728226184845,-0.4304638206958771
1789620377564712000,5.0147119140625,0.9531850218772888,0.021720122545957565,-0.3375823497772217
1789620377574684000,5.024683837890625,0.9487202167510986,0.0027866987511515617,-0.27341800928115845
1789620377584654800,5.03465478515625,0.8071015477180481,0.03860195353627205,-0.2968314588069916
1789620377594625800,5.044625732421875,0.6543477177619934,0.15747423470020294,-0.3491884171962738
1789620377604597800,5.05459765625,0.5638982057571411,0.18611972033977509,-0.3787764012813568
1789620377614568700,5.064568603515625,0.5268147587776184,0.11058187484741211,-0.3629913032054901
1789620377624540000,5.074539794921875,0.5897980332374573,-0.027239376679062843,-0.31015366315841675
1789620377634511600,5.08451171875,0.6571348905563354,-0.27469661831855774,-0.24276739358901978
1789620377644482800,5.09448291015625,0.5582961440086365,-0.4202684760093689,-0.1906522661447525
1789620377654453800,5.104453857421875,0.42818352580070496,-0.2606618106365204,-0.13441753387451172
1789620377664425700,5.11442578125,0.3387737572193146,-0.31901565194129944,-0.08154419809579849
1789620377674396700,5.124396728515625,0.21607354283332825,-0.5523410439491272,-0.052317287772893906
1789620422206066200,49.656066162109376,-0.17973855137825012,-0.6823438405990601,0.5889482498168945
1789620422216037000,49.666037109375,-0.24712425470352173,-0.9589253664016724,0.6687002778053284
1789620422226008000,49.676008056640626,-0.33442583680152893,-1.0387330055236816,0.687481701374054
1789620422235979000,49.68597900390625,-0.4001297354698181,-0.9807722568511963,0.6560654640197754
1789620422245950200,49.6959501953125,-0.45620423555374146,-0.7841300368309021,0.6073138117790222
1789620422255921200,49.70592114257813,-0.5046889185905457,-0.5852813720703125,0.5483508706092834
1789620422265892000,49.71589208984375,-0.5492276549339294,-0.4987615942955017,0.46990588307380676
1789620422275863300,49.72586328125,-0.6162911057472229,-0.5561923980712891,0.3659413754940033
1789620422285834000,49.735833984375,-0.6756400465965271,-0.6286282539367676,0.2351776361465454
1789620422295805200,49.74580517578125,-0.7187837958335876,-0.5781424641609192,0.10955073684453964
1789620422305776000,49.75577612304688,-0.7464816570281982,-0.4297584295272827,0.01695343293249607
1789620422315747000,49.7657470703125,-0.76018226146698,-0.2751142680644989,-0.05224188417196274
1789620422325718300,49.77571826171875,-0.7527357935905457,-0.1932625025510788,-0.11005817353725433
1789620422335689000,49.78568896484375,-0.7144477963447571,-0.23508238792419434,-0.1666383445262909
1789620422345660200,49.79566015625,-0.641621470451355,-0.36542490124702454,-0.22065311670303345
1789620422355631000,49.80563110351562,-0.5428035259246826,-0.47669175267219543,-0.26340192556381226
1789620422365602000,49.81560205078125,-0.4503629207611084,-0.5615105628967285,-0.2937769889831543
1789620422375573200,49.8255732421875,-0.36967793107032776,-0.6239392757415771,-0.32321372628211975
1789620422385544000,49.8355439453125,-0.2856425642967224,-0.6285099983215332,-0.3529715836048126
1789620422395515100,49.84551513671875,-0.21092143654823303,-0.5804498195648193,-0.3772819936275482
1789620422405486000,49.855486083984374,-0.13747327029705048,-0.538601279258728,-0.394966721534729
1789620422415457000,49.86545703125,-0.087926484644413,-0.4956793785095215,-0.38142454624176025
1789620422425428200,49.87542822265625,-0.06419702619314194,-0.4370781183242798,-0.33053579926490784
1789620422435399200,49.885399169921875,-0.04633360728621483,-0.3658848702907562,-0.25306951999664307
1789620422445370000,49.8953701171875,-0.04299456253647804,-0.31594017148017883,-0.1632406860589981
1789620422455341000,49.905341064453125,-0.052103105932474136,-0.24064089357852936,-0.04321415349841118
1789620422465312300,49.91531225585938,-0.07985810190439224,-0.09250540286302567,0.10972797870635986
1789620422475283200,49.925283203125,-0.12488283216953278,0.06838707625865936,0.2723344564437866
1789620422485254100,49.93525415039063,-0.17861276865005493,0.15655697882175446,0.4130982458591461
1789620422495225000,49.94522509765625,-0.22157329320907593,0.12593354284763336,0.5144222378730774
1789620422505196000,49.95519604492188,-0.24016395211219788,-0.04482991248369217,0.5699487328529358
1789620422515167200,49.96516723632813,-0.23277661204338074,-0.2950360178947449,0.5780961513519287
1789620422525138200,49.97513818359375,-0.2168479561805725,-0.5211330652236938,0.5403211712837219
1789620422535109000,49.98510913085938,-0.21405190229415894,-0.6235284209251404,0.4630327820777893
1789620422545080000,49.995080078125,-0.23722533881664276,-0.5711364150047302,0.35508179664611816
1789620422555051000,50.00505102539063,-0.26881495118141174,-0.4208565950393677,0.24583975970745087
1789620422565022200,50.01502221679687,-0.30669480562210083,-0.2774232029914856,0.15560680627822876
1789620422574993200,50.0249931640625,-0.3402833938598633,-0.19981521368026733,0.1098017767071724
1789620422584964000,50.03496411132812,-0.37015053629875183,-0.19940303266048431,0.10894077271223068
1789620422594935300,50.04493530273437,-0.4005049765110016,-0.29726463556289673,0.13232971727848053
1789620422604906000,50.05490600585937,-0.440426766872406,-0.4464098811149597,0.16168348491191864
1789620422614877200,50.06487719726562,-0.4762028753757477,-0.5919992923736572,0.18977344036102295
1789620422624848100,50.07484814453125,-0.5073566436767578,-0.7351037263870239,0.19689032435417175
1789620422634819000,50.084819091796874,-0.5223681330680847,-0.8800129890441895,0.1684349775314331
1789620422644790300,50.094790283203125,-0.5110675096511841,-0.9942362308502197,0.10279950499534607
1789620422654761000,50.104760986328124,-0.47976580262184143,-1.0413302183151245,0.013766564428806305
1789620422664732200,50.114732177734375,-0.43921253085136414,-1.0095714330673218,-0.0628545805811882
1789620422674703000,50.124703125,-0.40929776430130005,-0.9122411012649536,-0.11058241873979568
1789620422684674000,50.134674072265625,-0.4017060101032257,-0.8097088932991028,-0.12608212232589722
1789620422694645200,50.144645263671876,-0.42585182189941406,-0.7336804270744324,-0.12216061353683472
1789620422704616200,50.1546162109375,-0.46570172905921936,-0.6600766777992249,-0.09647175669670105
1789620422714587100,50.164587158203126,-0.5186746716499329,-0.5506601929664612,-0.04739289730787277
1789620422724558000,50.17455810546875,-0.5657395124435425,-0.39688074588775635,0.02484373189508915
1789620422734529000,50.184529052734376,-0.5997933745384216,-0.24497269093990326,0.1111738309264183
1789620422744500200,50.19450024414063,-0.6122210025787354,-0.15591269731521606,0.2056630402803421
1789620422754471200,50.20447119140625,-0.5957906246185303,-0.14085517823696136,0.30850499868392944
1789620422764442000,50.21444213867188,-0.5564982891082764,-0.19517844915390015,0.417357861995697
1789620422774413000,50.2244130859375,-0.4954090416431427,-0.30591881275177,0.524716317653656
1789620422784384000,50.23438403320313,-0.43864887952804565,-0.4310142397880554,0.6097939014434814
1789620422794355200,50.24435522460937,-0.39570140838623047,-0.5285841822624207,0.6621910333633423
1789620422804327000,50.254326904296875,-0.36820849776268005,-0.6152400970458984,0.6745443940162659
1789620422814297900,50.2642978515625,-0.3664129972457886,-0.7253549098968506,0.6403965353965759
1789620422824268800,50.274268798828125,-0.37832531332969666,-0.8294586539268494,0.5726325511932373
1789620422834240000,50.284239990234376,-0.39207789301872253,-0.8681722283363342,0.49840492010116577
1789620422844211000,50.2942109375,-0.3976067006587982,-0.8239601254463196,0.4453231692314148
1789620422854182000,50.304181884765626,-0.38628295063972473,-0.7044417262077332,0.4229781925678253
1789620422864152800,50.31415283203125,-0.3723597228527069,-0.5596237778663635,0.42966246604919434
1789620422874123800,50.324123779296876,-0.35833337903022766,-0.46227192878723145,0.4559310972690582
1789620422884095000,50.33409497070313,-0.3551023304462433,-0.4579109847545624,0.49633827805519104
1789620422894066000,50.34406591796875,-0.3525179922580719,-0.553246021270752,0.5321229100227356
1789620422904037000,50.354037109375,-0.3528067469596863,-0.737817108631134,0.5414721369743347
1789620422914007800,50.3640078125,-0.35346347093582153,-0.9590509533882141,0.521651566028595
1789620422923978800,50.37397875976563,-0.35539811849594116,-1.1662442684173584,0.4753563404083252
1789620422933950000,50.38394995117188,-0.35796886682510376,-1.331541895866394,0.4041474163532257
1789620422943921000,50.3939208984375,-0.35892102122306824,-1.4088274240493774,0.32474324107170105
1789620422953892000,50.40389208984375,-0.3532849848270416,-1.357445478439331,0.25651785731315613
1789620422963862800,50.41386279296875,-0.3372310698032379,-1.1613026857376099,0.21290594339370728
1789620422973833700,50.42383374023437,-0.3171476423740387,-0.8638439178466797,0.18919262290000916
1789620422983805000,50.43380493164062,-0.30055320262908936,-0.547317624092102,0.17798924446105957
1789620422993775900,50.44377587890625,-0.2935091555118561,-0.28321459889411926,0.18034693598747253
1789620423003747000,50.4537470703125,-0.3003586530685425,-0.09757594019174576,0.20138059556484222
1789620423013718000,50.463718017578124,-0.31169384717941284,0.0158986859023571,0.24361461400985718
1789620423023689000,50.47368896484375,-0.3215962052345276,0.08147038519382477,0.27904248237609863
1789620423033660000,50.483659912109374,-0.3282884657382965,0.15350623428821564,0.29115214943885803
1789620423043630800,50.493630859375,-0.32502004504203796,0.14988642930984497,0.3268023133277893
1789620423053602800,50.50360278320313,-0.2725256681442261,0.07021316885948181,0.35262617468833923
1789620423063573800,50.51357373046875,-0.23255079984664917,0.01080560777336359,0.36384645104408264
1789620423073545000,50.523544921875,-0.21230624616146088,-0.05042685568332672,0.36587151885032654
1789620423083516000,50.53351586914062,-0.19571349024772644,-0.11729316413402557,0.3512232303619385
1789620423093487000,50.54348706054687,-0.18198037147521973,-0.15518569946289062,0.3321738839149475
1789620423103458000,50.5534580078125,-0.17697970569133759,-0.16993217170238495,0.317599892616272
1789620423113428700,50.5634287109375,-0.19861789047718048,-0.21579286456108093,0.2822245955467224
1789620423123400000,50.57339990234375,-0.24206584692001343,-0.2886330485343933,0.21789045631885529
1789620423133371000,50.58337084960937,-0.2784925699234009,-0.3360690176486969,0.13560330867767334
1789620423143342000,50.593342041015624,-0.30198198556900024,-0.33715176582336426,0.04019661620259285
1789620423153313000,50.60331298828125,-0.31347140669822693,-0.28569361567497253,-0.06347278505563736
1789620423163283700,50.61328369140625,-0.311413049697876,-0.19229428470134735,-0.16454413533210754
1789620423173255000,50.6232548828125,-0.2982386648654938,-0.09102945774793625,-0.2610083818435669
1789620423183225900,50.633225830078125,-0.2779894769191742,-0.0379192940890789,-0.35980138182640076
1789620423193197000,50.643197021484376,-0.24101495742797852,-0.031851284205913544,-0.4377819299697876
1789620423203168000,50.65316796875,-0.19395902752876282,-0.03975234925746918,-0.49883779883384705
1789620423213139000,50.663138916015626,-0.1586282104253769,-0.04047380015254021,-0.5705385804176331
1789620423223110000,50.67310986328125,-0.12062802165746689,-0.023421822115778923,-0.6644647717475891
1789620423233080800,50.683080810546876,-0.07231348752975464,-0.012616045773029327,-0.755260705947876
1789620423243052000,50.69305200195313,-0.015698466449975967,0.004029109142720699,-0.8253324031829834
1789620423253023000,50.70302294921875,0.018504509702324867,0.014523827470839024,-0.864797830581665
1789620423262994000,50.71299389648438,0.005314461886882782,-0.0025487637612968683,-0.8830021619796753
1789620423272964900,50.72296484375,-0.031212391331791878,-0.04548824205994606,-0.884009599685669
1789620423282935800,50.73293579101563,-0.06721892952919006,-0.07736018300056458,-0.8620149493217468
1789620423292907000,50.74290698242187,-0.09692355990409851,-0.055313464254140854,-0.8036890625953674
1789620423302878000,50.7528779296875,-0.12973973155021667,0.027654346078634262,-0.6820262670516968
1789620423312849000,50.76284887695312,-0.15726430714130402,0.154491126537323,-0.5091426372528076
1789620423322819800,50.77281982421875,-0.15380506217479706,0.28035587072372437,-0.3093486726284027
1789620423332790800,50.78279077148437,-0.12166070193052292,0.3693200945854187,-0.10530208051204681
1789620423342762000,50.79276196289062,-0.07227864116430283,0.40925195813179016,0.09335684776306152
1789620423352733000,50.80273291015625,-0.0003780881525017321,0.41766566038131714,0.2955184578895569
1789620423362704000,50.81270385742187,0.07954034209251404,0.36570224165916443,0.4855974316596985
1789620423372674800,50.8226748046875,0.149891197681427,0.23107944428920746,0.635643720626831
1789620423382645800,50.83264575195312,0.19308045506477356,0.03324803337454796,0.7241662740707397
1789620423392617000,50.842616943359374,0.19928348064422607,-0.15214791893959045,0.7596337199211121
1789620423402588000,50.852587890625,0.1549387276172638,-0.24943220615386963,0.7576226592063904
1789620423412559000,50.86255908203125,0.0730382651090622,-0.23661760985851288,0.7271071076393127
1789620423422530000,50.872530029296875,-0.0217398963868618,-0.18628159165382385,0.668648362159729
1789620423432500700,50.882500732421875,-0.13248957693576813,-0.20392663776874542,0.5695449709892273
1789620423442472000,50.892471923828126,-0.2529452443122864,-0.3055417537689209,0.4299144744873047
1789620423452443000,50.90244287109375,-0.36541321873664856,-0.4147545099258423,0.26218217611312866
1789620423462414000,50.9124140625,-0.4422154426574707,-0.46038907766342163,0.08803730458021164
1789620423472385000,50.92238500976563,-0.4975069463253021,-0.4285523295402527,-0.0905769094824791
1789620423482355700,50.932355712890626,-0.5380367636680603,-0.34004443883895874,-0.25981107354164124
1789620423492327000,50.94232690429688,-0.5728738307952881,-0.21883811056613922,-0.4164225161075592
1789620423502297900,50.9522978515625,-0.625024676322937,-0.12137733399868011,-0.5580930709838867
1789620423512269000,50.96226904296875,-0.6675801277160645,-0.07927755266427994,-0.6780954003334045
1789620423522240000,50.97223999023438,-0.6675694584846497,-0.053458426147699356,-0.7608100175857544
1789620423532211000,50.9822109375,-0.6284976601600647,-0.04283534362912178,-0.8007776737213135
1789620423542182000,50.99218188476563,-0.5651739835739136,-0.08661481738090515,-0.814132571220398
1789620423552152800,51.00215283203125,-0.4888550043106079,-0.19577379524707794,-0.8170458078384399
1789620423562124000,51.0121240234375,-0.4049288034439087,-0.310666024684906,-0.8039712905883789
1789620423572095000,51.02209497070312,-0.31449609994888306,-0.34139731526374817,-0.7551968693733215
1789620423582066000,51.03206591796875,-0.23048847913742065,-0.267145574092865,-0.6595933437347412
1789620423592036900,51.04203686523437,-0.1652785837650299,-0.12816746532917023,-0.527582049369812
1789620423602007800,51.0520078125,-0.1056133583188057,0.02487289160490036,-0.3899878263473511
1789620423611979000,51.06197900390625,-0.04362935200333595,0.15387001633644104,-0.24154244363307953
1789620423621950000,51.071949951171874,0.01534014381468296,0.24239757657051086,-0.0725097507238388
1789620423631921000,51.0819208984375,0.06178860738873482,0.2685447633266449,0.10452734678983688
1789620423641891800,51.091891845703124,0.06456378102302551,0.3451964855194092,0.3470694422721863
1789620423651862800,51.10186279296875,0.004113485570997,0.22919026017189026,0.5417534112930298
1789620423661834000,51.111833984375,-0.015487264841794968,0.007135213818401098,0.6486709713935852
1789620423671805000,51.121804931640625,-0.0358966663479805,-0.1327955275774002,0.7057981491088867
1789620423681775900,51.13177587890625,-0.06261136382818222,-0.21375979483127594,0.7343553900718689
1789620423691747000,51.1417470703125,-0.0707760825753212,-0.26230841875076294,0.6976807117462158
1789620423701717800,51.1517177734375,-0.07377061247825623,-0.30717968940734863,0.6106661558151245
1789620423711689000,51.16168896484375,-0.08025700598955154,-0.3266351521015167,0.5062646865844727
1789620423721661000,51.17166088867187,-0.09920486807823181,-0.3207431733608246,0.4001624286174774
1789620423731631900,51.1816318359375,-0.13941103219985962,-0.342879056930542,0.31755387783050537
1789620423741602800,51.19160278320312,-0.17167429625988007,-0.2755703032016754,0.2569962739944458
