time,seconds_elapsed,z,y,x
1789620372598388500,0.048388427734375,0.10149785876274109,-0.2830471396446228,-0.28845176100730896
1789620372608360400,0.0583603515625,0.12371262162923813,-0.3135635256767273,-0.1904226690530777
1789620372618331400,0.068331298828125,0.22958073019981384,-0.11074595153331757,-0.16579082608222961
1789620372628302600,0.078302490234375,0.3836459219455719,0.5277562141418457,-0.5356251001358032
1789620372638273500,0.0882734375,0.7517845630645752,1.1209583282470703,-0.9992997646331787
1789620372648245500,0.09824560546875,1.0048810243606567,1.7641433477401733,-1.234928846359253
1789620372658216400,0.108216552734375,1.209222674369812,2.020289182662964,-1.4078055620193481
1789620372668187600,0.118187744140625,1.3483384847640991,1.9574403762817383,-1.5617903470993042
1789620372678158600,0.12815869140625,1.3883296251296997,1.975540280342102,-1.628446340560913
1789620372688130600,0.138130615234375,1.3848096132278442,2.1104142665863037,-1.6305874586105347
1789620372698101500,0.1481015625,1.3954098224639893,2.117732524871826,-1.7094998359680176
1789620372708072400,0.158072509765625,1.387728214263916,2.254276990890503,-1.796504259109497
1789620372718043600,0.168043701171875,1.5114376544952393,2.5932741165161133,-1.815873146057129
1789620372728015400,0.178015380859375,1.7199373245239258,2.898550271987915,-1.752261996269226
1789620372737986600,0.187986572265625,1.830661654472351,3.043485403060913,-1.6204227209091187
1789620372747957200,0.197957275390625,1.7472784519195557,2.9373292922973633,-1.4178637266159058
1789620372757928200,0.20792822265625,1.4885672330856323,2.6522233486175537,-1.167675256729126
1789620372767900200,0.217900146484375,1.3030319213867188,2.1962623596191406,-0.8375553488731384
1789620372777871000,0.22787109375,0.748076856136322,2.5338082313537598,-0.515704870223999
1789620372787842300,0.23784228515625,0.3589765429496765,2.3254103660583496,-0.08693356812000275
1789620372797813200,0.247813232421875,0.0330817885696888,1.8474500179290771,0.34704264998435974
1789620372807785200,0.25778515625,-0.5807642936706543,0.7492659687995911,0.49902579188346863
1789620372817756200,0.267756103515625,-1.5354974269866943,-1.2380417585372925,-0.021629394963383675
1789620372827727400,0.277727294921875,-2.2911946773529053,-2.496959686279297,-0.2614547610282898
1789620372837698300,0.2876982421875,-2.628784418106079,-3.0135855674743652,-0.3378472924232483
1789620372847670300,0.297670166015625,-2.746429443359375,-3.748420000076294,-0.6653223633766174
1789620372857641200,0.30764111328125,-2.5739030838012695,-4.859957695007324,-1.1458452939987183
1789620372867612400,0.3176123046875,-2.2471816539764404,-6.109194755554199,-1.4540854692459106
1789620372877583400,0.327583251953125,-1.9245424270629883,-7.053289413452148,-1.5224015712738037
1789620372887554000,0.337553955078125,-1.614939570426941,-7.238379955291748,-1.6098473072052002
1789620372897526300,0.3475263671875,-1.2003753185272217,-6.477921962738037,-1.90692937374115
1789620372907497200,0.357497314453125,-0.5976530313491821,-5.236850261688232,-2.2707808017730713
1789620372917468400,0.367468505859375,0.013823670335114002,-3.969076633453369,-2.384674072265625
1789620372927439000,0.377439208984375,0.7701888680458069,-3.131765127182007,-2.3313398361206055
1789620372937411300,0.387411376953125,1.4823352098464966,-2.148454427719116,-2.1950230598449707
1789620372947382300,0.39738232421875,2.058608055114746,-0.8423477411270142,-1.9395807981491089
1789620372957353500,0.407353515625,2.5240633487701416,-0.3538065552711487,-1.4734255075454712
1789620372967324200,0.41732421875,2.6305654048919678,0.013156814500689507,-0.9538832902908325
1789620372977296400,0.42729638671875,2.4403953552246094,0.243336483836174,-0.5225492119789124
1789620372987267300,0.437267333984375,2.0657196044921875,-0.02737623080611229,-0.29518717527389526
1789620372997238300,0.44723828125,1.6918401718139648,-0.6920123100280762,-0.1417134553194046
1789620373007209200,0.457209228515625,1.4691402912139893,-1.213931679725647,0.13779248297214508
1789620373017181200,0.46718115234375,1.4026837348937988,-1.395352840423584,0.48444417119026184
1789620373027152400,0.47715234375,1.4219982624053955,-1.3709428310394287,0.7764893770217896
1789620373037123300,0.487123291015625,1.4251765012741089,-1.3543816804885864,0.9488459229469299
1789620373047094300,0.49709423828125,1.3344221115112305,-1.4957479238510132,1.0322636365890503
1789620373057066200,0.507066162109375,1.1660176515579224,-1.6192046403884888,1.0851033926010132
1789620373067037400,0.517037353515625,0.9643439650535583,-1.5795080661773682,1.1685141324996948
1789620373077008100,0.527008056640625,0.7158185243606567,-1.5007506608963013,1.2389768362045288
1789620373086979000,0.53697900390625,0.4985935389995575,-1.557105541229248,1.20302414894104
1789620373096951300,0.546951416015625,0.3983449935913086,-1.720007061958313,1.0954912900924683
1789620373106922200,0.556922119140625,0.42191821336746216,-2.022726058959961,1.0084022283554077
1789620373116893200,0.56689306640625,0.44405680894851685,-2.529111623764038,0.9366731643676758
1789620373126864100,0.576864013671875,0.3503233790397644,-3.130277156829834,0.8130649328231812
1789620373136836400,0.58683642578125,0.22093583643436432,-3.64353084564209,0.6587768197059631
1789620373146807300,0.596807373046875,0.3567996621131897,-3.9932315349578857,0.45092031359672546
1789620373156778200,0.6067783203125,0.4733411967754364,-4.033760070800781,0.10368138551712036
1789620373166749200,0.616749267578125,0.480622261762619,-3.7973508834838867,-0.25714579224586487
1789620373176720100,0.62672021484375,0.40241509675979614,-3.3662056922912598,-0.581301212310791
1789620373186692400,0.6366923828125,0.20579737424850464,-2.730041742324829,-0.7942257523536682
1789620373196663000,0.6466630859375,-0.026488598436117172,-2.0784249305725098,-0.8325760364532471
1789620373206634200,0.65663427734375,-0.22100003063678741,-1.6698418855667114,-0.7356787919998169
1789620373216605200,0.666605224609375,-0.3627217411994934,-1.546425461769104,-0.5545793175697327
1789620373226577400,0.676577392578125,-0.46778982877731323,-1.5765341520309448,-0.3770895004272461
1789620373236548000,0.686548095703125,-0.5124481320381165,-1.6873964071273804,-0.2625085711479187
1789620373246519300,0.696519287109375,-0.4625612497329712,-1.8375520706176758,-0.22396838665008545
1789620373256490200,0.706490234375,-0.31959211826324463,-2.0419838428497314,-0.1627364456653595
1789620373266462200,0.716462158203125,-0.1459505409002304,-2.4247753620147705,-0.0026791400741785765
1789620373276433200,0.72643310546875,-0.02966814674437046,-2.9624249935150146,0.35904842615127563
1789620373286404000,0.736404052734375,0.061280135065317154,-3.5270776748657227,0.8846938610076904
1789620373296375300,0.746375244140625,0.15188699960708618,-3.9152944087982178,1.3859559297561646
1789620373306347000,0.756346923828125,0.289228618144989,-4.102121829986572,1.7452671527862549
1789620373316318200,0.766318115234375,0.4979453384876251,-4.3197712898254395,1.8986176252365112
1789620373326289200,0.7762890625,0.7072485089302063,-4.562788009643555,1.8504031896591187
1789620373336260400,0.78626025390625,0.86702960729599,-4.660857677459717,1.6579519510269165
1789620373346232000,0.796232177734375,0.9775569438934326,-4.494018077850342,1.4143571853637695
1789620373356203300,0.806203369140625,1.0769879817962646,-4.16437292098999,1.2331676483154297
1789620373366174200,0.81617431640625,1.207741141319275,-3.8313870429992676,1.124816656112671
1789620373376145400,0.8261455078125,1.412671446800232,-3.534048318862915,1.0463839769363403
1789620373386117000,0.8361171875,1.703417181968689,-3.304147720336914,0.9343972206115723
1789620373396088300,0.84608837890625,2.0856757164001465,-3.0497798919677734,0.7695438265800476
1789620373406059300,0.856059326171875,2.508779287338257,-2.7831006050109863,0.5994016528129578
1789620373416030200,0.8660302734375,2.920610189437866,-2.554647922515869,0.46481773257255554
1789620373426002200,0.876002197265625,3.273333787918091,-2.4437668323516846,0.3260364234447479
1789620373435973000,0.88597314453125,3.541245937347412,-2.351956844329834,0.19016088545322418
1789620373445944300,0.8959443359375,3.7949509620666504,-2.0990304946899414,0.07453681528568268
1789620373455915300,0.905915283203125,4.113810062408447,-1.6295487880706787,-0.02846253477036953
1789620373465887200,0.91588720703125,4.241964340209961,-1.1022887229919434,-0.22905687987804413
1789620373475858200,0.925858154296875,4.492167949676514,-0.5691326856613159,-0.3938050866127014
1789620373485829400,0.935829345703125,4.7611589431762695,-0.07949136197566986,-0.4979642629623413
1789620373495800300,0.94580029296875,4.897618293762207,0.3161686062812805,-0.561725378036499
1789620373505772300,0.955772216796875,4.999392986297607,0.5607333779335022,-0.5767075419425964
1789620373515743200,0.9657431640625,4.979437828063965,0.747931182384491,-0.451106995344162
1789620373525714200,0.975714111328125,4.836379528045654,0.8201761245727539,-0.24601402878761292
1789620373535685400,0.985685302734375,4.7302632331848145,0.7920246124267578,-0.027839088812470436
1789620373545657000,0.995656982421875,4.649323463439941,0.8571924567222595,0.22710159420967102
1789620373555628300,1.005628173828125,4.536621570587158,0.8513699769973755,0.4977125823497772
1789620373565599200,1.01559912109375,4.36174201965332,0.8212254047393799,0.7831017374992371
1789620373575570400,1.0255703125,4.056024551391602,0.8015177249908447,1.1002594232559204
1789620373585542100,1.035542236328125,3.5848124027252197,0.7448752522468567,1.4102582931518555
1789620373595513300,1.045513427734375,3.004542827606201,0.5367382764816284,1.6777211427688599
1789620373605484300,1.055484375,2.4444808959960938,0.44735753536224365,1.727913737297058
1789620373615455200,1.065455322265625,2.002526044845581,0.3533788323402405,1.7867746353149414
1789620373625427200,1.07542724609375,1.6740425825119019,0.5959342122077942,1.4609431028366089
1789620373635398100,1.085398193359375,1.3588122129440308,1.5519278049468994,0.28262582421302795
1789620373645369300,1.095369384765625,0.9741054773330688,2.032140016555786,-1.1528233289718628
1789620373655340300,1.10534033203125,0.30438119173049927,2.1974682807922363,-1.9920357465744019
1789620373665312300,1.115312255859375,-0.3924649953842163,1.7469532489776611,-2.346257209777832
1789620373675283200,1.125283203125,-0.9343386292457581,1.2634257078170776,-2.1837658882141113
1789620373685254400,1.13525439453125,-1.1941779851913452,0.9788392782211304,-1.733228325843811
1789620373695225300,1.145225341796875,-1.3688634634017944,0.25969868898391724,-1.0210509300231934
1789620373705197300,1.155197265625,-1.3498263359069824,-0.18490619957447052,-0.44113850593566895
1789620373715168300,1.165168212890625,-1.6222230195999146,-0.7555502653121948,-0.05883615091443062
1789620373725139200,1.17513916015625,-1.7900983095169067,-1.4324264526367188,0.1794312745332718
1789620373735110400,1.1851103515625,-1.585116982460022,-1.6506160497665405,0.11585815995931625
1789620373745082000,1.19508203125,-1.6726195812225342,-1.7207945585250854,0.1017220988869667
1789620373755053600,1.205053466796875,-1.7224119901657104,-1.883107304573059,0.24004429578781128
1789620373765024800,1.215024658203125,-1.8341025114059448,-1.6929481029510498,0.46048665046691895
1789620373774995500,1.224995361328125,-2.1299831867218018,-1.5888928174972534,0.6149635910987854
1789620373784967700,1.2349677734375,-2.395925283432007,-1.629279613494873,0.6888518929481506
1789620373794938600,1.244938720703125,-2.5538182258605957,-1.7113003730773926,0.7688535451889038
1789620373804909800,1.254909912109375,-2.6663334369659424,-2.0131561756134033,0.8192977905273438
1789620373814880500,1.264880615234375,-2.7910211086273193,-2.3724400997161865,0.8790463805198669
1789620373824852700,1.274852783203125,-2.7903122901916504,-2.446161985397339,0.9954768419265747
1789620373834823700,1.28482373046875,-2.377768039703369,-2.3513689041137695,0.9895116090774536
1789620373844794600,1.294794677734375,-1.948562741279602,-1.9064310789108276,0.9693847894668579
1789620373854765600,1.304765625,-1.527349829673767,-1.8227741718292236,1.0309299230575562
1789620373864737500,1.314737548828125,-1.3103770017623901,-1.848936915397644,1.0804167985916138
1789620373874708700,1.324708740234375,-1.1489545106887817,-1.8918782472610474,1.254441499710083
1789620373884679700,1.3346796875,-1.3720762729644775,-1.771163821220398,1.3796671628952026
1789620373894650600,1.344650634765625,-0.9902719259262085,-1.710815191268921,1.233728289604187
1789620373904622600,1.35462255859375,-0.6934061646461487,-1.7741830348968506,1.1106982231140137
1789620373914593800,1.36459375,-0.16879300773143768,-1.5672484636306763,1.0626534223556519
1789620373924564500,1.374564453125,0.2974069118499756,-0.9399914741516113,0.6544992923736572
1789620373934535700,1.38453564453125,0.586540699005127,-0.03860970959067345,0.1041857898235321
1789620373944507600,1.394507568359375,0.7194843888282776,0.6726391315460205,-0.3077000379562378
1789620373954478800,1.404478759765625,0.8864222168922424,1.0030330419540405,-0.5401649475097656
1789620373964449500,1.414449462890625,1.2427833080291748,0.913723349571228,-0.7516327500343323
1789620373974421800,1.424421875,1.6399716138839722,0.9220929145812988,-0.9922780990600586
1789620373984392700,1.434392822265625,1.9240292310714722,0.6949364542961121,-0.921942412853241
1789620373994363600,1.44436376953125,1.661694049835205,0.2776790261268616,-0.7519299387931824
1789620374004334600,1.45433447265625,2.000427007675171,0.43654003739356995,-0.2797994315624237
1789620374014306600,1.464306640625,2.266972303390503,0.18365345895290375,-0.0937240943312645
1789620374024277800,1.47427783203125,2.3280045986175537,0.3573211133480072,-0.15990684926509857
1789620374034248700,1.484248779296875,2.218719720840454,0.6065384149551392,-0.29164302349090576
1789620374044219600,1.4942197265625,2.2326557636260986,0.8997183442115784,-0.26671290397644043
1789620374054191600,1.504191650390625,2.3832786083221436,1.1515138149261475,-0.3413732945919037
1789620374064162800,1.514162841796875,2.5880730152130127,1.5243464708328247,-0.4347245693206787
1789620374074133800,1.5241337890625,2.862952470779419,2.0042572021484375,-0.5642338395118713
1789620374084104400,1.5341044921875,3.333761215209961,2.733703374862671,-0.7449687123298645
1789620374094076700,1.54407666015625,3.730541467666626,3.0081515312194824,-0.94129878282547
1789620374104047600,1.554047607421875,3.0619070529937744,2.360110282897949,-0.9559973478317261
1789620374114018600,1.5640185546875,2.059312105178833,3.6640279293060303,-0.5004037022590637
1789620374124613600,1.574613525390625,1.3310556411743164,4.607706546783447,-0.1497093290090561
1789620374134584600,1.58458447265625,0.39940863847732544,4.938477039337158,-0.6720697283744812
1789620374144555500,1.594555419921875,-0.2523749768733978,5.5289177894592285,-1.0737266540527344
1789620374154526700,1.604526611328125,-0.9518534541130066,3.799541711807251,-1.0688806772232056
1789620374164498700,1.614498779296875,-2.100809335708618,1.8570607900619507,-0.6855812668800354
1789620374174469600,1.6244697265625,-2.1616835594177246,0.1369064599275589,-0.29284757375717163
1789620374184440600,1.634440673828125,-1.8164817094802856,-1.1080979108810425,0.2210564762353897
1789620374194411500,1.64441162109375,-1.2505685091018677,-1.712819218635559,0.5165494084358215
1789620374204383500,1.654383544921875,-0.9427507519721985,-1.2527059316635132,0.09867490828037262
1789620374214354400,1.6643544921875,-1.170453429222107,-0.6469582319259644,-0.6827514171600342
1789620374224325600,1.67432568359375,-1.0821731090545654,0.15342417359352112,-0.7476702332496643
1789620374234297600,1.684297607421875,-1.2684258222579956,0.0037982002831995487,0.026149578392505646
1789620374244268500,1.6942685546875,-1.7083197832107544,-0.5853132605552673,0.8039507865905762
1789620374254239500,1.704239501953125,-1.6982001066207886,-0.9532912969589233,1.2367054224014282
1789620374264210700,1.714210693359375,-0.7414831519126892,-1.6307003498077393,1.4960070848464966
1789620374274182700,1.7241826171875,0.7313913702964783,-2.0216782093048096,1.7937228679656982
1789620374284153600,1.734153564453125,0.7554389238357544,-1.609799861907959,1.888471245765686
1789620374294124500,1.74412451171875,-0.1766541302204132,-1.405517339706421,1.4499341249465942
1789620374304095500,1.754095458984375,-0.30652424693107605,-1.2521432638168335,0.6288338303565979
1789620374314067700,1.764067626953125,-0.11932159960269928,-1.4416157007217407,0.20013149082660675
1789620374324038400,1.774038330078125,-0.3678398132324219,-1.3974287509918213,-0.22424562275409698
1789620374334009600,1.784009521484375,-0.7530572414398193,-1.3150635957717896,-0.8243109583854675
1789620374343980500,1.79398046875,-0.9453673362731934,-1.5765002965927124,-1.4954861402511597
1789620374353952800,1.803952880859375,-1.1748976707458496,-1.7375645637512207,-2.0127885341644287
1789620374363923500,1.81392333984375,-1.4007511138916016,-1.8457969427108765,-2.319554090499878
1789620374373894700,1.823894775390625,-1.4872941970825195,-1.8612499237060547,-2.4253501892089844
1789620374383866600,1.83386669921875,-1.4294817447662354,-1.596126914024353,-2.3549768924713135
1789620374393837600,1.843837646484375,-1.2701025009155273,-0.8458883762359619,-2.049349784851074
1789620374403808500,1.85380859375,-1.0405046939849854,0.051720187067985535,-1.3708735704421997
1789620374413779700,1.86377978515625,-0.8614391088485718,0.40347662568092346,-0.34439411759376526
1789620374423751700,1.873751708984375,-0.8235815167427063,-0.21579620242118835,0.5262818932533264
1789620374433722600,1.88372265625,-0.8138431310653687,-0.7270376682281494,0.9400758743286133
1789620374443693600,1.893693603515625,-0.5694893002510071,-0.8864004015922546,-0.24400414526462555
1789620374453664500,1.90366455078125,-0.574944794178009,-0.1792195588350296,-1.2175562381744385
1789620374463636700,1.91363671875,-0.47748640179634094,0.5157022476196289,-0.7580416202545166
1789620374473607400,1.923607421875,-0.6561978459358215,0.5547987818717957,-0.6249157786369324
1789620374483578600,1.93357861328125,-0.9355096220970154,0.31359708309173584,-0.8541306257247925
1789620374493550600,1.943550537109375,-1.1855690479278564,0.017164872959256172,-0.7497959733009338
1789620374503521800,1.953521728515625,-1.4264113903045654,-0.008836634457111359,-0.58002769947052
1789620374513492500,1.963492431640625,-1.5975240468978882,0.14249002933502197,-0.3255988657474518
1789620374523463700,1.973463623046875,-1.6571053266525269,0.17881076037883759,-0.023929568007588387
1789620374533435600,1.983435546875,-1.6030831336975098,-0.0057588196359574795,0.13439323008060455
1789620374543406800,1.99340673828125,-1.3581945896148682,-0.3262452185153961,0.15934517979621887
1789620374553377500,2.00337744140625,-1.1056102514266968,-0.5116819143295288,0.15339674055576324
1789620374563348500,2.013348388671875,-0.9608567953109741,-0.5559282302856445,0.16548004746437073
1789620374573320700,2.02332080078125,-0.761673092842102,-0.5699710845947266,0.17642509937286377
1789620374583291600,2.033291748046875,-0.36417102813720703,-0.49213406443595886,0.2764153480529785
1789620374593262600,2.0432626953125,0.22949284315109253,-0.29997819662094116,0.47789332270622253
1789620374603234600,2.053234619140625,0.7666534781455994,0.07485213875770569,0.5725870728492737
1789620374613205800,2.063205810546875,1.1545027494430542,0.4281875789165497,0.6936453580856323
1789620374623176400,2.073176513671875,1.643485426902771,0.9544929265975952,0.7510689496994019
1789620374633147600,2.083147705078125,2.1773526668548584,1.2244915962219238,0.6480914354324341
1789620374643119600,2.09311962890625,2.484126329421997,1.4562883377075195,0.6554644107818604
1789620374653090800,2.1030908203125,2.4344170093536377,1.342901349067688,0.524582028388977
1789620374663061500,2.1130615234375,2.0961296558380127,0.7920786738395691,0.3857865631580353
1789620374673033700,2.12303369140625,1.7557719945907593,0.37604740262031555,0.23040871322155
1789620374683004700,2.133004638671875,1.435621738433838,0.4149937331676483,0.35479509830474854
1789620374692975600,2.1429755859375,1.2442392110824585,0.9138791561126709,0.4209408462047577
1789620374702946600,2.152946533203125,1.4432740211486816,1.4628461599349976,0.47459420561790466
1789620374712918500,2.16291845703125,1.6078680753707886,1.8400768041610718,0.5629892945289612
1789620374722889700,2.1728896484375,1.1227694749832153,1.3613914251327515,0.4640856385231018
1789620374732860700,2.182860595703125,0.6240596175193787,1.0421193838119507,0.10878214240074158
1789620374742831600,2.19283154296875,0.5340383648872375,1.096915602684021,-0.12832655012607574
1789620374752803300,2.20280322265625,0.5928305983543396,1.2883251905441284,-0.042573027312755585
1789620374762774300,2.212774169921875,0.9236825108528137,1.4029580354690552,0.11509942263364792
1789620374772745200,2.2227451171875,0.9091792106628418,1.7469199895858765,0.6174190044403076
1789620374782717200,2.23271728515625,0.7717843651771545,2.3465468883514404,1.0127229690551758
1789620374792688000,2.242688232421875,0.6483108997344971,2.565573215484619,1.0174518823623657
1789620374802659300,2.252659423828125,0.6158312559127808,2.2644011974334717,0.8002556562423706
1789620374812630300,2.26263037109375,0.6604426503181458,1.5349153280258179,0.5072767734527588
1789620374822602200,2.272602294921875,0.800142228603363,0.8465304970741272,0.1907116323709488
1789620374832573200,2.2825732421875,1.0266590118408203,0.48061028122901917,-0.019184613600373268
1789620374842544400,2.29254443359375,1.125306248664856,0.5614204406738281,-0.090987429022789
1789620374852516000,2.30251611328125,1.090121865272522,0.7294637560844421,-0.1672515720129013
1789620374862487300,2.3124873046875,1.0714163780212402,0.7317453026771545,-0.3184988796710968
1789620374872458200,2.322458251953125,1.0529148578643799,0.5198397040367126,-0.5180202722549438
1789620374882429400,2.332429443359375,1.048585057258606,0.27047091722488403,-0.7125636339187622
1789620374892401200,2.342401123046875,1.175550937652588,0.26042440533638,-0.7594536542892456
1789620374902372400,2.352372314453125,1.3970290422439575,0.4149457812309265,-0.6160703897476196
1789620374912343300,2.36234326171875,1.4773681163787842,0.5169850587844849,-0.44849443435668945
1789620374922315300,2.372315185546875,1.4166499376296997,0.5031145215034485,-0.4049546718597412
1789620374932286200,2.3822861328125,1.3217103481292725,0.542146623134613,-0.39524853229522705
1789620374942257200,2.392257080078125,1.4138604402542114,0.6612855195999146,-0.34533607959747314
1789620374952228400,2.402228271484375,2.003007411956787,0.5399060845375061,-0.5861716270446777
1789620374962200000,2.412199951171875,2.034686803817749,0.8771730661392212,-0.6183002591133118
1789620374972171300,2.422171142578125,1.9579839706420898,0.8866994976997375,-0.5975518226623535
1789620374982142200,2.43214208984375,1.7320480346679688,0.6733078360557556,-0.572110116481781
1789620374992114400,2.442114501953125,1.5790073871612549,0.3985665440559387,-0.5387905240058899
1789620375002085000,2.452085205078125,1.5634105205535889,0.48922136425971985,-0.40571820735931396
1789620375012056300,2.462056396484375,1.516840934753418,0.5824609994888306,-0.3193313777446747
1789620375022027300,2.47202734375,1.401312232017517,0.7381448745727539,-0.4120352268218994
1789620375031999200,2.481999267578125,1.2691733837127686,0.8585954308509827,-0.4685046374797821
1789620375041970200,2.49197021484375,1.1405717134475708,0.8589951395988464,-0.37277063727378845
1789620375051941000,2.501941162109375,1.1011598110198975,0.6212962865829468,-0.3182442784309387
1789620375061912300,2.511912353515625,1.0174167156219482,0.2741527259349823,-0.49352288246154785
1789620375071884000,2.521884033203125,0.9263864159584045,-0.06794602423906326,-0.609022855758667
1789620375081855200,2.531855224609375,0.8757261633872986,-0.35938987135887146,-0.5624542832374573
1789620375091826200,2.541826171875,0.9031658172607422,-0.5960642099380493,-0.5255383253097534
1789620375101798400,2.55179833984375,0.8920199275016785,-0.567848801612854,-0.4698660373687744
1789620375111769000,2.56176904296875,0.8067087531089783,-0.22997140884399414,-0.3716542422771454
1789620375121740300,2.571740234375,0.7437098622322083,0.023299729451537132,-0.25764885544776917
1789620375131711200,2.581711181640625,0.7187690734863281,0.15159964561462402,-0.21287232637405396
1789620375141683500,2.591683349609375,0.6990646123886108,0.2890198230743408,-0.24377617239952087
1789620375151654100,2.601654052734375,0.7328190803527832,0.3133975863456726,-0.3059527277946472
1789620375161625000,2.611625,0.8173169493675232,0.2537795305252075,-0.3106161952018738
1789620375171597300,2.621597412109375,0.8802745938301086,0.18165235221385956,-0.27334338426589966
1789620375181568300,2.631568359375,0.8664341568946838,0.015124890953302383,-0.2567897140979767
1789620375191539200,2.641539306640625,0.7894509434700012,-0.24567021429538727,-0.24971768260002136
1789620375201510100,2.65151025390625,0.7221230268478394,-0.4024963080883026,-0.24845269322395325
1789620375211482400,2.661482421875,0.5933658480644226,-0.38097450137138367,-0.24398283660411835
1789620375221453300,2.671453369140625,0.4416857957839966,-0.2776387929916382,-0.21374717354774475
1789620375231424300,2.68142431640625,0.3079293370246887,-0.20521067082881927,-0.1615542769432068
1789620375241396200,2.691396240234375,0.1736908257007599,-0.23086969554424286,-0.13881008327007294
1789620375251367400,2.701367431640625,0.017477260902523994,-0.2794913053512573,-0.12547749280929565
1789620375261338000,2.711338134765625,-0.09070859849452972,-0.27976614236831665,-0.052074652165174484
1789620375271309000,2.72130908203125,-0.22241629660129547,-0.30387893319129944,0.10396048426628113
1789620375281281300,2.73128125,-0.42209291458129883,-0.14705602824687958,0.2580704391002655
1789620375291252200,2.741252197265625,-0.5432004332542419,0.14084073901176453,0.3168186843395233
1789620375301223200,2.75122314453125,-0.535350501537323,0.22302588820457458,0.2876405715942383
1789620375311195100,2.761195068359375,-0.5210948586463928,0.22928857803344727,0.27686434984207153
1789620375321166300,2.771166259765625,-0.5542877316474915,0.272756963968277,0.2856181561946869
1789620375331137300,2.78113720703125,-0.5744574069976807,0.3611834943294525,0.2968825399875641
1789620375341109200,2.791109130859375,-0.5346043109893799,0.3077434301376343,0.31820806860923767
1789620375351080200,2.801080078125,-0.4394175708293915,-0.012708604335784912,0.2916685938835144
1789620375361051400,2.811051513671875,-0.28169959783554077,-0.4477016031742096,0.2566666901111603
1789620375371022300,2.821022216796875,-0.15698376297950745,-0.6596125364303589,0.24093857407569885
1789620375380994300,2.830994384765625,-0.061534732580184937,-0.7034257650375366,0.23662158846855164
1789620375390965200,2.84096533203125,-0.04171602055430412,-0.5979800820350647,0.23919154703617096
1789620375400936400,2.8509365234375,-0.19853998720645905,-0.3026525378227234,0.2453349232673645
1789620375410908200,2.860908203125,-0.43506863713264465,-0.13632215559482574,0.24830514192581177
1789620375420879400,2.87087939453125,-0.6099781394004822,-0.2897074520587921,0.2120768427848816
1789620375430850300,2.880850341796875,-0.6977596282958984,-0.6496965289115906,0.25050464272499084
1789620375440821200,2.8908212890625,-0.8146522045135498,-0.5956122279167175,0.3554060459136963
1789620375450793200,2.900793212890625,-0.9044721126556396,-0.527208685874939,0.30231326818466187
1789620375460764200,2.91076416015625,-0.98358154296875,-0.6196736097335815,0.09520081430673599
1789620375470735400,2.9207353515625,-1.1164333820343018,-0.7023003697395325,-0.08837087452411652
1789620375480707000,2.93070703125,-1.2654364109039307,-0.8053902387619019,-0.1412964016199112
1789620375490678300,2.94067822265625,-1.3650095462799072,-0.9191892147064209,-0.08451328426599503
1789620375500649200,2.950649169921875,-1.4473830461502075,-1.088481068611145,-0.028811408206820488
1789620375510621200,2.96062109375,-1.5278770923614502,-0.9544146060943604,0.018575815483927727
1789620375520592100,2.970592041015625,-1.571537971496582,-0.7055352926254272,0.029685191810131073
1789620375530563300,2.980563232421875,-1.5601674318313599,-0.49090927839279175,-0.004087419714778662
1789620375540534300,2.9905341796875,-1.4978166818618774,-0.48247450590133667,-0.048338502645492554
1789620375550506200,3.00050634765625,-1.4216089248657227,-0.5486394166946411,-0.08261179178953171
1789620375560477200,3.010477294921875,-1.3537687063217163,-0.603945255279541,-0.1062484085559845
1789620375570448100,3.0204482421875,-1.3013049364089966,-0.5315957069396973,-0.08794104307889938
1789620375580420400,3.03042041015625,-1.2525056600570679,-0.39337125420570374,-0.04731691628694534
1789620375590391000,3.04039111328125,-1.2774105072021484,-0.21476955711841583,0.02111460641026497
1789620375600362200,3.0503623046875,-1.313688039779663,-0.027239078655838966,0.09702987968921661
1789620375610333200,3.060333251953125,-1.2612671852111816,0.09605542570352554,0.14647811651229858
1789620375620305400,3.070305419921875,-1.2121952772140503,0.07503829151391983,0.11542726308107376
1789620375630276000,3.080276123046875,-1.198251724243164,-0.10812593996524811,0.030487069860100746
1789620375640247300,3.090247314453125,-1.2328630685806274,-0.29030880331993103,-0.033062878996133804
1789620375650219300,3.10021923828125,-1.3235820531845093,-0.39291346073150635,-0.04767297953367233
1789620375660190500,3.1101904296875,-1.492996335029602,-0.3862166702747345,-0.04783117026090622
1789620375670161200,3.1201611328125,-1.6332125663757324,-0.28276166319847107,-0.12176771461963654
1789620375680133400,3.13013330078125,-1.5566341876983643,-0.12643064558506012,-0.23808740079402924
1789620375690104300,3.140104248046875,-1.3969429731369019,-0.0641811192035675,-0.3044549822807312
1789620375700075300,3.1500751953125,-1.3444668054580688,-0.10354024171829224,-0.2621951401233673
1789620375710046200,3.160046142578125,-1.4017223119735718,-0.19109858572483063,-0.150217205286026
1789620375720018200,3.17001806640625,-1.5123199224472046,-0.20563891530036926,-0.07004140317440033
1789620375729989400,3.1799892578125,-1.4613786935806274,-0.16259077191352844,-0.11613485962152481
1789620375739960300,3.189960205078125,-1.2539483308792114,-0.1495271772146225,-0.2372165471315384
1789620375749932500,3.1999326171875,-1.178534746170044,-0.20252834260463715,-0.2965608239173889
1789620375759903700,3.20990380859375,-1.1989492177963257,-0.35867878794670105,-0.29970255494117737
1789620375769874700,3.219874755859375,-1.2382415533065796,-0.5530136227607727,-0.28663894534111023
1789620375779845600,3.229845703125,-1.3512564897537231,-0.644502580165863,-0.24266457557678223
1789620375789817600,3.239817626953125,-1.3943896293640137,-0.5336002707481384,-0.26329103112220764
1789620375799788800,3.249788818359375,-1.1985598802566528,-0.3202672302722931,-0.3531476855278015
1789620375809759700,3.259759765625,-0.9941257834434509,-0.2154470682144165,-0.4245757758617401
1789620375819731700,3.269731689453125,-0.8972823619842529,-0.4012816548347473,-0.44429171085357666
1789620375829702700,3.27970263671875,-0.8570683598518372,-0.6087517738342285,-0.4061903953552246
1789620375839673600,3.289673583984375,-0.803879976272583,-0.6646722555160522,-0.3311946988105774
1789620375849645600,3.2996455078125,-0.7929815053939819,-0.553958535194397,-0.23564554750919342
1789620375859616500,3.309616455078125,-0.7197608351707458,-0.27304378151893616,-0.2049321085214615
1789620375869587700,3.319587646484375,-0.5176056027412415,0.09260769933462143,-0.17675453424453735
1789620375879559400,3.329559326171875,-0.21943701803684235,-0.05764651671051979,-0.18708467483520508
1789620375889530600,3.339530517578125,-0.12349024415016174,-0.35320839285850525,-0.08266585320234299
1789620375899501600,3.34950146484375,-0.07642926275730133,-0.30910724401474,0.08098805695772171
1789620375909472800,3.35947265625,-0.04084809869527817,0.21162809431552887,0.19383923709392548
1789620375919444500,3.369444580078125,-0.06930024176836014,0.7367624640464783,0.23367241024971008
1789620375929415700,3.379415771484375,-0.06311824917793274,0.9011180996894836,0.36582592129707336
1789620375939386600,3.38938671875,0.06437312811613083,0.7781397104263306,0.3217085301876068
1789620375949358600,3.399358642578125,0.1712159514427185,0.37655287981033325,0.07704152166843414
1789620375959329500,3.40932958984375,0.17484211921691895,0.2712445557117462,-0.03924194350838661
1789620375969300500,3.419300537109375,0.2755519449710846,0.3884313702583313,-0.01691240444779396
1789620375979272700,3.429272705078125,0.30226370692253113,0.5535324215888977,0.16656741499900818
1789620375989243400,3.439243408203125,0.30646857619285583,0.6128764748573303,0.3012874126434326
1789620375999214600,3.449214599609375,0.3946272134780884,0.5440467596054077,0.268907368183136
1789620376009186600,3.4591865234375,0.5584995150566101,0.611332893371582,0.18499541282653809
1789620376019157800,3.46915771484375,0.7574642896652222,0.7139971852302551,0.11807497590780258
1789620376029128400,3.47912841796875,0.8862518072128296,0.731103777885437,0.05429945886135101
1789620376039099600,3.489099609375,0.9720444679260254,0.8545258045196533,-0.001669003046117723
1789620376049071600,3.499071533203125,1.0585486888885498,1.0877755880355835,0.005967611446976662
1789620376059042800,3.509042724609375,1.1938064098358154,1.0977723598480225,0.05723239481449127
1789620376069013500,3.519013427734375,1.2662822008132935,0.9025729894638062,0.03177497535943985
1789620376078985700,3.52898583984375,1.3369441032409668,0.7371414303779602,-0.03581445664167404
1789620376088956700,3.538956787109375,1.434643030166626,0.6881118416786194,-0.057679805904626846
1789620376098927600,3.548927734375,1.513175368309021,0.6893137097358704,-0.06797824800014496
1789620376108899600,3.558899658203125,1.5636467933654785,0.6355814933776855,-0.13240037858486176
1789620376118870800,3.568870849609375,1.6145397424697876,0.4641282558441162,-0.26765647530555725
1789620376128841700,3.578841796875,1.6798738241195679,0.34352701902389526,-0.3182152509689331
1789620376138813700,3.588813720703125,1.7863885164260864,0.46299535036087036,-0.24035800993442535
1789620376148784600,3.59878466796875,1.8369039297103882,0.831603467464447,-0.16628457605838776
1789620376158755600,3.608755615234375,1.7675302028656006,0.9914868474006653,-0.2610909938812256
1789620376168726800,3.618726806640625,1.6829700469970703,1.0122179985046387,-0.38468241691589355
1789620376178698500,3.628698486328125,1.61659836769104,0.9925092458724976,-0.4321815073490143
1789620376188669700,3.638669677734375,1.6415200233459473,0.9943609833717346,-0.4997277855873108
1789620376198640600,3.648640625,1.7624802589416504,0.8503129482269287,-0.6114905476570129
1789620376208612600,3.658612548828125,1.8387092351913452,0.7022697329521179,-0.6883315443992615
1789620376218583600,3.66858349609375,1.846207857131958,0.5231683850288391,-0.6353455185890198
1789620376228554800,3.6785546875,1.7854249477386475,0.358979195356369,-0.5454885959625244
1789620376238526500,3.6885263671875,1.622559905052185,0.19101043045520782,-0.5419623255729675
1789620376248497700,3.69849755859375,1.4965702295303345,0.1501666009426117,-0.5393878817558289
1789620376258468600,3.708468505859375,1.467602252960205,0.2197701781988144,-0.4793950915336609
1789620376268440800,3.71844091796875,1.4104849100112915,0.32033592462539673,-0.43997418880462646
1789620376278411500,3.72841162109375,1.3383287191390991,0.5048596858978271,-0.4503578543663025
1789620376288382500,3.738382568359375,1.3357998132705688,0.5891354084014893,-0.4446224570274353
1789620376298353700,3.748353759765625,1.4307094812393188,0.5088893175125122,-0.43759065866470337
1789620376308325600,3.75832568359375,1.5114823579788208,0.143960639834404,-0.4270589053630829
1789620376318296600,3.768296630859375,1.5195155143737793,-0.10517089068889618,-0.4115641117095947
1789620376328267500,3.778267578125,1.467682123184204,-0.02195856161415577,-0.33297690749168396
1789620376338239700,3.78823974609375,1.3510514497756958,0.017127588391304016,-0.2636859714984894
1789620376348210700,3.798210693359375,1.166252613067627,-0.14950214326381683,-0.23600055277347565
1789620376358181600,3.808181640625,0.9772608280181885,-0.29131653904914856,-0.28634679317474365
1789620376368153600,3.818153564453125,0.8482279777526855,-0.26460447907447815,-0.3219812214374542
1789620376378124800,3.828124755859375,0.8249261379241943,-0.15717071294784546,-0.2969387173652649
1789620376388095700,3.838095703125,0.7480947375297546,-0.017558487132191658,-0.25367113947868347
1789620376398067700,3.848067626953125,0.6340238451957703,0.013622068800032139,-0.21980799734592438
1789620376408038700,3.85803857421875,0.5588473081588745,-0.022426212206482887,-0.16158117353916168
1789620376418009600,3.868009521484375,0.4497796893119812,0.08998022228479385,-0.08345414698123932
1789620376427981600,3.877981689453125,0.26214346289634705,0.37817952036857605,-0.09460693597793579
1789620376437952500,3.887952392578125,0.18540021777153015,0.42835932970046997,-0.19736286997795105
1789620376447923700,3.897923828125,0.11941374838352203,0.2084283083677292,-0.28854790329933167
1789620376457895400,3.9078955078125,0.0730355978012085,-0.10687265545129776,-0.30453911423683167
1789620376467866600,3.91786669921875,0.07761303335428238,-0.3275509774684906,-0.2713755667209625
1789620376477837600,3.927837646484375,0.08778737485408783,-0.4093813896179199,-0.2432507425546646
1789620376487808800,3.937808837890625,0.021289043128490448,-0.46575677394866943,-0.2388932704925537
1789620376497780500,3.947780517578125,-0.08779776096343994,-0.5284627676010132,-0.19983455538749695
1789620376507751700,3.957751708984375,-0.12137489765882492,-0.6420623064041138,-0.09892977774143219
1789620376517722600,3.96772265625,-0.1632469743490219,-0.7133306264877319,0.048940643668174744
1789620376527694600,3.977694580078125,-0.2902318239212036,-0.1065959483385086,0.25471991300582886
1789620376537665500,3.98766552734375,-0.3405762314796448,0.23059432208538055,0.3273552358150482
1789620376547636500,3.997636474609375,-0.366376131772995,-0.0699966624379158,0.3045401871204376
1789620376557608700,4.007608642578125,-0.3423408269882202,-0.3683122396469116,0.2863856852054596
1789620376567579400,4.017579345703125,-0.30862733721733093,-0.4358398914337158,0.26779043674468994
1789620376577550600,4.027550537109375,-0.3210427463054657,-0.38317668437957764,0.23701494932174683
1789620376587522600,4.0375224609375,-0.3604514002799988,-0.29379352927207947,0.1989453285932541
1789620376597493800,4.04749365234375,-0.44767603278160095,-0.16702760756015778,0.17129717767238617
1789620376607464400,4.05746435546875,-0.5310292840003967,-0.18321402370929718,0.18433202803134918
1789620376617436700,4.067436767578125,-0.6156549453735352,-0.5255921483039856,0.2196897566318512
1789620376627407600,4.07740771484375,-0.6571134328842163,-0.7759862542152405,0.23418933153152466
1789620376637378800,4.08737890625,-0.7053102254867554,-0.5467866659164429,0.2587045133113861
1789620376647350500,4.0973505859375,-0.7911668419837952,-0.2779588997364044,0.24934937059879303
1789620376657321700,4.10732177734375,-0.8815420269966125,-0.5233731865882874,0.2063845992088318
1789620376667292700,4.117292724609375,-1.0801115036010742,-0.9299042224884033,0.17543679475784302
1789620376677263600,4.127263671875,-1.231399655342102,-0.9000517725944519,0.1934932917356491
1789620376687235600,4.137235595703125,-1.271770715713501,-0.7151737809181213,0.09749326854944229
1789620376697206800,4.147206787109375,-1.1789451837539673,-0.34468549489974976,-0.0774359330534935
1789620376707177700,4.157177734375,-1.0693047046661377,-0.05417641997337341,-0.189405620098114
1789620376717149700,4.167149658203125,-1.0667020082473755,-0.35734426975250244,-0.23563888669013977
1789620376727120600,4.17712060546875,-1.2194864749908447,-0.9066612124443054,-0.1911766082048416
1789620376737091600,4.187091552734375,-1.4679492712020874,-1.0407769680023193,-0.10490244626998901
1789620376747063600,4.1970634765625,-1.541850209236145,-0.9773103594779968,-0.08804304152727127
1789620376757034800,4.20703466796875,-1.4169979095458984,-0.7556173801422119,-0.14306634664535522
1789620376767005700,4.217005615234375,-1.2695426940917969,-0.5102667212486267,-0.19986118376255035
1789620376776977700,4.226977783203125,-1.1832959651947021,-0.4561627507209778,-0.2087702602148056
1789620376786948600,4.236948486328125,-1.1590324640274048,-0.5163568258285522,-0.16595914959907532
1789620376796919800,4.246919921875,-1.1580862998962402,-0.5688655972480774,-0.1029391661286354
1789620376806891800,4.256891845703125,-1.1277344226837158,-0.5364652872085571,-0.060925401747226715
1789620376816862700,4.26686279296875,-1.1025049686431885,-0.48493659496307373,-0.03405597060918808
1789620376826833700,4.276833740234375,-1.099021077156067,-0.35472026467323303,-0.04962241277098656
1789620376836806000,4.286805908203125,-1.1620572805404663,-0.1574452817440033,-0.08998128771781921
1789620376846776800,4.29677685546875,-1.2683898210525513,0.1155974343419075,-0.07821011543273926
1789620376856747800,4.306747802734375,-1.4193034172058105,0.22259046137332916,0.011452658101916313
1789620376866719700,4.3167197265625,-1.5151338577270508,0.09799953550100327,0.15282149612903595
1789620376876691000,4.32669091796875,-1.515182375907898,-0.16340704262256622,0.20485541224479675
1789620376886662000,4.336661865234375,-1.4716393947601318,-0.4687618911266327,0.16847476363182068
1789620376896633900,4.3466337890625,-1.5717850923538208,-0.557318389415741,0.14517903327941895
1789620376906604800,4.356604736328125,-1.6187422275543213,-0.6187862753868103,0.1002911850810051
1789620376916576000,4.366575927734375,-1.602758765220642,-0.7628209590911865,0.06590338051319122
1789620376926547700,4.376547607421875,-1.5552754402160645,-0.870755136013031,0.030966438353061676
1789620376936519000,4.386518798828125,-1.5447630882263184,-0.9707054495811462,0.016323313117027283
1789620376946489900,4.39648974609375,-1.462062120437622,-1.216110110282898,-0.055995624512434006
1789620376956461800,4.4064619140625,-1.449590802192688,-1.2319141626358032,-0.09430812299251556
1789620376966432800,4.416432861328125,-1.446816325187683,-1.037152886390686,-0.06781633198261261
1789620376976403700,4.42640380859375,-1.4178695678710938,-0.8422697186470032,-0.023599868640303612
1789620376986375000,4.436375,-1.4722793102264404,-0.6255818605422974,0.04288594797253609
1789620376996346600,4.4463466796875,-1.4195564985275269,-0.6407690644264221,0.04356452077627182
1789620377006317800,4.45631787109375,-1.3562544584274292,-0.6170057058334351,0.007773500867187977
1789620377016288800,4.466288818359375,-1.2913860082626343,-0.5429506301879883,-0.031867917627096176
1789620377026260700,4.4762607421875,-1.1999295949935913,-0.4688252806663513,-0.06914524734020233
1789620377036231700,4.486231689453125,-1.0871739387512207,-0.536918580532074,-0.0702613815665245
1789620377046203000,4.496202880859375,-1.0564438104629517,-0.5648370385169983,0.03978496417403221
1789620377056174800,4.5061748046875,-1.0379973649978638,-0.4771910607814789,0.12279489636421204
1789620377066145800,4.516145751953125,-0.8912489414215088,-0.07400365173816681,0.14659716188907623
1789620377076116700,4.52611669921875,-0.6250268816947937,0.3150367736816406,0.1796986609697342
1789620377086089000,4.5360888671875,-0.41438013315200806,0.3360768258571625,0.23268011212348938
1789620377096060000,4.546059814453125,-0.2966838777065277,0.21080411970615387,0.2823925316333771
1789620377106030600,4.556030517578125,-0.15648148953914642,0.20969517529010773,0.3307107985019684
1789620377116002800,4.5660029296875,-0.06138240173459053,0.3476879298686981,0.3763291537761688
1789620377125973800,4.575973876953125,-0.01248250249773264,0.524886965751648,0.3729991316795349
1789620377135945000,4.585945068359375,0.08610665798187256,0.6031622886657715,0.32989853620529175
1789620377145916700,4.595916748046875,0.143979012966156,0.549692690372467,0.3347151279449463
1789620377155887900,4.605887939453125,0.1848396211862564,0.33347997069358826,0.30720627307891846
1789620377165858800,4.61585888671875,0.3092963397502899,0.3653944730758667,0.19791893661022186
1789620377175830800,4.625830810546875,0.5229923725128174,0.5999132394790649,0.1926725059747696
1789620377185801700,4.6358017578125,0.6533969640731812,0.7106000781059265,0.2567122280597687
1789620377195773000,4.64577294921875,0.7610920071601868,0.8517886400222778,0.27123764157295227
1789620377205744600,4.65574462890625,0.9087443351745605,1.000105619430542,0.25850504636764526
1789620377215715800,4.6657158203125,0.9516470432281494,0.9454642534255981,0.2632896900177002
1789620377225686800,4.675686767578125,0.9688153862953186,0.8964714407920837,0.24158093333244324
1789620377235659000,4.685658935546875,1.0224733352661133,0.8580225706100464,0.19929605722427368
1789620377245629700,4.695629638671875,1.1058642864227295,0.8300577998161316,0.21054790914058685
1789620377255600600,4.7056005859375,1.243685007095337,0.849466860294342,0.3153417110443115
1789620377265572900,4.71557275390625,1.3617339134216309,0.9517444968223572,0.4679621458053589
1789620377275543800,4.725543701171875,1.3888778686523438,0.9023109078407288,0.48543620109558105
1789620377285514800,4.7355146484375,1.4208379983901978,0.6831343770027161,0.29809319972991943
1789620377295486700,4.74548681640625,1.5126166343688965,0.4883747398853302,0.12266387045383453
1789620377305458000,4.7554580078125,1.6752028465270996,0.49197879433631897,0.05766169726848602
1789620377315428600,4.7654287109375,1.7939351797103882,0.4991176724433899,0.07148696482181549
1789620377325400800,4.77540087890625,1.839920997619629,0.6276804208755493,0.11761291325092316
1789620377335371800,4.785371826171875,1.7742480039596558,0.8812040686607361,0.1409563273191452
1789620377345343000,4.795343017578125,1.7074934244155884,0.9812502264976501,0.04225531220436096
1789620377355314700,4.805314697265625,1.7501474618911743,0.8420830368995667,-0.08850643038749695
1789620377365286000,4.815285888671875,1.8960862159729004,0.7462095022201538,-0.11648400127887726
1789620377375256800,4.8252568359375,1.9621212482452393,0.778936505317688,-0.086672842502594
1789620377385228800,4.835228759765625,1.8380095958709717,0.876740574836731,-0.10445690155029297
1789620377395199700,4.84519970703125,1.7535208463668823,0.9792373776435852,-0.22520622611045837
1789620377405170700,4.855170654296875,1.8114912509918213,1.0137972831726074,-0.2974165081977844
1789620377415142700,4.865142578125,1.9123328924179077,0.933074951171875,-0.27471625804901123
1789620377425113600,4.875113525390625,1.938931941986084,0.7282440662384033,-0.28164979815483093
1789620377435084800,4.885084716796875,1.8040740489959717,0.5357803106307983,-0.3514222204685211
1789620377445056800,4.895056884765625,1.553375244140625,0.3592098355293274,-0.4039536118507385
1789620377455027700,4.90502783203125,1.4271800518035889,0.33310019969940186,-0.4178241491317749
1789620377464998700,4.91499853515625,1.4119150638580322,0.3845261037349701,-0.41538628935813904
1789620377474969900,4.924969970703125,1.399156093597412,0.4894498586654663,-0.4558596611022949
1789620377484941800,4.93494189453125,1.422383189201355,0.5189003944396973,-0.49028581380844116
1789620377494912800,4.944912841796875,1.3913359642028809,0.28667065501213074,-0.519280731678009
1789620377504883700,4.9548837890625,1.2730112075805664,0.11952026933431625,-0.4994223415851593
1789620377514856000,4.96485595703125,1.1556968688964844,0.20112085342407227,-0.46664440631866455
1789620377524827000,4.974826904296875,0.975588321685791,0.21265020966529846,-0.4054364562034607
1789620377534797800,4.9847978515625,0.8223588466644287,0.16114655137062073,-0.3821218013763428
1789620377544769800,4.994769775390625,0.8141190409660339,0.11146607249975204,-0.4348486661911011
1789620377554741000,5.004740966796875,0.8694371581077576,0.043713923543691635,-0.4345772862434387
1789620377564712000,5.0147119140625,0.9543341994285583,0.020371317863464355,-0.3416958153247833
1789620377574684000,5.024683837890625,0.9498699307441711,0.0014381069922819734,-0.2775317430496216
1789620377584654800,5.03465478515625,0.8082512617111206,0.03725336119532585,-0.3009451925754547
1789620377594625800,5.044625732421875,0.6554968953132629,0.15612542629241943,-0.35330188274383545
1789620377604597800,5.05459765625,0.5650473833084106,0.18477091193199158,-0.38288986682891846
1789620377614568700,5.064568603515625,0.5279644727706909,0.10923328250646591,-0.36710503697395325
1789620377624540000,5.074539794921875,0.5909477472305298,-0.02858796902000904,-0.3142673969268799
1789620377634511600,5.08451171875,0.6582865715026855,-0.2760443687438965,-0.24688221514225006
1789620377644482800,5.09448291015625,0.5594478249549866,-0.42161622643470764,-0.1947670876979828
1789620377654453800,5.104453857421875,0.4293321967124939,-0.2620108425617218,-0.13853071630001068
1789620377664425700,5.11442578125,0.3399224281311035,-0.32036468386650085,-0.08565738052129745
1789620377674396700,5.124396728515625,0.21722525358200073,-0.5536887645721436,-0.05643211677670479
1789620422204820200,49.6548203125,-0.1723049283027649,-0.6264545917510986,0.573606550693512
1789620422214791200,49.66479125976562,-0.236368328332901,-0.9408005475997925,0.6594716310501099
1789620422224762000,49.67476220703125,-0.32294049859046936,-1.0362721681594849,0.6843921542167664
1789620422234733000,49.68473315429687,-0.3914567232131958,-0.9985354542732239,0.6577594876289368
1789620422244704000,49.6947041015625,-0.45051389932632446,-0.814200222492218,0.6095831990242004
1789620422254675200,49.70467529296875,-0.49778953194618225,-0.6057772636413574,0.5507217645645142
1789620422264646100,49.71464624023437,-0.5423186421394348,-0.5025722980499268,0.476879745721817
1789620422274617000,49.7246171875,-0.6070854067802429,-0.545207679271698,0.3776620626449585
1789620422284588000,49.73458813476562,-0.6678326725959778,-0.6257128715515137,0.24743695557117462
1789620422294559200,49.744559326171874,-0.713020384311676,-0.5937467217445374,0.11934823542833328
1789620422304530200,49.7545302734375,-0.7421550750732422,-0.4513184428215027,0.02364620752632618
1789620422314501000,49.764501220703124,-0.7589154243469238,-0.29360151290893555,-0.048163000494241714
1789620422324472000,49.77447216796875,-0.7551878094673157,-0.19791601598262787,-0.10755708813667297
1789620422334443000,49.784443115234374,-0.7191879749298096,-0.2237156480550766,-0.16369971632957458
1789620422344414200,49.794414306640626,-0.6521980166435242,-0.3492288291454315,-0.21897388994693756
1789620422354385200,49.80438525390625,-0.5542975664138794,-0.4667091369628906,-0.26243481040000916
1789620422364356000,49.814356201171876,-0.4609047770500183,-0.5523023009300232,-0.2940446734428406
1789620422374327300,49.82432739257813,-0.3782639503479004,-0.6200041174888611,-0.32403266429901123
1789620422384298000,49.834298095703126,-0.2951514720916748,-0.6320837140083313,-0.35315459966659546
1789620422394269200,49.84426928710938,-0.21835577487945557,-0.5894659161567688,-0.3777068257331848
1789620422404240100,49.854240234375,-0.14383652806282043,-0.5453794598579407,-0.39888614416122437
1789620422414211000,49.86421118164063,-0.0916881114244461,-0.5038844347000122,-0.3893594741821289
1789620422424182300,49.87418237304688,-0.06582029163837433,-0.44674286246299744,-0.34368467330932617
1789620422434153000,49.88415307617188,-0.047383759170770645,-0.3757299482822418,-0.2680743336677551
1789620422444124200,49.89412426757813,-0.04096554219722748,-0.323038786649704,-0.17862780392169952
1789620422454095000,49.90409521484375,-0.048594966530799866,-0.2563233971595764,-0.0641973614692688
1789620422464066000,49.91406616210938,-0.0746726393699646,-0.11566162109375,0.08592183142900467
1789620422474037200,49.92403735351562,-0.11734739691019058,0.04981709271669388,0.25001171231269836
1789620422484008200,49.93400830078125,-0.1704617440700531,0.14895112812519073,0.39222076535224915
1789620422493979100,49.94397924804687,-0.21568621695041656,0.13586755096912384,0.4995112717151642
1789620422503950000,49.9539501953125,-0.2375132143497467,-0.018669825047254562,0.5618191361427307
1789620422513921000,49.96392114257812,-0.2341778725385666,-0.26300445199012756,0.5754939317703247
1789620422523892200,49.973892333984374,-0.2159472107887268,-0.49831071496009827,0.5433778166770935
1789620422533863200,49.98386328125,-0.21158522367477417,-0.621943473815918,0.4715443551540375
1789620422543834000,49.993834228515624,-0.23131364583969116,-0.5861718654632568,0.36428502202033997
1789620422553805000,50.00380517578125,-0.26319780945777893,-0.4430581331253052,0.25521498918533325
1789620422563776000,50.01377587890625,-0.30102136731147766,-0.2939661145210266,0.16021603345870972
1789620422573747200,50.023747314453125,-0.3359404504299164,-0.20588313043117523,0.10908147692680359
1789620422583718100,50.03371826171875,-0.36577558517456055,-0.19572874903678894,0.10451176017522812
1789620422593689000,50.043689208984375,-0.39383891224861145,-0.28149107098579407,0.12460797280073166
1789620422603660000,50.053659912109374,-0.43331387639045715,-0.4290219247341156,0.1544518917798996
1789620422613631000,50.063630859375,-0.4711267650127411,-0.574948251247406,0.18194343149662018
1789620422623602200,50.073602294921876,-0.5033771395683289,-0.7177528142929077,0.19394230842590332
1789620422633573000,50.083572998046876,-0.5207467675209045,-0.8647550344467163,0.17002978920936584
1789620422643544300,50.09354443359375,-0.5124409198760986,-0.9846090078353882,0.10873420536518097
1789620422653515000,50.103514892578126,-0.4832875728607178,-1.0410847663879395,0.020982246845960617
1789620422663486200,50.113486328125,-0.44246211647987366,-1.0198737382888794,-0.05890246480703354
1789620422673457200,50.12345703125,-0.40956008434295654,-0.9286975264549255,-0.110870860517025
1789620422683428000,50.13342797851563,-0.39888134598731995,-0.8228541612625122,-0.13033562898635864
1789620422693399300,50.1433994140625,-0.41953521966934204,-0.7437739968299866,-0.1281300038099289
1789620422703370000,50.15336987304688,-0.4587737023830414,-0.671781599521637,-0.10529659688472748
1789620422713341200,50.16334106445313,-0.5106464624404907,-0.5676607489585876,-0.05902816727757454
1789620422723312000,50.17331201171875,-0.5590425133705139,-0.4183969795703888,0.009531985968351364
1789620422733283000,50.18328295898438,-0.5960399508476257,-0.2628987431526184,0.0962463766336441
1789620422743254300,50.19325415039062,-0.6108998656272888,-0.1638544499874115,0.18902531266212463
1789620422753225200,50.20322509765625,-0.5983286499977112,-0.14040051400661469,0.29123157262802124
1789620422763196200,50.21319604492187,-0.5614603757858276,-0.18606388568878174,0.39915645122528076
1789620422773167000,50.2231669921875,-0.502403199672699,-0.29208698868751526,0.5073723793029785
1789620422783138000,50.23313793945312,-0.4431513249874115,-0.41764676570892334,0.5963488817214966
1789620422793109200,50.243109130859374,-0.39950239658355713,-0.519588828086853,0.6536630392074585
1789620422803080700,50.25308081054688,-0.36933302879333496,-0.6045508980751038,0.6720399260520935
1789620422813052000,50.26305200195313,-0.36472177505493164,-0.7112789154052734,0.644056499004364
1789620422823022800,50.27302294921875,-0.37590518593788147,-0.8217417597770691,0.5787888169288635
1789620422832994000,50.282994140625,-0.38984790444374084,-0.8688315153121948,0.5036886930465698
1789620422842965000,50.29296508789062,-0.39609354734420776,-0.8348568081855774,0.4459497928619385
1789620422852936000,50.30293603515625,-0.3866180181503296,-0.7244341373443604,0.42024949193000793
1789620422862907000,50.31290698242187,-0.3727477490901947,-0.5783213973045349,0.42273926734924316
1789620422872877800,50.3228779296875,-0.3585546910762787,-0.47101038694381714,0.44746485352516174
1789620422882849000,50.33284912109375,-0.35550376772880554,-0.4531773328781128,0.4870508909225464
1789620422892820000,50.34282006835937,-0.3517604470252991,-0.537733793258667,0.5248398184776306
1789620422902791000,50.352791015625,-0.35195350646972656,-0.7128294110298157,0.5382954478263855
1789620422912761900,50.36276196289062,-0.35353994369506836,-0.9327481985092163,0.521681547164917
1789620422922732800,50.37273291015625,-0.35464516282081604,-1.142956256866455,0.47763606905937195
1789620422932704000,50.3827041015625,-0.3572870194911957,-1.3158165216445923,0.40978699922561646
1789620422942675000,50.392675048828124,-0.35852566361427307,-1.4092308282852173,0.3293118476867676
1789620422952646100,50.402646240234375,-0.3543740510940552,-1.374442219734192,0.258825421333313
1789620422962616800,50.412616943359374,-0.3391532897949219,-1.193633794784546,0.21236738562583923
1789620422972587800,50.422587890625,-0.31955963373184204,-0.9046204090118408,0.18711316585540771
1789620422982559000,50.43255908203125,-0.3012477159500122,-0.5864086151123047,0.17537634074687958
1789620422992530000,50.442530029296876,-0.2946782410144806,-0.3127323389053345,0.1753672957420349
1789620423002501000,50.45250122070313,-0.2988695204257965,-0.11757190525531769,0.19317318499088287
1789620423012471800,50.462471923828126,-0.3088872730731964,0.003946538548916578,0.2331182062625885
1789620423022442800,50.47244287109375,-0.3212949335575104,0.07241108268499374,0.2723276615142822
1789620423032414000,50.4824140625,-0.3232843279838562,0.1445326805114746,0.28372466564178467
1789620423042385000,50.49238500976563,-0.327671080827713,0.15533259510993958,0.31857290863990784
1789620423052356000,50.50235620117188,-0.27967506647109985,0.07835152745246887,0.34619149565696716
1789620423062326800,50.51232690429688,-0.23514246940612793,0.016046345233917236,0.3588614761829376
1789620423072297700,50.522297607421876,-0.21373598277568817,-0.04249952360987663,0.36337634921073914
1789620423082269000,50.53226904296875,-0.1971290409564972,-0.11127166450023651,0.34931886196136475
1789620423092240000,50.54223999023438,-0.1817556768655777,-0.15323083102703094,0.33077073097229004
1789620423102211000,50.55221118164062,-0.17550337314605713,-0.16803693771362305,0.31648340821266174
1789620423112182000,50.56218212890625,-0.19166876375675201,-0.20904003083705902,0.2859601080417633
1789620423122152700,50.57215258789063,-0.23609694838523865,-0.28179359436035156,0.22323600947856903
1789620423132124000,50.5821240234375,-0.27372848987579346,-0.33327516913414,0.14173956215381622
1789620423142094800,50.5920947265625,-0.29848310351371765,-0.34110432863235474,0.04908392205834389
1789620423152066000,50.602066162109374,-0.3112929165363312,-0.29644525051116943,-0.053889065980911255
1789620423162037000,50.612037109375,-0.31158292293548584,-0.20687568187713623,-0.15724687278270721
1789620423172007700,50.62200756835937,-0.29900720715522766,-0.10279908031225204,-0.2528165578842163
1789620423181979000,50.63197875976562,-0.2809927761554718,-0.0417594313621521,-0.35262036323547363
1789620423191949800,50.64194970703125,-0.24546141922473907,-0.033907633274793625,-0.4328504800796509
1789620423201921000,50.651921142578125,-0.19858819246292114,-0.04139377921819687,-0.4953666031360626
1789620423211892000,50.66189208984375,-0.16135667264461517,-0.04131974279880524,-0.5634782910346985
1789620423221863000,50.67186279296875,-0.1255161166191101,-0.026930151507258415,-0.6559461355209351
1789620423231833900,50.681833740234374,-0.07857390493154526,-0.014150706119835377,-0.7493272423744202
1789620423241804800,50.6918046875,-0.020322581753134727,0.00009187905379803851,-0.8212466835975647
1789620423251776000,50.70177587890625,0.01714969240128994,0.01392859872430563,-0.8650719523429871
1789620423261747000,50.711746826171876,0.01050617080181837,-0.000060986389144090936,-0.8854861259460449
1789620423271718100,50.72171826171875,-0.02364807203412056,-0.04138152673840523,-0.8893924951553345
1789620423281688800,50.731688720703126,-0.06189931929111481,-0.0774090364575386,-0.8693873286247253
1789620423291659800,50.74165966796875,-0.09134802222251892,-0.06323542445898056,-0.817857027053833
1789620423301631000,50.751630859375,-0.1250966638326645,0.013383982703089714,-0.7049107551574707
1789620423311602000,50.76160180664063,-0.1527746319770813,0.13662096858024597,-0.5375478863716125
1789620423321573000,50.77157299804688,-0.15496587753295898,0.2647499144077301,-0.3391770124435425
1789620423331543800,50.78154370117188,-0.126104936003685,0.358864426612854,-0.13373516499996185
1789620423341514800,50.7915146484375,-0.07865912467241287,0.4041384160518646,0.06429003924131393
1789620423351486000,50.80148583984375,-0.010732006281614304,0.41834932565689087,0.2666785717010498
1789620423361457000,50.81145678710938,0.07027895748615265,0.37523168325424194,0.45950475335121155
1789620423371428000,50.82142797851562,0.14178483188152313,0.25152650475502014,0.6165547966957092
1789620423381399000,50.83139892578125,0.18974755704402924,0.05697433650493622,0.7129402160644531
1789620423391371000,50.84137109375,0.20207959413528442,-0.1346811205148697,0.7524554133415222
1789620423401342000,50.85134204101563,0.1633380651473999,-0.24453385174274445,0.7549848556518555
1789620423411313000,50.86131298828125,0.08540757745504379,-0.2432374209165573,0.728037416934967
1789620423421283800,50.87128393554688,-0.008960737846791744,-0.19215746223926544,0.6742282509803772
1789620423431254800,50.8812548828125,-0.1163492426276207,-0.1980065554380417,0.5803155899047852
1789620423441226000,50.89122607421875,-0.23809298872947693,-0.29212427139282227,0.44597429037094116
1789620423451197000,50.90119702148438,-0.35373544692993164,-0.40458741784095764,0.2800505757331848
1789620423461167900,50.91116796875,-0.43306541442871094,-0.4608120918273926,0.10546304285526276
1789620423471139000,50.92113916015625,-0.48964107036590576,-0.4365836977958679,-0.07337621599435806
1789620423481109800,50.93110986328125,-0.5334993600845337,-0.35543665289878845,-0.24449922144412994
1789620423491081000,50.9410810546875,-0.567339301109314,-0.23574940860271454,-0.40115806460380554
1789620423501052000,50.95105200195312,-0.6167910099029541,-0.13295724987983704,-0.5451088547706604
1789620423511022800,50.96102294921875,-0.6634246110916138,-0.08547095954418182,-0.6696782112121582
1789620423520994000,50.970994140625,-0.66849285364151,-0.05865798518061638,-0.7561044692993164
1789620423530964700,50.98096484375,-0.634418249130249,-0.043593283742666245,-0.8020732998847961
1789620423540936000,50.99093603515625,-0.5725072026252747,-0.07879707962274551,-0.8173262476921082
1789620423550907000,51.000906982421874,-0.4976215064525604,-0.1807713806629181,-0.8210983872413635
1789620423560877800,51.0108779296875,-0.4152661859989166,-0.3018757104873657,-0.8091282248497009
1789620423570849000,51.02084912109375,-0.32423773407936096,-0.3455853760242462,-0.7688202261924744
1789620423580820000,51.030820068359375,-0.23929354548454285,-0.2826055884361267,-0.6775843501091003
1789620423590791000,51.040791015625,-0.1706223338842392,-0.1509532928466797,-0.5487738847732544
1789620423600761900,51.050761962890626,-0.11208392679691315,0.0062365904450416565,-0.4098285436630249
1789620423610733000,51.06073315429688,-0.04995850473642349,0.13812218606472015,-0.2655387222766876
1789620423620704000,51.0707041015625,0.00830746442079544,0.23350995779037476,-0.09915001690387726
1789620423630675000,51.08067504882813,0.058447595685720444,0.26688095927238464,0.07848229259252548
1789620423640646000,51.09064599609375,0.06958040595054626,0.33264586329460144,0.30821695923805237
1789620423650616800,51.10061694335938,0.012810070998966694,0.258563369512558,0.5184029340744019
1789620423660588000,51.11058813476563,-0.013219399377703667,0.02785266935825348,0.6349703073501587
1789620423670559000,51.12055908203125,-0.031860195100307465,-0.11925023049116135,0.6964659094810486
1789620423680530000,51.13053002929688,-0.05837489292025566,-0.20843815803527832,0.7287402153015137
1789620423690500900,51.1405009765625,-0.06888186186552048,-0.25752100348472595,0.7015131115913391
1789620423700471800,51.15047192382813,-0.07223078608512878,-0.3029577434062958,0.6201522350311279
1789620423710443000,51.16044311523437,-0.07767881453037262,-0.3281683027744293,0.5167145133018494
1789620423720414000,51.1704140625,-0.09332275390625,-0.3212169110774994,0.4088932275772095
1789620423730385000,51.18038500976562,-0.13714399933815002,-0.3446391522884369,0.3223242461681366
1789620423740356000,51.19035620117187,-0.16279557347297668,-0.28976017236709595,0.2609924376010895
1789620423750326800,51.20032690429687,-0.23037435114383698,-0.18245795369148254,0.21985779702663422
