time,seconds_elapsed,z,y,x
1789022014778537200,0.204537109375,0,0,0
1789022014788462800,0.214462890625,0.10199642181396484,0.028573989868164062,-0.103415846824646
1789022014798388500,0.224388427734375,0.11820030212402344,0.06640434265136719,-0.1555863618850708
1789022014808314000,0.234314208984375,-0.02291393280029297,0.1320953369140625,-0.11374247074127197
1789022014818239700,0.24423974609375,-0.3415250778198242,0.22655463218688965,-0.05219990015029907
1789022014828165400,0.254165283203125,-0.7610054016113281,0.2859635353088379,0.09850305318832397
1789022014838091000,0.264091064453125,-1.0591421127319336,0.26299571990966797,0.1576695442199707
1789022014848016600,0.2740166015625,-1.188746452331543,0.1624448299407959,0.08277833461761475
1789022014857942300,0.2839423828125,-1.163325309753418,0.16316509246826172,-0.011744916439056396
1789022014867868000,0.293867919921875,-0.9246959686279297,0.2719759941101074,-0.31433165073394775
1789022014877793500,0.30379345703125,-0.5648422241210938,0.3215904235839844,-0.5048818588256836
1789022014887719000,0.313718994140625,-0.08308219909667969,0.2773716449737549,-0.5243371725082397
1789022014897644500,0.32364453125,0.4162616729736328,0.17886066436767578,-0.678432822227478
1789022014907570200,0.333570068359375,0.6576089859008789,0.04181385040283203,-0.6801100969314575
1789022014917495800,0.343495849609375,0.738062858581543,-0.12526845932006836,-0.3869943618774414
1789022014927421400,0.35342138671875,0.8479747772216797,-0.19691896438598633,-0.35899102687835693
1789022014937347000,0.36334716796875,0.7925214767456055,-0.21844172477722168,-0.3016219139099121
1789022014947272700,0.373272705078125,0.5027894973754883,-0.30020201206207275,-0.19650733470916748
1789022014957198300,0.3831982421875,0.15618896484375,-0.3499124050140381,-0.2605170011520386
1789022014967124000,0.3931240234375,0.07855796813964844,-0.2810075283050537,-0.3095574378967285
1789022014977049600,0.403049560546875,0.26168251037597656,-0.08341860771179199,-0.23933327198028564
1789022014986975200,0.412975341796875,0.5648469924926758,0.12323832511901855,-0.16553354263305664
1789022014996900900,0.42290087890625,0.8081455230712891,0.2161095142364502,-0.12383633852005005
1789022015006826500,0.432826416015625,1.0298690795898438,0.24015748500823975,-0.05363553762435913
1789022015016752000,0.442752197265625,1.3241767883300781,0.1584615707397461,-0.00015223026275634766
1789022015026677800,0.452677734375,1.6460304260253906,0.07524633407592773,0.13920044898986816
1789022015036603400,0.462603271484375,1.8530521392822266,-0.060097694396972656,0.24372422695159912
1789022015046529000,0.472529052734375,1.747056007385254,-0.1912539005279541,0.27808576822280884
1789022015056454700,0.48245458984375,1.3985157012939453,-0.1747438907623291,0.2807313799858093
1789022015066380300,0.49238037109375,0.8372669219970703,-0.346071720123291,0.26301679015159607
1789022015076306000,0.502305908203125,0.41385650634765625,-1.2464267015457153,0.3533763289451599
1789022015086231600,0.5122314453125,1.0669479370117188,-0.3120758533477783,-0.3519896864891052
1789022015096157200,0.5221572265625,-0.22844314575195312,-0.30842316150665283,0.08587327599525452
1789022015106082800,0.532082763671875,-0.8981246948242188,-0.2193450927734375,0.07630312442779541
1789022015116008400,0.542008544921875,-1.0890922546386719,-0.131508469581604,-0.2990453243255615
1789022015125934000,0.55193408203125,-1.0591049194335938,-0.2806422710418701,-0.5882505178451538
1789022015135859700,0.561859619140625,-0.8691921234130859,-0.60793137550354,-0.6806785464286804
1789022015145785600,0.57178564453125,-0.5802955627441406,-0.988489031791687,-0.7959117889404297
1789022015155711200,0.581711181640625,-0.2268075942993164,-1.2775697708129883,-0.8325879573822021
1789022015165636900,0.591636962890625,0.17544937133789062,-1.3743352890014648,-0.7889825701713562
1789022015175562500,0.6015625,0.7012500762939453,-1.1948261260986328,-0.698559582233429
1789022015185488000,0.61148779296875,1.0694866180419922,-0.7670955657958984,-0.5668642520904541
1789022015195413800,0.621413818359375,0.8445091247558594,-0.26355886459350586,-0.3092242479324341
1789022015205339400,0.63133935546875,0.9524908065795898,0.34901881217956543,0.005623608827590942
1789022015215265000,0.64126513671875,1.4046497344970703,0.7903413772583008,0.3603920042514801
1789022015225190700,0.651190673828125,1.666121482849121,0.7353806495666504,0.706114649772644
1789022015235116300,0.6611162109375,1.8140125274658203,0.6618263721466064,0.9258642196655273
1789022015245042000,0.6710419921875,1.6633729934692383,0.5505383014678955,1.1322648525238037
1789022015254967600,0.680967529296875,1.1573514938354492,0.5248582363128662,1.2861855030059814
1789022015264893200,0.69089306640625,0.4779520034790039,0.5165479183197021,1.4711930751800537
1789022015274818800,0.70081884765625,-0.7120151519775391,0.4348149299621582,1.321036458015442
1789022015284744400,0.710744384765625,-2.539875030517578,0.27687764167785645,0.9465185403823853
1789022015294670000,0.720670166015625,-3.158505916595459,0.154130220413208,0.3832858204841614
1789022015304595700,0.730595703125,-3.1658148765563965,-0.08807778358459473,-0.028722286224365234
1789022015314521600,0.740521484375,-3.038860321044922,-0.5857608318328857,-0.604187548160553
1789022015324447200,0.750447265625,-3.1432390213012695,-0.7334794998168945,-0.7762438654899597
1789022015334372900,0.760372802734375,-3.1735916137695312,-0.2992279529571533,-0.6308939456939697
1789022015344298500,0.770298583984375,-3.0901193618774414,0.09754419326782227,-0.4204365611076355
1789022015354224000,0.78022412109375,-2.6991543769836426,0.644660234451294,-0.007467448711395264
1789022015364149800,0.790149658203125,-2.2378950119018555,1.195063591003418,0.6298044919967651
1789022015374075400,0.800075439453125,-1.8348197937011719,1.4370369911193848,1.1221730709075928
1789022015384001000,0.8100009765625,-1.278778076171875,1.1570308208465576,1.4011075496673584
1789022015393927000,0.819927001953125,-0.7746896743774414,0.46477651596069336,1.4045484066009521
1789022015403852500,0.8298525390625,-0.5817279815673828,-0.39191246032714844,1.233489990234375
1789022015413778200,0.839778076171875,0.09407806396484375,-0.6622564792633057,0.9598711729049683
1789022015423703800,0.849703857421875,0.8565397262573242,-0.44037914276123047,1.175052523612976
1789022015433629400,0.85962939453125,1.1063575744628906,-0.22731900215148926,1.4479607343673706
1789022015443555000,0.86955517578125,1.402909278869629,-0.14784002304077148,1.8178898096084595
1789022015453480700,0.879480712890625,1.6235857009887695,-0.2698788642883301,2.2042572498321533
1789022015463406600,0.889406494140625,1.1157655715942383,-0.9016377925872803,2.3030786514282227
1789022015473332200,0.899332275390625,0.30044078826904297,-1.4646565914154053,2.2571988105773926
1789022015483257900,0.9092578125,-0.36464977264404297,-1.2967798709869385,1.637977123260498
1789022015493183500,0.91918359375,-1.9651641845703125,1.0816025733947754,-2.762528419494629
1789022015503109000,0.929109130859375,-2.9818530082702637,1.8100295066833496,-2.2897727489471436
1789022015513034800,0.93903466796875,-1.6748685836791992,-0.45332956314086914,0.02456831932067871
1789022015522960600,0.948960693359375,0.2820558547973633,-1.525059700012207,0.129591703414917
1789022015532886300,0.95888623046875,1.1388120651245117,-1.4355342388153076,0.06868290901184082
1789022015542812000,0.96881201171875,1.0668163299560547,-1.0088274478912354,0.9429409503936768
1789022015552737800,0.97873779296875,1.3356208801269531,-0.37514543533325195,1.7569737434387207
1789022015562663400,0.988663330078125,1.6564884185791016,0.2722806930541992,1.731562614440918
1789022015572589000,0.998589111328125,0.8367891311645508,0.29775285720825195,0.7955315113067627
1789022015582514700,1.0085146484375,-0.5285739898681641,-0.4029550552368164,-0.37790679931640625
1789022015592440300,1.0184404296875,-1.5085315704345703,-0.6071898937225342,-1.1660535335540771
1789022015602366200,1.0283662109375,-1.3490400314331055,-0.889068603515625,-1.0386552810668945
1789022015612291800,1.038291748046875,-1.0346884727478027,-0.6064896583557129,-0.6651854515075684
1789022015622217500,1.048217529296875,-0.7760000228881836,0.08404779434204102,-0.002786397933959961
1789022015632143000,1.05814306640625,-0.32111120223999023,0.2915511131286621,1.3024005889892578
1789022015642069000,1.068069091796875,-0.034618377685546875,0.330355167388916,2.6172847747802734
1789022015651994600,1.07799462890625,0.4681844711303711,0.25585460662841797,2.7921273708343506
1789022015661920300,1.087920166015625,0.26506900787353516,-0.304797887802124,2.415353298187256
1789022015671846100,1.09784619140625,-0.8019981384277344,-0.8972010612487793,2.0053529739379883
1789022015681771800,1.107771728515625,-2.221620559692383,-1.2752742767333984,1.892916202545166
1789022015691697400,1.117697509765625,-3.2702836990356445,-1.9513964653015137,2.49918270111084
1789022015701623000,1.127623046875,-3.6213626861572266,-3.1204545497894287,1.3086299896240234
1789022015711549000,1.137548828125,-3.8101401329040527,-3.164360523223877,0.4681377410888672
1789022015721474600,1.147474609375,-4.526621341705322,-3.1781649589538574,0.7130427360534668
1789022015731400200,1.157400146484375,-4.729747772216797,-2.9204158782958984,1.2509942054748535
1789022015741326000,1.167326171875,-3.994539737701416,-3.446906089782715,1.1677241325378418
1789022015751251700,1.177251708984375,-3.603787899017334,-3.578847646713257,0.8459644317626953
1789022015761177300,1.18717724609375,-3.176231861114502,-3.916782855987549,0.22513389587402344
1789022015771103000,1.19710302734375,-3.5627620220184326,-4.038080215454102,-1.1667437553405762
1789022015781028900,1.20702880859375,-4.516462326049805,-4.670996189117432,-2.216597557067871
1789022015790954500,1.21695458984375,-5.221024990081787,-5.151633262634277,-2.0367865562438965
1789022015800880400,1.22688037109375,-4.830874443054199,-5.0298566818237305,-1.9776983261108398
1789022015810806000,1.236805908203125,-3.702305793762207,-5.042664051055908,-2.1878867149353027
1789022015820731600,1.246731689453125,-2.4791359901428223,-5.213018417358398,-2.1466455459594727
1789022015830657500,1.256657470703125,-1.4816780090332031,-5.168483734130859,-1.7834796905517578
1789022015840583200,1.266583251953125,-0.7958638668060303,-4.759848594665527,-1.4368386268615723
1789022015850509000,1.276509033203125,-0.08162999153137207,-4.339893341064453,-0.34554576873779297
1789022015860434700,1.2864345703125,0.7569389343261719,-4.193624973297119,0.7299299240112305
1789022015870360300,1.2963603515625,1.3168659210205078,-4.0963664054870605,1.8011884689331055
1789022015880286200,1.3062861328125,2.1334805488586426,-3.6350419521331787,3.5332841873168945
1789022015890211800,1.3162119140625,3.509916067123413,-3.162782669067383,4.39997673034668
1789022015900137500,1.326137451171875,5.12148380279541,-2.538832187652588,5.179684638977051
1789022015910063400,1.3360634765625,6.444422245025635,-1.5991878509521484,6.378442764282227
1789022015919989000,1.345989013671875,7.403756618499756,-0.7622451186180115,6.829222679138184
1789022015929915000,1.355914794921875,7.539266586303711,-0.6460384130477905,5.924820899963379
1789022015939840500,1.365840576171875,7.3373565673828125,-0.9808331727981567,4.983766555786133
1789022015949766100,1.37576611328125,6.824449062347412,-1.2404217720031738,4.442432403564453
1789022015959692000,1.385692138671875,6.724181175231934,-1.0636838674545288,4.466089248657227
1789022015969617700,1.39561767578125,9.947652816772461,0.13905346393585205,4.309051513671875
1789022015979543300,1.405543212890625,10.152268409729004,0.36923015117645264,4.840704917907715
1789022015989469200,1.41546923828125,10.111936569213867,0.2767055034637451,4.298735618591309
1789022015999394800,1.425394775390625,8.849559783935547,0.5608060359954834,3.832900047302246
1789022016009320700,1.43532080078125,6.036797523498535,1.032414436340332,3.7261581420898438
1789022016019246300,1.445246337890625,4.020999431610107,1.3672412633895874,3.424300193786621
1789022016029172000,1.455171875,3.3174848556518555,1.2619457244873047,2.8800039291381836
1789022016039097900,1.465097900390625,3.153351306915283,1.245439052581787,2.2335329055786133
1789022016049023500,1.4750234375,2.472973585128784,1.755061149597168,2.2349748611450195
1789022016058949400,1.484949462890625,1.2668569087982178,1.6243518590927124,2.386873245239258
1789022016068875000,1.494875,1.5536391735076904,-0.131178617477417,0.9045181274414062
1789022016078801000,1.50480078125,0.2518928647041321,0.8764019012451172,0.8009634017944336
1789022016088726500,1.5147265625,0.31173035502433777,2.3361663818359375,2.0298261642456055
1789022016098652200,1.524652099609375,0.08808895200490952,-0.018193960189819336,0.8305196762084961
1789022016108578000,1.534578125,0.8533449172973633,-0.7320818901062012,0.27263450622558594
1789022016118503700,1.544503662109375,1.1508443355560303,0.1913442611694336,1.781881332397461
1789022016128429600,1.5544296875,-1.086402416229248,-0.619783878326416,1.3283271789550781
1789022016138355200,1.564355224609375,-0.005579322576522827,-1.3638849258422852,2.552825927734375
1789022016148281000,1.574281005859375,-0.7922478318214417,-0.9301908016204834,4.170409202575684
1789022016158206700,1.584206787109375,-4.3308515548706055,1.2146944999694824,6.741925239562988
1789022016168132400,1.59413232421875,-6.700528621673584,2.3263492584228516,8.7384672164917
1789022016178058200,1.604058349609375,-9.037179946899414,4.425990581512451,9.878938674926758
1789022016187984000,1.61398388671875,-11.271120071411133,5.135756015777588,9.35780143737793
1789022016197909800,1.62390966796875,-10.227362632751465,3.6941885948181152,7.588619232177734
1789022016207835400,1.63383544921875,-4.470813274383545,1.3492629528045654,6.854816436767578
1789022016217761300,1.64376123046875,0.5323863625526428,0.8777036666870117,6.660283088684082
1789022016227687000,1.65368701171875,0.18405240774154663,3.7558093070983887,6.664552688598633
1789022016237612800,1.66361279296875,-0.4261522591114044,-1.004645824432373,3.2987327575683594
1789022016247538400,1.673538330078125,-2.2582740783691406,0.10228109359741211,3.249722480773926
1789022016257464300,1.68346435546875,0.8894776105880737,-1.8243494033813477,3.1002235412597656
1789022016267390000,1.693389892578125,10.306329727172852,-2.151562213897705,1.841292381286621
1789022016277315600,1.703315673828125,-4.484079360961914,1.5314199924468994,2.6032333374023438
1789022016287241500,1.713241455078125,-8.742682456970215,0.9000561237335205,1.9586734771728516
1789022016339210500,1.76521044921875,-5.63572359085083,-0.6853222846984863,-3.674281120300293
1789022016349136100,1.77513623046875,-3.9325666427612305,2.5218381881713867,-1.9336276054382324
1789022016359062000,1.78506201171875,-1.3485335111618042,1.386281967163086,-0.21383285522460938
1789022016368987600,1.794987548828125,2.5551257133483887,1.051302433013916,2.4557981491088867
1789022016378913500,1.80491357421875,-5.710573673248291,3.692521095275879,1.2898836135864258
1789022016388839200,1.814839111328125,-6.322700500488281,3.870314836502075,-0.07493782043457031
1789022016398765000,1.82476513671875,-3.2995657920837402,3.384773015975952,-2.1991238594055176
1789022016408690700,1.834690673828125,-1.3721543550491333,2.9619603157043457,-2.543687343597412
1789022016418616600,1.844616455078125,-4.662494659423828,5.335405349731445,-0.9573392868041992
1789022016428542200,1.854542236328125,-2.4396250247955322,5.899256706237793,-0.47910022735595703
1789022016438468000,1.864468017578125,-0.7913352251052856,5.182987689971924,-2.19173002243042
1789022016448393700,1.874393798828125,0.37759917974472046,4.886203765869141,-3.109118938446045
1789022016458319600,1.884319580078125,0.501130998134613,4.63845682144165,-3.291078567504883
1789022016468245200,1.894245361328125,-1.1492602825164795,4.0355963706970215,-3.2811365127563477
1789022016478171100,1.904171142578125,-0.8367581367492676,4.4307451248168945,-2.2177786827087402
1789022016488096800,1.9140966796875,-1.9502995014190674,3.502551794052124,-2.7067604064941406
1789022016498022700,1.924022705078125,-1.172318696975708,3.590768575668335,-1.3515629768371582
1789022016507948300,1.9339482421875,-0.2533184885978699,3.5086190700531006,0.03357887268066406
1789022016517874200,1.943874267578125,-0.801620602607727,2.825467348098755,-0.2485647201538086
1789022016527799800,1.9537998046875,0.20262646675109863,2.8486886024475098,0.7084445953369141
1789022016537725700,1.9637255859375,1.9149943590164185,3.4250268936157227,3.094898223876953
1789022016547651300,1.9736513671875,2.1659650802612305,2.8593318462371826,0.6442661285400391
1789022016557577200,1.9835771484375,3.146946668624878,2.06575345993042,-0.46108531951904297
1789022016567503000,1.993503173828125,1.7037837505340576,4.520648002624512,2.464735984802246
1789022016577428700,2.0034287109375,-5.481902122497559,2.0024333000183105,-2.662097930908203
1789022016587354600,2.013354736328125,-2.3532252311706543,2.3060600757598877,-3.2283401489257812
1789022016597280300,2.0232802734375,-3.839266300201416,2.1581156253814697,-4.349637508392334
1789022016607206100,2.0332060546875,-3.090101957321167,6.8346757888793945,-0.996943473815918
1789022016617131800,2.0431318359375,2.5816259384155273,4.2088446617126465,-3.543527603149414
1789022016627057700,2.0530576171875,-7.2232513427734375,-4.028915882110596,-13.295899391174316
1789022016636983300,2.0629833984375,-4.444408416748047,5.007604598999023,-3.3917431831359863
1789022016646909200,2.0729091796875,-3.772061586380005,-0.9567868709564209,-5.703098297119141
1789022016656835000,2.0828349609375,-6.850024223327637,4.046019554138184,-4.828213691711426
1789022016666760700,2.0927607421875,-6.193698406219482,0.1642007827758789,-2.4792532920837402
1789022016676686600,2.1026865234375,0.12524175643920898,4.65065860748291,1.707606315612793
1789022016686612200,2.1126123046875,8.830489158630371,-9.01298713684082,-3.287358283996582
1789022016696538000,2.1225380859375,-2.1453323364257812,-3.652653932571411,1.1320343017578125
1789022016706463700,2.132463623046875,-2.891369104385376,-4.617743015289307,6.3732805252075195
1789022016716389600,2.1423896484375,-2.935807466506958,-7.049839973449707,6.827239036560059
1789022016726315500,2.1523154296875,2.3752248287200928,-7.824684143066406,8.480361938476562
1789022016736241200,2.1622412109375,1.8943372964859009,-10.491691589355469,4.139638900756836
1789022016746167000,2.1721669921875,-0.36723804473876953,-5.986496448516846,2.7417211532592773
1789022016756092700,2.1820927734375,2.820626974105835,-12.061235427856445,-0.060898780822753906
1789022016766018600,2.1920185546875,1.1995530128479004,-11.05480670928955,1.978677749633789
1789022016775944400,2.2019443359375,-0.7091965675354004,-7.221381187438965,4.564126014709473
1789022016785870000,2.2118701171875,-0.43116307258605957,-7.778420448303223,4.108154296875
1789022016795796000,2.2217958984375,0.24326848983764648,-7.356350898742676,4.183582305908203
1789022016805721900,2.231721923828125,0.8045934438705444,-7.117501258850098,3.375697135925293
1789022016815647500,2.2416474609375,1.680834174156189,-7.4578142166137695,2.101499557495117
1789022016825573400,2.251573486328125,0.09106183052062988,-6.9268388748168945,0.7519712448120117
1789022016835499000,2.2614990234375,-0.6048388481140137,-6.433689117431641,1.079874038696289
1789022016845425000,2.2714248046875,0.15909814834594727,-5.410034656524658,1.756967544555664
1789022016855350800,2.281350830078125,-0.4297628402709961,-4.822319030761719,1.8331890106201172
1789022016865276400,2.2912763671875,1.8432254791259766,-5.1072187423706055,1.4722099304199219
1789022016875202300,2.301202392578125,0.9325354695320129,-1.8472931385040283,3.8393259048461914
1789022016885128200,2.311128173828125,-0.924909234046936,-2.365450382232666,2.714573860168457
1789022016895053800,2.3210537109375,-0.16869711875915527,-2.8486502170562744,-0.5823087692260742
1789022016904979700,2.330979736328125,5.1424641609191895,-8.52685832977295,-2.7875685691833496
1789022016914905600,2.340905517578125,-5.344821929931641,3.506740093231201,-0.47391700744628906
1789022016924831200,2.350831298828125,-5.338493824005127,3.415071725845337,3.013278007507324
1789022016934757000,2.360757080078125,-5.291414260864258,1.0396947860717773,-4.058629035949707
1789022016944682800,2.370682861328125,-1.7162411212921143,3.2479336261749268,-5.43032693862915
1789022016954608600,2.380608642578125,-7.482571125030518,6.967792510986328,-3.28053617477417
1789022016964534500,2.390534423828125,-3.45341420173645,9.849889755249023,-6.270934581756592
1789022016974460400,2.40046044921875,-3.983527660369873,12.59607219696045,-4.021762371063232
1789022016984386000,2.410385986328125,-1.5584040880203247,11.565630912780762,-5.891141891479492
1789022016994312000,2.42031201171875,-2.5902137756347656,15.515153884887695,-5.042680263519287
1789022017004237800,2.43023779296875,-4.829820156097412,15.490532875061035,-4.661866664886475
1789022017014163500,2.44016357421875,-3.445122241973877,13.633468627929688,-7.249936103820801
1789022017024089300,2.45008935546875,-4.669843673706055,13.937398910522461,-6.935464859008789
1789022017034015200,2.46001513671875,-1.508141040802002,11.50802993774414,-6.930071830749512
1789022017043940900,2.46994091796875,-8.156654357910156,13.84100341796875,-4.8161468505859375
1789022017053866800,2.47986669921875,-3.39420223236084,8.185159683227539,-0.9940395355224609
1789022017063792600,2.489792724609375,-8.754556655883789,7.237202167510986,-5.059258460998535
1789022017073718300,2.49971826171875,-4.253564357757568,5.911179542541504,0.5183095932006836
1789022017083644200,2.50964404296875,-0.5360593795776367,-0.9574389457702637,0.29624366760253906
1789022017093570000,2.519570068359375,1.167864441871643,-9.703991889953613,9.330739974975586
1789022017103495700,2.52949560546875,-7.196527481079102,-7.540153980255127,9.796635627746582
1789022017113421600,2.539421630859375,-4.496718406677246,-10.137493133544922,2.8614282608032227
1789022017123347500,2.549347412109375,8.323099136352539,-15.30113697052002,3.1656274795532227
1789022017133273300,2.5592734375,5.278012275695801,-15.26767635345459,8.147541999816895
1789022017143199000,2.569198974609375,3.5757181644439697,-15.285148620605469,8.628520965576172
1789022017153124900,2.579124755859375,2.3040106296539307,-15.05479907989502,5.347186088562012
1789022017163050800,2.58905078125,0.6248884201049805,-13.72732162475586,3.0556211471557617
1789022017172976400,2.598976318359375,-0.7928967475891113,-11.237837791442871,0.07061195373535156
1789022017182902300,2.60890234375,1.910736083984375,-10.626216888427734,-1.8226537704467773
1789022017192828200,2.618828125,2.1424264907836914,-11.091094970703125,-4.183566570281982
1789022017202753800,2.62875390625,0.3927724361419678,-12.797775268554688,-8.405142784118652
1789022017212679700,2.6386796875,1.177992582321167,-14.069770812988281,-14.230989456176758
1789022017222605600,2.64860546875,4.957540512084961,-14.903007507324219,-16.050748825073242
1789022017232531500,2.658531494140625,10.68154239654541,-13.782604217529297,-15.000591278076172
1789022017242457000,2.66845703125,13.722236633300781,-15.806398391723633,-21.526527404785156
1789022017252383000,2.678383056640625,14.064915657043457,-13.057636260986328,-10.391901016235352
1789022017262308900,2.688308837890625,12.909425735473633,-10.404913902282715,-2.898799419403076
1789022017272234800,2.69823486328125,2.9330215454101562,31.260953903198242,73.17977142333984
1789022017282160400,2.708160400390625,-14.216036796569824,20.453580856323242,38.818626403808594
1789022017292086300,2.718086181640625,-4.886559963226318,3.924699544906616,9.290752410888672
1789022017302012200,2.72801220703125,2.401329517364502,10.792523384094238,9.485977172851562
1789022017311938000,2.73793798828125,-4.075663089752197,13.819275856018066,11.758756637573242
1789022017321863700,2.74786376953125,-6.721467018127441,13.130359649658203,7.542834758758545
1789022017331789600,2.75778955078125,-8.321776390075684,13.674456596374512,5.9564385414123535
1789022017341715500,2.767715576171875,-7.8178887367248535,13.984164237976074,3.4928436279296875
1789022017351641000,2.77764111328125,-7.417198181152344,13.203774452209473,1.4292960166931152
1789022017361567000,2.78756689453125,-6.091880798339844,7.692394733428955,-1.7100400924682617
1789022017371492900,2.797492919921875,-1.7566648721694946,17.187637329101562,3.121201515197754
1789022017381418800,2.807418701171875,-6.991635322570801,15.810083389282227,1.5070233345031738
1789022017391344600,2.8173447265625,-5.398529052734375,7.3362579345703125,2.0007925033569336
1789022017401270300,2.827270263671875,2.615384817123413,1.589554786682129,-3.9202213287353516
1789022017411196200,2.837196044921875,4.357321262359619,0.3041234016418457,2.8018851280212402
1789022017421122000,2.8471220703125,0.41443920135498047,-6.701595783233643,1.4427828788757324
1789022017431048000,2.8570478515625,2.877837896347046,-6.087314128875732,-2.467237949371338
1789022017440973600,2.8669736328125,-0.44646453857421875,19.753360748291016,4.829657554626465
1789022017450899500,2.8768994140625,-3.4205212593078613,-18.479209899902344,12.864030838012695
1789022017460825300,2.886825439453125,19.556800842285156,-22.520811080932617,-10.414369583129883
1789022017470751200,2.896751220703125,-3.981921672821045,-11.858537673950195,-10.98689079284668
1789022017480676900,2.9066767578125,-1.6524367332458496,-13.116165161132812,-5.194311141967773
1789022017490602800,2.916602783203125,-2.556774854660034,-15.024639129638672,-8.62728500366211
1789022017500528600,2.926528564453125,-1.5009572505950928,-13.957502365112305,-9.081924438476562
1789022017510454500,2.93645458984375,-0.8808925151824951,-11.672800064086914,-5.19835090637207
1789022017520380200,2.946380126953125,0.2086472511291504,-7.534428119659424,-1.589932918548584
1789022017530306000,2.95630615234375,0.6448719501495361,-7.107766628265381,0.014706134796142578
1789022017540232000,2.96623193359375,0.4504561424255371,-5.397763729095459,1.4681901931762695
1789022017550157800,2.97615771484375,-0.7629294395446777,-2.2686767578125,-2.8512020111083984
1789022017560083700,2.986083740234375,-1.8137309551239014,-3.298086643218994,0.42055654525756836
1789022017570009300,2.99600927734375,-2.6016228199005127,-1.2216382026672363,-2.3053383827209473
1789022017579935200,3.005935302734375,2.8062851428985596,6.175626754760742,-3.51839542388916
1789022017589861000,3.015861083984375,-0.3575265407562256,5.086296558380127,0.885901927947998
1789022017599787000,3.025787109375,-6.714468955993652,3.889402389526367,4.343053817749023
1789022017609713000,3.035712890625,-5.692755699157715,3.2056095600128174,2.5070343017578125
1789022017619638500,3.045638427734375,-2.292898416519165,-0.8243007659912109,-0.4752063751220703
1789022017629564400,3.055564453125,0.6450469493865967,2.795027017593384,1.8257970809936523
1789022017639490300,3.065490234375,0.8784165382385254,3.8744313716888428,3.5144267082214355
1789022017649416200,3.075416259765625,-0.22455573081970215,-1.6824698448181152,0.47400999069213867
1789022017659341800,3.085341796875,-0.5299293994903564,-1.7537202835083008,-0.3840174674987793
1789022017669267700,3.095267822265625,1.448401689529419,2.6896731853485107,3.65487003326416
1789022017679193600,3.105193603515625,1.8775639533996582,3.7562923431396484,2.1549806594848633
1789022017689119500,3.115119384765625,1.3381574153900146,2.4016895294189453,0.29218482971191406
1789022017699045400,3.12504541015625,-5.8365888595581055,-1.4090538024902344,-0.3210301399230957
1789022017708971000,3.134970947265625,-3.9880216121673584,0.6035251617431641,-1.4391322135925293
1789022017718897000,3.14489697265625,-3.8332576751708984,4.649301528930664,-4.3193511962890625
1789022017728822800,3.15482275390625,0.30141735076904297,17.448501586914062,-10.107234001159668
1789022017738748700,3.164748779296875,2.216834545135498,28.737699508666992,-7.273768424987793
1789022017748674600,3.174674560546875,-4.479351043701172,27.236251831054688,-4.740077018737793
1789022017758600200,3.18460009765625,-8.716667175292969,25.203054428100586,-5.378092288970947
1789022017768526000,3.194526123046875,3.641472101211548,14.576032638549805,-8.458660125732422
1789022017778452000,3.204451904296875,-1.357978105545044,6.920099258422852,-7.710567474365234
1789022017788377900,3.2143779296875,6.875253677368164,7.763564109802246,-8.15380859375
1789022017798303700,3.2243037109375,3.3394570350646973,-3.1032795906066895,-11.415877342224121
1789022017808229400,3.2342294921875,0.5531566143035889,-3.4858145713806152,-4.8730034828186035
1789022017818155300,3.2441552734375,-5.862198829650879,-31.62991714477539,3.8108177185058594
1789022017828081200,3.2540810546875,5.157444953918457,-34.279884338378906,15.370187759399414
1789022017838007000,3.264007080078125,-8.953388214111328,-32.90059280395508,16.450389862060547
1789022017847933000,3.273932861328125,0.6430716514587402,-3.630168914794922,9.754495620727539
1789022017857858600,3.283858642578125,2.227867841720581,-14.270885467529297,9.740324974060059
1789022017867784400,3.293784423828125,-3.457253932952881,-18.399185180664062,-0.3485145568847656
1789022017877710300,3.30371044921875,-6.977392196655273,-10.355676651000977,-0.6548118591308594
1789022017887636200,3.31363623046875,-2.8224308490753174,-4.417733669281006,0.780799388885498
1789022017897562000,3.32356201171875,-0.1547374725341797,-2.750345230102539,1.5491547584533691
1789022017907488000,3.333488037109375,-0.08180403709411621,-3.617666721343994,1.9698476791381836
1789022017917413600,3.34341357421875,-1.0713989734649658,-1.6259183883666992,0.4632444381713867
1789022017927339500,3.353339599609375,-1.6334729194641113,-0.33963823318481445,-0.6262946128845215
1789022017937265400,3.363265380859375,-1.7329952716827393,-0.6461715698242188,-0.921025276184082
1789022017947191300,3.37319140625,-2.5533549785614014,0.9915175437927246,-1.2140893936157227
1789022017957117000,3.383116943359375,-2.6555676460266113,2.2228586673736572,-1.0128183364868164
1789022017967042800,3.393042724609375,-1.5338191986083984,3.4159553050994873,-1.6862564086914062
1789022017976968700,3.40296875,0.23239374160766602,2.776522159576416,-1.6935296058654785
1789022017986894600,3.41289453125,-0.36720919609069824,1.60009765625,-1.5133671760559082
1789022017996820500,3.422820556640625,-2.0333592891693115,0.3684549331665039,-1.3190526962280273
1789022018006746400,3.432746337890625,-1.9331400394439697,-0.387753963470459,-0.5663862228393555
1789022018016672000,3.442672119140625,0.11227536201477051,-0.8094367980957031,-0.48506832122802734
1789022018026598000,3.452597900390625,1.3660235404968262,-1.417039394378662,-2.0823416709899902
1789022018036523800,3.462523681640625,-0.4526488780975342,-1.4780187606811523,-2.593928337097168
1789022018046449700,3.47244970703125,-1.9946801662445068,-1.705927848815918,-2.389984130859375
1789022018056375600,3.48237548828125,-1.6298720836639404,-1.8847088813781738,-1.0985126495361328
1789022018066301400,3.492301513671875,0.34572935104370117,-1.811582088470459,-0.6578407287597656
1789022018076227000,3.50222705078125,1.4995498657226562,-1.1321368217468262,-1.1699538230895996
1789022018086153000,3.512153076171875,-0.24125456809997559,-0.43132734298706055,-1.2550206184387207
1789022018096078800,3.522078857421875,-0.7760913372039795,-0.020350933074951172,0.02197122573852539
1789022018106004700,3.532004638671875,-0.13866424560546875,-0.18538236618041992,0.48434019088745117
1789022018115930600,3.5419306640625,-0.24066615104675293,-0.29347801208496094,0.8162403106689453
1789022018125856300,3.551856201171875,-0.4681532382965088,-0.4790315628051758,0.8957786560058594
1789022018135782100,3.5617822265625,-1.5240278244018555,-0.7110896110534668,1.0508055686950684
1789022018145708000,3.5717080078125,-1.9252753257751465,-0.5632290840148926,1.4423117637634277
1789022018155634000,3.581634033203125,-1.5362193584442139,-0.5151638984680176,1.2179651260375977
1789022018165559800,3.591559814453125,-1.756157398223877,-0.012355327606201172,0.9817748069763184
1789022018175485700,3.601485595703125,-0.9738647937774658,-0.37666940689086914,0.03590059280395508
1789022018185411300,3.611411376953125,-1.6628773212432861,-0.8468551635742188,-0.38999176025390625
1789022018195337200,3.621337158203125,-2.2561473846435547,-0.5475106239318848,0.28521013259887695
1789022018205263000,3.63126318359375,-2.213862895965576,-1.1079645156860352,0.43578100204467773
1789022018215189000,3.64118896484375,-2.5869579315185547,-1.7411408424377441,0.6789932250976562
1789022018225115000,3.651114990234375,-2.7563836574554443,-2.7181591987609863,0.7221684455871582
1789022018235040800,3.661040771484375,-4.291721343994141,-2.7855567932128906,1.6533050537109375
1789022018244966400,3.67096630859375,-4.454367637634277,-2.429957866668701,1.9507942199707031
1789022018254892300,3.680892333984375,-2.729966640472412,-1.7026691436767578,1.9427127838134766
1789022018264818200,3.690818115234375,-0.8801777362823486,-1.123927116394043,1.8277602195739746
1789022018274744000,3.700744140625,0.7261171340942383,-0.3971590995788574,1.6198797225952148
1789022018284670000,3.710669921875,1.9185489416122437,0.0854196548461914,1.3993616104125977
1789022018294595800,3.720595947265625,2.2390084266662598,0.16137027740478516,0.8555231094360352
1789022018304521700,3.730521728515625,1.6678694486618042,0.06908369064331055,0.8819561004638672
1789022018314447400,3.740447265625,1.5329526662826538,0.3786940574645996,0.6553106307983398
1789022018324373200,3.750373291015625,-0.03743886947631836,0.4126710891723633,0.4776926040649414
1789022018334299100,3.760299072265625,-2.0897066593170166,-0.5080580711364746,0.2194042205810547
1789022018344225000,3.77022509765625,-3.963862895965576,-1.646801471710205,0.3681049346923828
1789022018354151000,3.78015087890625,-4.153634548187256,-2.1508450508117676,0.6087675094604492
1789022018364076800,3.790076904296875,-3.512122869491577,-1.4940505027770996,1.3217382431030273
1789022018374002700,3.800002685546875,-3.274057388305664,-0.29156970977783203,2.706636428833008
1789022018383928300,3.80992822265625,-2.769554853439331,0.5627262592315674,3.222116470336914
1789022018393854200,3.819854248046875,-1.685030460357666,0.9515199661254883,3.2881650924682617
1789022018403780000,3.829780029296875,0.5133135318756104,0.8109967708587646,2.9789161682128906
1789022018413706000,3.8397060546875,4.270845890045166,0.10991168022155762,2.2068471908569336
1789022018423632000,3.8496318359375,4.641231536865234,-0.030668973922729492,1.234736442565918
1789022018433557800,3.859557861328125,1.8997784852981567,0.6577677726745605,1.1325578689575195
1789022018443483400,3.8694833984375,-2.178260326385498,1.121246337890625,1.076913833618164
1789022018453409300,3.8794091796875,-7.141848564147949,0.3167269229888916,0.13399791717529297
1789022018463335200,3.889335205078125,-9.424046516418457,-0.457805871963501,0.32315635681152344
1789022018473261000,3.899260986328125,-5.7019548416137695,-1.1763067245483398,1.1148004531860352
1789022018483187000,3.90918701171875,0.7876298427581787,-2.402553081512451,0.8031930923461914
1789022018493112800,3.91911279296875,4.152945041656494,-2.4836509227752686,0.14438343048095703
1789022018503038700,3.929038818359375,3.869852304458618,-2.143582820892334,-0.7318639755249023
1789022018512964400,3.93896435546875,1.3046362400054932,-1.919154405593872,-0.9171237945556641
1789022018522890200,3.94889013671875,-1.7499651908874512,-1.7180089950561523,-0.34343433380126953
1789022018532816100,3.958816162109375,-3.541482448577881,-2.757657527923584,-0.4069833755493164
1789022018542742000,3.968741943359375,-2.687295913696289,-2.7410459518432617,-0.060568809509277344
1789022018552668000,3.97866796875,0.5597913265228271,-2.4355907440185547,-0.14377403259277344
1789022018562593800,3.98859375,3.4036293029785156,-2.250023126602173,-1.1742982864379883
1789022018572519700,3.998519775390625,3.5634803771972656,-2.1280221939086914,-2.1077795028686523
1789022018582445600,4.008445556640625,1.4631109237670898,-2.1639277935028076,-2.394017219543457
1789022018592371200,4.01837109375,-1.370640754699707,-0.9497140645980835,-1.5840940475463867
1789022018602297000,4.028297119140625,-1.5849714279174805,-0.6152868270874023,-1.745110034942627
1789022018612223000,4.038222900390625,0.6932039260864258,-1.8984068632125854,-2.5515942573547363
1789022018622148900,4.04814892578125,3.213921546936035,-2.2252984046936035,-2.7424373626708984
1789022018632074800,4.05807470703125,3.9835400581359863,-2.7992753982543945,-4.0231099128723145
1789022018642000600,4.068000732421875,1.8047668933868408,-0.7567737102508545,-2.589158058166504
1789022018651926500,4.077926513671875,0.410402774810791,1.7414785623550415,-0.5569591522216797
1789022018661852400,4.087852294921875,0.9484090805053711,-0.2833796739578247,-2.800278663635254
1789022018671778300,4.0977783203125,2.6891226768493652,-1.179248332977295,-3.15385103225708
1789022018681704000,4.107703857421875,3.412862777709961,-1.234604835510254,-4.006072044372559
1789022018691629800,4.1176298828125,1.9832627773284912,-0.16791307926177979,-4.114757537841797
1789022018701555700,4.1275556640625,1.042698621749878,0.40859800577163696,-3.7440595626831055
1789022018711481600,4.137481689453125,3.014064073562622,-0.5017764568328857,-4.939332962036133
1789022018721407500,4.147407470703125,3.531550407409668,-0.9003571271896362,-5.666018962860107
1789022018731333400,4.15733349609375,2.3966221809387207,-0.9131331443786621,-5.521225929260254
1789022018741259300,4.16725927734375,0.29013681411743164,0.6049829721450806,-3.662776470184326
1789022018751185000,4.177184814453125,0.25885438919067383,1.2819486856460571,-4.030584335327148
1789022018761110800,4.18711083984375,1.240328311920166,1.589563012123108,-4.5434250831604
1789022018771036700,4.19703662109375,2.706404209136963,1.066547155380249,-5.172877788543701
1789022018780962600,4.206962646484375,1.8129000663757324,0.5790421366691589,-4.595287322998047
1789022018790888400,4.216888427734375,0.023183822631835938,0.4627559185028076,-2.623229503631592
1789022018800814300,4.226814453125,-0.9425935745239258,0.39727306365966797,-1.7079167366027832
1789022018810740200,4.236740234375,-1.7180089950561523,0.6729907989501953,-0.9457721710205078
1789022018820666000,4.246666015625,-0.864985466003418,0.8807013034820557,-0.3885774612426758
1789022018830592000,4.256592041015625,1.1484146118164062,0.30088603496551514,-1.287510871887207
1789022018840518000,4.266517822265625,1.656597375869751,-0.6063733100891113,-2.12563419342041
1789022018850443500,4.276443603515625,0.9782037734985352,-0.8114030361175537,-1.8276324272155762
1789022018860369400,4.286369384765625,-0.02642965316772461,-0.09757137298583984,-1.6403398513793945
1789022018870295300,4.29629541015625,-0.9078712463378906,0.8023265600204468,-1.194681167602539
1789022018880221200,4.30622119140625,-0.16656923294067383,1.36296808719635,-0.7890591621398926
1789022018890147000,4.31614697265625,0.6292634010314941,1.4107028245925903,-1.3465533256530762
1789022018900073000,4.326072998046875,-0.46732378005981445,1.7234580516815186,-1.2980399131774902
1789022018909998800,4.335998779296875,-0.5719575881958008,0.8774945735931396,-1.3360610008239746
1789022018919924700,4.3459248046875,0.468355655670166,-1.1266279220581055,-0.457033634185791
1789022018929850400,4.355850341796875,-1.4581971168518066,-1.964336633682251,2.785956382751465
1789022018939776300,4.3657763671875,-2.9316160678863525,-0.956484317779541,5.070686340332031
1789022018949702100,4.3757021484375,-3.8988094329833984,-0.5049822330474854,4.124890327453613
1789022018959628000,4.3856279296875,-2.8850066661834717,-0.639453649520874,3.1242904663085938
1789022018969554000,4.395553955078125,-0.7288503646850586,-1.4586050510406494,0.919346809387207
1789022018979479800,4.405479736328125,-0.44352197647094727,-1.2435483932495117,-0.0062847137451171875
1789022018989405700,4.41540576171875,-1.9664363861083984,0.23487162590026855,0.5535945892333984
1789022018999331600,4.42533154296875,-1.7342662811279297,1.6075539588928223,0.8840770721435547
1789022019009257500,4.435257568359375,0.35135507583618164,1.4354872703552246,-0.16001224517822266
1789022019019183400,4.445183349609375,2.01432466506958,1.0309128761291504,-0.9629101753234863
1789022019029109200,4.455109130859375,2.2513034343719482,0.5325860977172852,-1.3182868957519531
1789022019039035000,4.465034912109375,-0.19178271293640137,1.1660339832305908,-0.3124275207519531
1789022019048960800,4.474960693359375,-1.3082666397094727,1.4483728408813477,0.10512495040893555
1789022019058886700,4.48488671875,-1.9421029090881348,0.22380781173706055,-0.03278160095214844
1789022019068812500,4.4948125,-2.219914674758911,-0.6074519157409668,0.6028308868408203
1789022019078738400,4.504738525390625,-0.19609546661376953,-1.3561034202575684,0.833366870880127
1789022019088664300,4.514664306640625,0.8655452728271484,-2.037419319152832,0.6234440803527832
1789022019098590200,4.524590087890625,-0.4470663070678711,-2.319525718688965,0.40102529525756836
1789022019108516000,4.53451611328125,-0.6664552688598633,-2.160085678100586,0.15905427932739258
1789022019118441700,4.544441650390625,-1.3046338558197021,-1.9063796997070312,-0.22104549407958984
1789022019128367600,4.55436767578125,-2.881145477294922,-0.8511815071105957,0.9956293106079102
1789022019138293500,4.56429345703125,-2.0918755531311035,-0.8192353248596191,1.8937463760375977
1789022019148219400,4.574219482421875,-1.4639756679534912,-1.1274757385253906,3.0495758056640625
1789022019158145300,4.584145263671875,-1.142876148223877,-1.2812671661376953,3.782252311706543
1789022019168071200,4.5940712890625,-0.30712127685546875,-1.1322760581970215,2.55916166305542
1789022019177997000,4.6039970703125,-1.244478702545166,0.4006171226501465,1.2421369552612305
1789022019187923000,4.6139228515625,-0.17930340766906738,1.4890532493591309,-0.17287063598632812
1789022019197848800,4.623848876953125,-0.5619583129882812,1.8869431018829346,-0.1414017677307129
1789022019207774700,4.633774658203125,-1.5506269931793213,1.6523747444152832,0.6497783660888672
1789022019217700400,4.643700439453125,-0.4684779644012451,0.23360300064086914,0.40491151809692383
1789022019227626200,4.653626220703125,-0.06165337562561035,-1.3997440338134766,-0.34322357177734375
1789022019237552000,4.66355224609375,-0.13120722770690918,-2.032900333404541,-0.863976001739502
1789022019247478000,4.67347802734375,0.013024091720581055,-2.4000964164733887,-1.3702921867370605
1789022019257404000,4.68340380859375,-0.5362772941589355,-2.843743324279785,-1.2805237770080566
1789022019267329800,4.693329833984375,-2.4998955726623535,-2.2705373764038086,-0.17869138717651367
1789022019277255700,4.703255615234375,-2.122938394546509,-2.1520891189575195,0.10014009475708008
1789022019287181600,4.713181640625,-1.6264019012451172,-2.1951613426208496,-0.10581159591674805
1789022019297107500,4.723107421875,-1.3719685077667236,-2.195561408996582,-0.07572031021118164
1789022019307033000,4.733033203125,0.15046334266662598,-1.5683660507202148,-0.11668634414672852
1789022019316959000,4.742958984375,0.3983464241027832,0.006417274475097656,0.831413745880127
1789022019326884900,4.752884765625,0.666367769241333,0.9528756141662598,1.1683521270751953
1789022019336810800,4.762810791015625,2.0225439071655273,1.1691155433654785,0.6794700622558594
1789022019346736600,4.772736572265625,2.525911808013916,1.1526341438293457,0.010825157165527344
1789022019356662500,4.78266259765625,1.316021203994751,0.7220916748046875,-0.2688617706298828
1789022019366588400,4.79258837890625,0.6083166599273682,0.7929072380065918,0.20609617233276367
1789022019376514300,4.802514404296875,-0.8154926300048828,0.8309636116027832,0.981757640838623
1789022019386440000,4.81243994140625,-1.8542990684509277,0.5733327865600586,2.2480154037475586
1789022019396365800,4.82236572265625,-1.0654654502868652,-0.11075258255004883,2.117236614227295
1789022019406291700,4.832291748046875,-0.09424734115600586,-0.45810651779174805,1.5328378677368164
1789022019416217600,4.842217529296875,0.13207674026489258,-0.6182031631469727,1.3341455459594727
1789022019426143500,4.8521435546875,0.3283393383026123,-0.3294639587402344,1.5327239036560059
1789022019436069400,4.8620693359375,-0.511791467666626,-0.653045654296875,1.067976951599121
1789022019445995300,4.871995361328125,-0.9742040634155273,0.05264759063720703,1.47613525390625
1789022019455921200,4.881921142578125,-1.1029589176177979,0.29667043685913086,1.1984810829162598
1789022019465847000,4.891846923828125,-2.4847090244293213,0.14828014373779297,1.1353254318237305
1789022019475772700,4.901772705078125,-1.9736061096191406,0.20340824127197266,1.0331554412841797
1789022019485698600,4.911698486328125,0.239121675491333,-0.18463993072509766,1.1096935272216797
1789022019495624400,4.92162451171875,1.8540689945220947,-0.3754539489746094,0.8668842315673828
1789022019505550300,4.93155029296875,1.8284080028533936,-0.4788789749145508,0.12999725341796875
1789022019515476200,4.941476318359375,0.6445131301879883,-0.3055715560913086,-0.4457883834838867
1789022019525402000,4.951402099609375,-1.974625587463379,-0.6273674964904785,-0.9598007202148438
1789022019535328000,4.961327880859375,-3.6466972827911377,-0.837193489074707,-0.9283905029296875
1789022019545253600,4.971253662109375,-2.267141819000244,-2.039947986602783,-0.2425222396850586
1789022019555179500,4.981179443359375,-0.3134303092956543,-2.4108481407165527,0.6401538848876953
1789022019565105400,4.99110546875,0.6020879745483398,-1.557105541229248,1.3984270095825195
1789022019575031300,5.00103125,0.38209009170532227,-1.9840965270996094,3.3626203536987305
1789022019584957200,5.010957275390625,-0.8119292259216309,-2.0452070236206055,2.032655715942383
1789022019594883000,5.020883056640625,-0.7849798202514648,-1.472071647644043,1.2660198211669922
1789022019604809000,5.03080908203125,-1.1751422882080078,-0.9868264198303223,0.19811344146728516
1789022019614734800,5.04073486328125,-0.2220783233642578,-0.8478207588195801,-0.2543601989746094
1789022019624660500,5.050660400390625,1.2749595642089844,-1.3816711902618408,-0.037888526916503906
1789022019634586400,5.06058642578125,1.0776317119598389,-2.5046868324279785,-0.5808296203613281
1789022019644512300,5.07051220703125,0.9068961143493652,-2.806234359741211,-1.3030800819396973
1789022019654438100,5.080438232421875,1.1873600482940674,-1.7273924350738525,-1.7159123420715332
1789022019664364000,5.090364013671875,2.0542118549346924,-0.04612612724304199,-2.982813835144043
1789022019674290000,5.1002900390625,3.0605592727661133,1.230780005455017,-5.172695636749268
1789022019684215800,5.1102158203125,2.6898834705352783,3.429462432861328,-5.310786247253418
1789022019694141700,5.1201416015625,3.1902360916137695,3.1839404106140137,-5.424505233764648
1789022019704067300,5.1300673828125,2.7907564640045166,1.6583826541900635,-5.013971328735352
1789022019713993200,5.1399931640625,3.5407848358154297,-0.7898296117782593,-5.243974685668945
1789022019723919000,5.149919189453125,3.6356706619262695,-2.173086643218994,-5.36142635345459
1789022019733845000,5.159844970703125,2.366222381591797,-2.319275379180908,-5.099465370178223
1789022019743771000,5.16977099609375,-0.41491127014160156,-0.20118319988250732,-4.247820854187012
1789022019753696800,5.17969677734375,-0.7560701370239258,0.1430450677871704,-5.202789306640625
1789022019763622700,5.18962255859375,-0.09017705917358398,0.07658195495605469,-4.5258588790893555
1789022019773548300,5.19954833984375,1.479321002960205,-0.3703685998916626,-3.783041000366211
1789022019783474200,5.20947412109375,2.788480281829834,-1.2193450927734375,-3.7814621925354004
1789022019793400000,5.219400146484375,1.5994548797607422,-2.2446351051330566,-3.162691593170166
1789022019803326000,5.229325927734375,-1.1663942337036133,-1.8261299133300781,-1.111586570739746
1789022019813251800,5.239251953125,-1.8062729835510254,-2.1071953773498535,-0.701603889465332
1789022019823177700,5.249177734375,-0.22707271575927734,-2.525899887084961,-1.8840465545654297
1789022019833103600,5.259103515625,0.16045570373535156,-2.540654420852661,-3.0676474571228027
1789022019843029500,5.269029541015625,-0.5402140617370605,-2.2627625465393066,-2.695584774017334
1789022019852955100,5.278955078125,-0.3757009506225586,-1.9488399028778076,-2.7168197631835938
1789022019862881000,5.288881103515625,-1.2043519020080566,-1.3331184387207031,-2.77858829498291
1789022019872807000,5.298806884765625,-0.9217104911804199,-0.6159932613372803,-2.2552523612976074
1789022019882732800,5.30873291015625,0.38929247856140137,-0.16935396194458008,-1.7098884582519531
1789022019892658700,5.31865869140625,-0.32422876358032227,0.09095597267150879,-0.6949024200439453
1789022019902584600,5.32858447265625,-0.40445756912231445,0.524655818939209,0.37477684020996094
1789022019912510500,5.338510498046875,-0.7955148220062256,0.13485980033874512,1.2929973602294922
1789022019922436000,5.34843603515625,-1.5905561447143555,-0.36321306228637695,2.2528915405273438
1789022019932362000,5.358362060546875,-1.7124342918395996,-1.1758511066436768,2.3152360916137695
1789022019942288000,5.368287841796875,-0.9383728504180908,-1.4693362712860107,1.2090082168579102
1789022019952213800,5.3782138671875,-1.181114912033081,-1.2463030815124512,0.49056148529052734
1789022019962139600,5.3881396484375,-0.45244717597961426,-0.5299954414367676,0.3263082504272461
1789022019972065500,5.3980654296875,-0.0009398460388183594,0.14982175827026367,-0.349578857421875
1789022019981991400,5.407991455078125,0.051871538162231445,0.8607404232025146,-1.0460858345031738
1789022019991917300,5.417917236328125,-0.5779585838317871,1.6821250915527344,-0.39069509506225586
1789022020001843200,5.42784326171875,-0.8325374126434326,2.1547486782073975,1.10552978515625
1789022020011768800,5.437768798828125,-0.3009319305419922,1.6180174350738525,1.4341397285461426
1789022020021694700,5.44769482421875,0.017728328704833984,0.4409604072570801,1.5341200828552246
1789022020031620600,5.45762060546875,1.0514845848083496,-0.16631078720092773,1.8569269180297852
1789022020041546500,5.46754638671875,-0.84079909324646,-0.8203911781311035,2.280956745147705
1789022020051472400,5.477472412109375,-1.7080552577972412,-1.027745246887207,2.7019762992858887
1789022020061398300,5.487398193359375,-0.9518115520477295,-1.2505216598510742,2.189772605895996
1789022020071324200,5.49732421875,-0.930009126663208,-1.0932254791259766,1.1874465942382812
1789022020081250000,5.50725,0.06739020347595215,-0.8448882102966309,0.2153310775756836
1789022020091176000,5.517176025390625,0.46000242233276367,-0.8666491508483887,-0.9643912315368652
1789022020101101800,5.527101806640625,-0.888861894607544,-0.6433877944946289,-0.6765446662902832
1789022020111027700,5.53702783203125,-0.024015426635742188,-0.5387716293334961,-0.3690676689147949
1789022020120953300,5.546953369140625,-1.478177785873413,-0.8888325691223145,-0.1389303207397461
1789022020130879200,5.556879150390625,-2.5352509021759033,-0.22124576568603516,1.1637258529663086
1789022020140805000,5.56680517578125,-1.3769819736480713,0.030087947845458984,2.495602607727051
1789022020150731000,5.57673095703125,-1.5001306533813477,-0.5042290687561035,3.32753849029541
1789022020160657000,5.586656982421875,-2.9413421154022217,-1.0364947319030762,4.532543659210205
1789022020170582800,5.596582763671875,-2.2623698711395264,-0.9768085479736328,4.269180774688721
1789022020180508700,5.6065087890625,-1.418100118637085,-0.4841604232788086,3.226594924926758
1789022020190434600,5.6164345703125,-1.5867927074432373,0.2635941505432129,2.0997262001037598
1789022020200360400,5.6263603515625,-1.0662767887115479,0.7280879020690918,0.7264084815979004
1789022020210286300,5.636286376953125,0.19599676132202148,0.46248674392700195,-0.6374568939208984
1789022020220212200,5.646212158203125,0.5363552570343018,0.23032712936401367,-1.1313629150390625
1789022020230138000,5.65613818359375,-1.1644165515899658,0.026911258697509766,-0.5581178665161133
1789022020240064000,5.66606396484375,-2.8516933917999268,-0.12054729461669922,0.3790140151977539
1789022020249990000,5.675989990234375,-2.3443515300750732,-1.1862750053405762,0.5074577331542969
1789022020259915800,5.685915771484375,-1.351365566253662,-1.8543591499328613,1.020768642425537
1789022020269841700,5.695841552734375,-1.7276191711425781,-2.2908096313476562,1.6006226539611816
1789022020279767600,5.705767578125,-2.0289196968078613,-2.8434596061706543,2.2740135192871094
1789022020289693200,5.715693115234375,-0.05583930015563965,-3.7367501258850098,1.5501899719238281
1789022020299619000,5.725619140625,2.115182876586914,-3.405820846557617,0.4354085922241211
1789022020309545000,5.735544921875,2.5620782375335693,-2.6284475326538086,0.23839044570922852
1789022020319470800,5.745470947265625,1.8066368103027344,-2.226278781890869,0.18442964553833008
1789022020329396700,5.755396728515625,0.7567157745361328,-1.9351110458374023,-0.07451391220092773
1789022020339322600,5.765322509765625,-0.5383598804473877,-1.082761287689209,0.40283823013305664
1789022020349248500,5.77524853515625,-1.101133108139038,-0.1900629997253418,1.592501163482666
1789022020359174400,5.78517431640625,0.0034379959106445312,-0.3625450134277344,0.9605064392089844
1789022020369100300,5.795100341796875,2.1011929512023926,-1.3341126441955566,-1.1404261589050293
1789022020379026200,5.805026123046875,0.7250308990478516,-1.5625033378601074,0.3640017509460449
1789022020388952000,5.8149521484375,-0.8627133369445801,-1.1421899795532227,2.914114475250244
1789022020398878000,5.8248779296875,-2.9977777004241943,-1.3616557121276855,3.9596614837646484
1789022020408803800,5.834803955078125,-2.0540173053741455,-0.460418701171875,4.107943534851074
1789022020418729700,5.844729736328125,-0.1532130241394043,0.46616029739379883,3.9388556480407715
1789022020428655600,5.854655517578125,1.5210790634155273,-0.008938312530517578,2.893667697906494
1789022020438581500,5.86458154296875,2.7505619525909424,0.05720806121826172,1.1621270179748535
1789022020448507400,5.87450732421875,2.55100679397583,0.8354592323303223,-0.05087852478027344
1789022020458433300,5.884433349609375,1.1755497455596924,1.52817702293396,-0.4856138229370117
1789022020468359200,5.894359130859375,-0.9651243686676025,2.0152430534362793,-0.9525423049926758
1789022020478285000,5.90428515625,-2.427623748779297,1.923098087310791,-1.5712389945983887
1789022020488211000,5.9142109375,-2.1820526123046875,0.931624174118042,-2.020488739013672
1789022020498136800,5.92413671875,0.3393056392669678,0.356539249420166,-2.0481324195861816
1789022020508062700,5.934062744140625,3.431906223297119,-0.02953338623046875,-0.9371352195739746
1789022020517988600,5.943988525390625,4.470256805419922,-0.20705413818359375,0.9725589752197266
1789022020527914500,5.95391455078125,3.0780248641967773,-0.43065357208251953,2.7109103202819824
1789022020537840400,5.96384033203125,1.0245890617370605,-2.287281036376953,2.4339723587036133
1789022020547766300,5.973766357421875,-0.07073593139648438,-4.134496688842773,0.7794151306152344
1789022020557692200,5.983692138671875,-0.21640300750732422,-4.367870330810547,-0.10085868835449219
1789022020567618000,5.9936181640625,0.002948760986328125,-3.1959283351898193,0.109039306640625
1789022020577544000,6.0035439453125,0.7938351631164551,-1.473362684249878,0.8508949279785156
1789022020587469800,6.0134697265625,2.317831516265869,-1.087975025177002,0.3557300567626953
1789022020597395700,6.023395751953125,3.108266592025757,-1.116609811782837,-0.4233822822570801
1789022020607321600,6.033321533203125,3.893951892852783,-1.3028433322906494,-1.5159149169921875
1789022020617247500,6.04324755859375,4.375258445739746,-0.9056103229522705,-1.7947406768798828
1789022020627173400,6.05317333984375,1.795361042022705,1.2120082378387451,-0.18697643280029297
1789022020637099000,6.06309912109375,-0.49060726165771484,1.6415129899978638,-0.4513688087463379
1789022020647025200,6.073025146484375,1.686802864074707,0.17324447631835938,-2.8835930824279785
1789022020656950800,6.08295068359375,5.153354167938232,-0.01256263256072998,-5.76619291305542
1789022020666876700,6.092876708984375,6.9749321937561035,-1.4455921649932861,-10.182918548583984
1789022020676802600,6.102802490234375,6.253614902496338,-2.3662538528442383,-12.054373741149902
1789022020686728400,6.112728515625,2.7137372493743896,0.9488444328308105,-8.861111640930176
1789022020696654300,6.122654296875,1.4822349548339844,2.0303728580474854,-7.367970943450928
1789022020706580200,6.132580322265625,2.8306031227111816,1.052047848701477,-6.436442852020264
1789022020716506000,6.142506103515625,3.7802271842956543,-0.12279224395751953,-4.289422512054443
1789022020726432000,6.152431884765625,2.3563268184661865,-1.3029906749725342,-2.2066707611083984
1789022020736358000,6.16235791015625,1.7574334144592285,-3.3893866539001465,-2.1381211280822754
1789022020746283800,6.17228369140625,2.27809739112854,-4.992332458496094,-4.015863418579102
1789022020756209700,6.182209716796875,-0.15534162521362305,-4.071201324462891,-4.395607948303223
1789022020766135600,6.192135498046875,-2.4094133377075195,-2.7770423889160156,-3.258871555328369
1789022020776061400,6.2020615234375,-2.810936450958252,-1.7190678119659424,-0.986051082611084
1789022020785987300,6.2119873046875,-1.0273652076721191,-1.095935344696045,0.5515737533569336
1789022020795913200,6.221913330078125,0.9903912544250488,-1.3642892837524414,0.4026069641113281
1789022020805839000,6.231839111328125,1.9750957489013672,-2.1850874423980713,-0.34632301330566406
1789022020815765000,6.241764892578125,1.1999645233154297,-2.0280327796936035,0.020181655883789062
1789022020825691000,6.25169091796875,0.3304595947265625,-1.192450761795044,0.49208641052246094
1789022020835616800,6.26161669921875,-0.6139960289001465,-0.7267594337463379,0.6938381195068359
1789022020845542700,6.271542724609375,-2.025108814239502,0.24598097801208496,2.536640167236328
1789022020855468500,6.281468505859375,-2.7347450256347656,0.5675079822540283,5.2867937088012695
1789022020865394400,6.29139453125,-1.375399112701416,-1.0130927562713623,5.782618999481201
1789022020875320300,6.3013203125,0.8028953075408936,-2.2431719303131104,3.6712207794189453
1789022020885246200,6.31124609375,0.9360837936401367,-1.8469061851501465,2.008739471435547
1789022020895172000,6.321172119140625,1.093536615371704,-1.1523313522338867,0.955019474029541
1789022020905098000,6.331097900390625,1.613215684890747,-0.39350175857543945,-0.49327993392944336
1789022020915024000,6.34102392578125,1.4628915786743164,0.42344188690185547,-1.5962347984313965
1789022020924949800,6.35094970703125,1.1021969318389893,1.2850573062896729,-1.153834342956543
1789022020934875600,6.360875732421875,1.8048014640808105,2.462594985961914,0.42174386978149414
1789022020944801500,6.370801513671875,1.6846964359283447,2.609218120574951,0.6916275024414062
1789022020954727400,6.3807275390625,1.1208224296569824,2.300506591796875,0.587007999420166
1789022020964653300,6.3906533203125,1.3124268054962158,1.4543366432189941,0.5852117538452148
1789022020974579200,6.4005791015625,2.046304702758789,0.8625216484069824,0.7247538566589355
1789022020984505000,6.410505126953125,2.568288803100586,0.1001582145690918,0.676239013671875
1789022020994430700,6.4204306640625,2.5824601650238037,-0.39865541458129883,0.7515640258789062
1789022021004356600,6.430356689453125,0.9149532318115234,-1.2284469604492188,1.3490939140319824
1789022021014282500,6.440282470703125,-0.9861047267913818,-1.2173347473144531,3.3526601791381836
1789022021024208400,6.45020849609375,-3.2455224990844727,-1.55491304397583,3.910923957824707
1789022021034134300,6.46013427734375,-0.3403465747833252,-1.9273900985717773,2.2385172843933105
1789022021044060200,6.47006005859375,0.956465482711792,-1.4607715606689453,1.074312686920166
1789022021053986000,6.479986083984375,0.10019397735595703,-0.49040794372558594,1.394087791442871
1789022021063912000,6.489911865234375,0.8029553890228271,0.3754253387451172,0.7782301902770996
1789022021073837800,6.499837890625,0.5127408504486084,1.2860097885131836,1.230654239654541
1789022021083763700,6.509763671875,-0.2627573013305664,2.113554000854492,2.211252212524414
1789022021093689600,6.519689697265625,-1.4564752578735352,1.7453064918518066,3.48807954788208
1789022021103615500,6.529615478515625,-2.6125948429107666,1.6299309730529785,5.3013482093811035
1789022021113541400,6.539541259765625,-0.6824634075164795,1.6632490158081055,5.660717010498047
1789022021123467300,6.54946728515625,1.766594409942627,1.2695789337158203,3.843451499938965
1789022021133393200,6.55939306640625,3.546088218688965,0.6155824661254883,1.5163068771362305
1789022021143319000,6.569319091796875,2.9577789306640625,-0.05052328109741211,0.5768179893493652
1789022021153245000,6.579244873046875,1.4954638481140137,-0.3968958854675293,0.399017333984375
1789022021163170800,6.5891708984375,-0.44454479217529297,-0.7249417304992676,0.9699764251708984
1789022021173096700,6.5990966796875,-1.1818318367004395,-1.4137916564941406,1.2436456680297852
1789022021183022600,6.609022705078125,-0.4427633285522461,-1.7419052124023438,1.5678648948669434
1789022021192948200,6.6189482421875,0.4758777618408203,-2.681485652923584,1.2978858947753906
1789022021202874000,6.6288740234375,-0.17046833038330078,-3.1569223403930664,1.0895123481750488
1789022021212800000,6.638800048828125,2.461064100265503,-3.738497734069824,-0.7560782432556152
1789022021222726000,6.648725830078125,2.863145351409912,-4.395960330963135,-1.1361241340637207
1789022021232651800,6.65865185546875,2.0784387588500977,-4.072534084320068,-0.6931056976318359
1789022021242577700,6.66857763671875,1.8805675506591797,-3.606090545654297,-0.4949612617492676
1789022021252503600,6.678503662109375,0.6897084712982178,-3.422445297241211,-0.24138545989990234
1789022021262429400,6.688429443359375,-0.9340782165527344,-3.245643138885498,1.4761962890625
1789022021272355300,6.698355224609375,-1.4674968719482422,-3.5663094520568848,3.2229557037353516
1789022021282281200,6.70828125,-1.9213299751281738,-3.9867167472839355,4.36305570602417
1789022021292207000,6.71820703125,-2.4234418869018555,-4.425025463104248,5.335285186767578
1789022021302133000,6.728133056640625,-2.503293514251709,-3.9376134872436523,7.449230194091797
1789022021312059000,6.738058837890625,-1.1516575813293457,-4.1964111328125,7.505401611328125
1789022021321984800,6.74798486328125,0.8667294979095459,-4.1021199226379395,6.9952216148376465
1789022021331910700,6.75791064453125,1.5396392345428467,-3.9516634941101074,5.208869934082031
1789022021341836500,6.76783642578125,0.8261301517486572,-3.276456832885742,1.9997997283935547
1789022021351762200,6.77776220703125,-0.46692562103271484,-0.4774489402770996,0.28993701934814453
1789022021361688000,6.78768798828125,-1.9371647834777832,1.3597509860992432,-1.2567853927612305
1789022021371614000,6.797614013671875,-1.0565147399902344,2.0200119018554688,-2.377561569213867
1789022021381539800,6.807539794921875,1.0413885116577148,2.159893274307251,-2.852877140045166
1789022021391465700,6.8174658203125,2.9993834495544434,1.8264853954315186,-1.762833595275879
1789022021401391600,6.8273916015625,3.4485394954681396,0.9238052368164062,-0.9559969902038574
1789022021411317500,6.8373173828125,3.442185878753662,-0.14382004737854004,-1.0057225227355957
1789022021421243400,6.847243408203125,2.879495859146118,-0.7684133052825928,-2.251802444458008
1789022021431169300,6.857169189453125,2.334419012069702,-0.7115631103515625,-3.2301077842712402
1789022021441095200,6.86709521484375,2.7056124210357666,-0.32761287689208984,-4.095320224761963
1789022021451021000,6.87702099609375,2.6200499534606934,0.13472747802734375,-4.302128791809082
1789022021460947000,6.886947021484375,2.4771597385406494,0.3264327049255371,-3.7894558906555176
1789022021470872600,6.89687255859375,2.3695738315582275,-0.004349708557128906,-2.384108543395996
1789022021480798500,6.906798583984375,0.9465236663818359,-1.090155839920044,-1.3437600135803223
1789022021490724400,6.916724365234375,0.4314155578613281,-1.803373098373413,-0.4097442626953125
1789022021500650200,6.926650146484375,2.171319007873535,-0.9604754447937012,-0.06428050994873047
1789022021510576000,6.936576171875,4.553885459899902,-0.0017440319061279297,-0.8910703659057617
1789022021520502000,6.946501953125,4.751613140106201,1.101544976234436,-1.8859848976135254
1789022021530428000,6.956427978515625,4.555520534515381,1.3399584293365479,-3.428434371948242
1789022021540353800,6.966353759765625,2.8526978492736816,0.9688084721565247,-4.1025390625
1789022021550279700,6.97627978515625,2.6543314456939697,-0.7732571363449097,-5.595558166503906
1789022021560205300,6.986205322265625,3.7032618522644043,-2.1769731044769287,-7.402819633483887
1789022021570131200,6.996131103515625,4.047659397125244,-1.8021702766418457,-7.922703266143799
1789022021580057000,7.00605712890625,1.7294037342071533,0.9020702838897705,-7.295666217803955
1789022021589983000,7.01598291015625,0.018360614776611328,1.3263171911239624,-7.049443244934082
1789022021599908900,7.025908935546875,0.7571673393249512,0.7126544713973999,-6.070906639099121
1789022021609834800,7.035834716796875,2.4605607986450195,-0.12387633323669434,-4.485020160675049
1789022021619760600,7.0457607421875,2.7262463569641113,-1.5536086559295654,-2.9346847534179688
1789022021629686500,7.0556865234375,2.2526841163635254,-3.3818769454956055,-2.40902042388916
1789022021639612200,7.065612060546875,1.0509755611419678,-3.5057754516601562,-2.764775276184082
1789022021649538300,7.075538330078125,-1.746978759765625,-3.088887929916382,-2.250898838043213
1789022021659464000,7.0854638671875,-2.0291290283203125,-3.0598106384277344,-0.9838318824768066
1789022021669389800,7.095389892578125,-1.8218698501586914,-3.631312608718872,0.3160276412963867
1789022021679315700,7.105315673828125,-1.7129087448120117,-3.84311842918396,1.4079341888427734
1789022021689241600,7.11524169921875,-0.9788246154785156,-3.914902687072754,1.641214370727539
1789022021699167500,7.12516748046875,-0.300570011138916,-3.7809369564056396,1.3395709991455078
1789022021709093400,7.13509326171875,-0.2838592529296875,-3.1549649238586426,0.8250608444213867
1789022021719019000,7.14501904296875,-0.5997848510742188,-2.0012590885162354,0.8155946731567383
1789022021728945000,7.15494482421875,-0.7863938808441162,-0.5475437641143799,0.7471599578857422
1789022021738870800,7.164870849609375,0.31226372718811035,0.3847782611846924,-0.7756781578063965
1789022021748796700,7.174796630859375,1.2471647262573242,0.924152135848999,-2.379103660583496
1789022021758722600,7.18472265625,1.3195760250091553,1.4206264019012451,-2.4875779151916504
1789022021768648400,7.1946484375,2.021791696548462,1.931783676147461,-1.8750553131103516
1789022021778574300,7.20457421875,2.3075873851776123,2.0545198917388916,-1.085151195526123
1789022021788500200,7.214500244140625,1.689910650253296,1.6985886096954346,-0.008956432342529297
1789022021798426000,7.224426025390625,1.656394362449646,1.2388465404510498,1.207876205444336
1789022021808352000,7.23435205078125,1.2869548797607422,0.40816736221313477,1.0673623085021973
1789022021818277600,7.244277587890625,0.4214611053466797,-0.11255216598510742,0.8182134628295898
1789022021828203500,7.25420361328125,0.16219806671142578,-0.3372488021850586,1.2333769798278809
1789022021838129400,7.26412939453125,0.14897680282592773,0.05901050567626953,2.34328556060791
1789022021848055300,7.27405517578125,-0.723259449005127,0.3361020088195801,3.429962635040283
1789022021857981200,7.283981201171875,0.600940465927124,0.20645904541015625,3.7305755615234375
1789022021867907000,7.293906982421875,0.807847261428833,-0.24669265747070312,3.4190335273742676
1789022021877832700,7.303832763671875,-1.5131957530975342,0.030410289764404297,3.84779691696167
1789022021887758600,7.313758544921875,-1.4672877788543701,0.37573671340942383,3.4318485260009766
1789022021897684500,7.3236845703125,-0.7396399974822998,0.12934398651123047,3.136293411254883
1789022021907610400,7.3336103515625,-2.291325092315674,-0.013952255249023438,3.532034397125244
1789022021917536300,7.343536376953125,-1.7353384494781494,-0.28751134872436523,4.166012287139893
1789022021927462100,7.353462158203125,0.20611262321472168,-0.6636552810668945,4.861383438110352
1789022021937388000,7.363387939453125,0.05275869369506836,-0.7385520935058594,5.558496475219727
1789022021947313700,7.373313720703125,2.072540521621704,-0.6577973365783691,4.018646240234375
1789022021957239600,7.383239501953125,1.481033444404602,0.018943309783935547,2.673579216003418
1789022021967165400,7.39316552734375,0.7496061325073242,0.9962120056152344,1.0594263076782227
1789022021977091300,7.40309130859375,0.16932082176208496,1.8576922416687012,0.0017237663269042969
1789022021987017200,7.413017333984375,-0.4812443256378174,2.1308960914611816,-0.26131248474121094
1789022021996943000,7.422943115234375,-0.6946020126342773,2.0876450538635254,-0.22720050811767578
1789022022006869000,7.432868896484375,1.0032529830932617,1.1176457405090332,-0.7217745780944824
1789022022016794600,7.442794677734375,1.9599132537841797,0.7262134552001953,-0.35085058212280273
1789022022026720500,7.452720458984375,-0.22866368293762207,-0.38348865509033203,0.08417272567749023
1789022022036646400,7.462646484375,-4.846209526062012,-2.018706798553467,-0.31041765213012695
1789022022046572300,7.472572265625,-2.9711079597473145,-3.4997801780700684,-1.5472092628479004
1789022022056498200,7.482498291015625,0.13739633560180664,-5.218266487121582,-3.0232343673706055
1789022022066423800,7.492423828125,1.0767910480499268,-6.9870500564575195,-2.652949810028076
1789022022076349700,7.502349609375,-0.056894779205322266,-6.125588893890381,-0.7616820335388184
1789022022086275600,7.512275634765625,0.4495718479156494,-3.2130351066589355,1.579357624053955
1789022022096201500,7.522201416015625,0.617225170135498,-1.1517529487609863,3.1007328033447266
1789022022106127400,7.53212744140625,-0.24359345436096191,-0.3214840888977051,3.4578256607055664
1789022022116053200,7.54205322265625,-0.5653946399688721,-0.2551913261413574,3.3326406478881836
1789022022125979000,7.551978759765625,-0.03342890739440918,-0.2600431442260742,3.396603584289551
1789022022135904800,7.56190478515625,0.05586576461791992,-0.6190676689147949,3.8570327758789062
1789022022145830700,7.57183056640625,-0.7350649833679199,-1.0865669250488281,4.656905174255371
1789022022155756500,7.581756591796875,-0.7497210502624512,-1.9440207481384277,5.92025899887085
1789022022165682400,7.591682373046875,-0.18068742752075195,-2.948267936706543,6.1617631912231445
1789022022175608000,7.601608154296875,0.7106313705444336,-3.3654870986938477,4.723016738891602
1789022022185534000,7.611533935546875,1.247212529182434,-4.076353073120117,0.3068380355834961
1789022022195459800,7.6214599609375,0.7884886264801025,-3.514038562774658,-1.7198834419250488
1789022022205385700,7.6313857421875,-0.8460490703582764,-1.763148307800293,-0.8176398277282715
1789022022215311600,7.6413115234375,-2.2380919456481934,0.3778390884399414,0.7603273391723633
1789022022225237500,7.651237548828125,-2.7401108741760254,1.4075136184692383,1.857499122619629
1789022022235163100,7.6611630859375,-1.0554931163787842,1.477254867553711,2.139537811279297
1789022022245089000,7.671089111328125,1.729662299156189,1.1153433322906494,1.8834781646728516
1789022022255015000,7.681014892578125,2.0875258445739746,1.0648767948150635,1.3511409759521484
1789022022264940800,7.69094091796875,1.1599698066711426,1.6437733173370361,0.8919219970703125
1789022022274866700,7.70086669921875,1.3218317031860352,1.306084156036377,0.6903114318847656
1789022022284792300,7.710792236328125,1.978953242301941,-0.3014082908630371,-0.06192970275878906
1789022022294718200,7.72071826171875,1.6641247272491455,-1.8367629051208496,-1.0663676261901855
1789022022304644000,7.73064404296875,1.0286946296691895,-2.245527505874634,-2.0005545616149902
1789022022314570000,7.740570068359375,1.2719249725341797,-3.2414565086364746,-2.862102508544922
1789022022324496000,7.750495849609375,2.647462844848633,-3.0284533500671387,-3.1942567825317383
1789022022334421500,7.76042138671875,2.63459849357605,-1.9694020748138428,-3.3285107612609863
1789022022344347400,7.770347412109375,2.8561859130859375,-0.3941206932067871,-3.4996371269226074
1789022022354273300,7.780273193359375,1.6819214820861816,1.351600170135498,-3.898433208465576
1789022022364199200,7.79019921875,1.9892204999923706,1.5625791549682617,-4.775186538696289
1789022022374124800,7.800124755859375,4.0010833740234375,0.5696603059768677,-5.715304374694824
1789022022384050700,7.81005078125,5.62357234954834,0.19988596439361572,-7.679286956787109
1789022022393976600,7.8199765625,5.058050632476807,1.7579855918884277,-9.381763458251953
1789022022403902500,7.82990234375,3.078747272491455,3.165386199951172,-10.338086128234863
1789022022413828400,7.839828369140625,2.3403501510620117,2.342432737350464,-9.610458374023438
1789022022423754200,7.849754150390625,1.8787044286727905,1.3793599605560303,-7.187209606170654
1789022022433680000,7.859679931640625,2.5144619941711426,0.3454939126968384,-5.4266357421875
1789022022443605800,7.869605712890625,0.7585103511810303,0.05326557159423828,-4.119083881378174
1789022022453531600,7.87953173828125,-0.1394662857055664,-1.4022800922393799,-3.6914968490600586
1789022022463457500,7.88945751953125,0.7337226867675781,-2.7825520038604736,-3.432651996612549
1789022022473383200,7.899383056640625,0.5270335674285889,-3.181644916534424,-3.505375862121582
1789022022483309000,7.90930908203125,0.17551612854003906,-3.6515591144561768,-4.101257801055908
1789022022493235000,7.91923486328125,-0.43617701530456543,-3.0238943099975586,-4.317976951599121
1789022022503160800,7.929160888671875,-1.5654983520507812,-1.6627779006958008,-3.5326786041259766
1789022022513086700,7.939086669921875,-1.439199447631836,-1.247438907623291,-2.490541934967041
1789022022523012400,7.949012451171875,0.020418882369995117,-2.4747533798217773,-1.5922374725341797
1789022022532938200,7.958938232421875,-0.4401872158050537,-3.162076234817505,0.3567848205566406
1789022022542864100,7.968864013671875,-2.3469746112823486,-3.4178385734558105,2.3275251388549805
1789022022552790000,7.9787900390625,-3.2155652046203613,-3.852116107940674,3.6472415924072266
1789022022562715600,7.988715576171875,-2.7248778343200684,-4.501540184020996,3.5584421157836914
1789022022572641500,7.9986416015625,-2.305250644683838,-4.410510540008545,2.576664924621582
1789022022582567400,8.0085673828125,-2.4367997646331787,-3.546130657196045,2.6239147186279297
1789022022592493300,8.018493408203126,-1.3232877254486084,-2.494586944580078,2.323253631591797
1789022022602419200,8.028419189453125,-0.5362274646759033,-1.525662899017334,1.1737041473388672
1789022022612344800,8.0383447265625,-0.28093600273132324,-1.1287121772766113,0.3114938735961914
1789022022622270700,8.048270751953124,-0.2633054256439209,-0.5965251922607422,0.2426919937133789
1789022022632196600,8.058196533203125,-0.8322155475616455,-0.14104175567626953,0.8847112655639648
1789022022642122500,8.06812255859375,-0.07028913497924805,-0.9333658218383789,1.6942329406738281
1789022022652048100,8.078048095703124,0.18977773189544678,-1.8888416290283203,2.388786792755127
1789022022661974000,8.08797412109375,0.25386571884155273,-2.6036205291748047,2.3969621658325195
1789022022671900000,8.09789990234375,0.7708839178085327,-3.0643186569213867,1.6388254165649414
1789022022681825800,8.10782568359375,1.0878405570983887,-2.778334617614746,0.5026507377624512
1789022022691751400,8.11775146484375,0.44996440410614014,-1.339263916015625,0.35115480422973633
1789022022701677300,8.12767724609375,0.1720125675201416,1.2435717582702637,1.0386261940002441
1789022022711603200,8.137603271484375,0.0421748161315918,3.1821680068969727,1.2820701599121094
1789022022721529000,8.147529052734376,-0.15848684310913086,3.897369146347046,1.3974008560180664
1789022022731454700,8.157454833984374,0.12940573692321777,4.160809516906738,1.4264321327209473
1789022022741380600,8.167380615234375,0.13684141635894775,3.935054063796997,1.767664909362793
1789022022751306500,8.177306396484376,-1.2940489053726196,3.2771029472351074,2.34755802154541
1789022022761232100,8.187232177734375,-3.4277424812316895,2.4477763175964355,3.300483226776123
1789022022771158000,8.197157958984375,-2.460033416748047,0.9332594871520996,3.7003865242004395
1789022022781084000,8.207083984375,-0.41842830181121826,-0.1459031105041504,4.111799716949463
1789022022791009800,8.217009765625,0.3657393455505371,-0.29923105239868164,4.185039043426514
1789022022800935700,8.226935791015626,0.07371246814727783,0.7653489112854004,3.8745555877685547
1789022022810861300,8.236861328125,-1.2819271087646484,2.079442024230957,3.546170711517334
1789022022820787200,8.246787109375,-2.9420957565307617,2.493342876434326,3.252248764038086
1789022022830713000,8.256713134765626,-2.716444730758667,2.80814528465271,3.1032938957214355
1789022022840639000,8.266638916015625,-0.550365686416626,2.7898166179656982,3.0210447311401367
1789022022850564600,8.276564697265625,0.5180176496505737,1.5993170738220215,2.2073850631713867
1789022022860490500,8.286490478515624,-0.013555526733398438,0.10622310638427734,2.233696937561035
1789022022870416400,8.29641650390625,-1.4121794700622559,-0.7667660713195801,2.9112658500671387
1789022022880342300,8.30634228515625,0.5663866996765137,-1.7736716270446777,2.5994768142700195
1789022022890268000,8.316267822265624,0.7737120389938354,-3.6536993980407715,0.8664755821228027
1789022022900193800,8.32619384765625,-0.35033488273620605,-5.934804439544678,-2.3028221130371094
1789022022910119700,8.33611962890625,-2.262615919113159,-7.130611896514893,-3.362868309020996
1789022022920045600,8.346045654296875,-1.9950459003448486,-6.585194110870361,-1.9272589683532715
1789022022929971200,8.35597119140625,-0.4722762107849121,-5.937222480773926,-0.4566383361816406
1789022022939897000,8.36589697265625,-0.8155817985534668,-5.518448352813721,0.5423402786254883
1789022022949823000,8.375822998046875,-1.9186952114105225,-4.401145935058594,2.2858963012695312
1789022022959748900,8.385748779296875,-3.0141234397888184,-2.9733753204345703,4.2396135330200195
1789022022969674500,8.395674560546874,-3.995728015899658,-1.9311938285827637,5.910691261291504
1789022022979600400,8.405600341796875,-1.043809175491333,-1.4529414176940918,5.539979934692383
1789022022989526300,8.4155263671875,1.2648389339447021,-1.2700080871582031,5.06585693359375
1789022022999452200,8.4254521484375,0.6910362243652344,-1.7680602073669434,4.856447219848633
1789022023009377800,8.435377685546875,0.7803003787994385,-2.020864963531494,5.728954315185547
1789022023019303700,8.4453037109375,0.4535689353942871,-2.152667999267578,5.666727066040039
1789022023029229600,8.4552294921875,-0.43002963066101074,-2.514688491821289,2.9459428787231445
1789022023039155200,8.4651552734375,-1.8963623046875,-2.549731731414795,0.059433937072753906
1789022023049081000,8.4750810546875,-1.9986155033111572,-1.6563453674316406,-0.8188352584838867
1789022023059007000,8.485007080078125,-1.1230080127716064,-0.7086987495422363,-0.3868236541748047
1789022023068932900,8.494932861328126,-0.24673008918762207,0.8559491634368896,0.8511810302734375
1789022023078858500,8.5048583984375,-0.9924817085266113,1.6943714618682861,1.0322151184082031
1789022023088784400,8.514784423828125,-0.45692944526672363,0.9824795722961426,-0.2039051055908203
1789022023098710300,8.524710205078126,1.0359665155410767,-0.1775064468383789,-1.9544005393981934
1789022023108636200,8.53463623046875,1.9618232250213623,-0.39376401901245117,-2.928852081298828
1789022023118561800,8.544561767578125,2.7762320041656494,-0.6979584693908691,-4.222742080688477
1789022023128487700,8.55448779296875,3.562692403793335,-0.4207024574279785,-5.246646881103516
1789022023138413600,8.56441357421875,3.892523765563965,0.06173110008239746,-5.932155609130859
1789022023148339500,8.57433935546875,3.787755012512207,0.2873959541320801,-6.688590049743652
1789022023158265000,8.58426513671875,3.0794267654418945,0.9080429077148438,-6.625204086303711
1789022023168191000,8.59419091796875,2.287437677383423,1.3538806438446045,-5.334282398223877
1789022023178116900,8.604116943359376,2.25846529006958,0.48479413986206055,-4.1329193115234375
1789022023188042500,8.61404248046875,2.111902952194214,-0.6390535831451416,-3.4932332038879395
1789022023197968400,8.623968505859375,2.77750301361084,-1.0809597969055176,-3.7468299865722656
1789022023207894300,8.633894287109374,2.404974937438965,-0.21040725708007812,-4.676941394805908
1789022023217820200,8.643820068359375,1.2178757190704346,0.7065813541412354,-6.531251907348633
1789022023227745800,8.653745849609376,1.7810043096542358,1.2678067684173584,-8.610331535339355
1789022023237671700,8.663671630859374,2.2139644622802734,1.9930493831634521,-10.574386596679688
1789022023247597600,8.67359765625,1.1053683757781982,3.5115389823913574,-10.027235984802246
1789022023257523500,8.6835234375,1.6609984636306763,3.5810883045196533,-9.033722877502441
1789022023267449300,8.693449462890625,3.8231189250946045,1.9287124872207642,-8.439672470092773
1789022023277375000,8.703375,4.343029975891113,0.24442875385284424,-6.978837966918945
1789022023287300900,8.71330078125,3.184215545654297,-1.2287909984588623,-5.19101619720459
1789022023297226800,8.723226806640625,1.0456207990646362,-2.1584408283233643,-3.9995360374450684
1789022023307152600,8.733152587890626,-1.4069850444793701,-2.4296412467956543,-3.09443998336792
1789022023317078300,8.743078369140624,-2.8950185775756836,-2.4790656566619873,-2.4209861755371094
1789022023327004200,8.753004150390625,-3.113240957260132,-2.3315279483795166,-0.8251514434814453
1789022023336930000,8.762929931640626,-3.1964731216430664,-2.797238349914551,2.0753841400146484
1789022023346856000,8.77285595703125,-1.7949066162109375,-3.842829465866089,3.928253173828125
1789022023356781600,8.782781494140625,-0.653695821762085,-5.20789909362793,3.7610607147216797
1789022023366707500,8.79270751953125,-0.5244548320770264,-5.808685302734375,3.150634765625
1789022023376633300,8.80263330078125,-1.075432538986206,-5.532130241394043,3.9916553497314453
1789022023386559200,8.812559326171876,-2.2167646884918213,-5.660181999206543,5.316347122192383
1789022023396485000,8.822485107421874,-2.2251617908477783,-5.255157470703125,5.376225471496582
1789022023406410800,8.83241064453125,-2.7520477771759033,-4.531562805175781,4.557470321655273
1789022023416336600,8.842336669921876,-3.190274953842163,-3.616119861602783,4.139300346374512
1789022023426262500,8.852262451171875,-1.563577651977539,-3.0180273056030273,2.3766651153564453
1789022023436188400,8.8621884765625,-0.7492139339447021,-2.2893733978271484,1.0817937850952148
1789022023446114300,8.8721142578125,0.19818270206451416,-1.2833995819091797,0.7671470642089844
1789022023456040000,8.8820400390625,0.9581050872802734,-0.3212394714355469,0.8780384063720703
1789022023465965800,8.8919658203125,1.5275524854660034,0.25873470306396484,-0.6237521171569824
1789022023475891700,8.9018916015625,1.8856515884399414,0.602996826171875,-1.6143684387207031
1789022023485817600,8.911817626953125,2.01609206199646,0.3976154327392578,-2.501290798187256
1789022023495743200,8.9217431640625,-0.32823872566223145,1.285637378692627,-0.8054742813110352
1789022023505669000,8.931669189453125,-1.9297738075256348,2.704719066619873,3.149454116821289
1789022023515595000,8.941594970703125,-3.507953643798828,2.160795211791992,4.2849531173706055
1789022023525521000,8.95152099609375,-1.0352520942687988,1.9027924537658691,2.5199599266052246
1789022023535446800,8.96144677734375,2.018070697784424,2.6587581634521484,0.5070199966430664
1789022023545372400,8.971372314453125,2.6029915809631348,3.176088809967041,0.43207359313964844
1789022023555298300,8.98129833984375,1.1312739849090576,3.044201374053955,0.6135807037353516
1789022023565224200,8.99122412109375,-1.0942294597625732,2.805373191833496,1.5269417762756348
1789022023575150000,9.001150146484376,-1.9911291599273682,2.511143684387207,1.682565689086914
1789022023585076000,9.011075927734375,-1.7633947134017944,2.9494071006774902,2.286742687225342
1789022023595001600,9.021001708984375,0.32743799686431885,2.8999381065368652,2.574143886566162
1789022023604927500,9.030927490234374,2.2605361938476562,2.6356940269470215,2.6019206047058105
1789022023614853400,9.040853271484375,1.736281156539917,2.616353988647461,2.924499034881592
1789022023624779300,9.050779296875,0.0008208751678466797,2.7810869216918945,3.4505791664123535
1789022023634705000,9.060704833984374,-1.5487947463989258,2.6472272872924805,3.457873821258545
1789022023644630800,9.070630859375,-1.302297592163086,2.079925537109375,2.998785972595215
1789022023654556700,9.080556640625,-0.13199377059936523,1.2432537078857422,2.157991409301758
1789022023664482600,9.090482666015625,-1.3318061828613281,0.15154409408569336,1.5599327087402344
1789022023674408400,9.100408447265625,-2.5892226696014404,-0.5788474082946777,1.3004355430603027
1789022023684334300,9.110334228515624,-2.1969528198242188,-1.0321202278137207,1.8070878982543945
1789022023694260000,9.120260009765625,-0.8178431987762451,-0.530876636505127,2.2644872665405273
1789022023704185900,9.130185791015625,0.6539702415466309,-0.6574826240539551,2.133831024169922
1789022023714111700,9.14011181640625,2.8561980724334717,-2.9713516235351562,-0.6034579277038574
1789022023724037600,9.15003759765625,1.262287974357605,-5.1210832595825195,-2.647552490234375
1789022023733963500,9.159963623046876,-1.1734461784362793,-7.254948616027832,-3.62520170211792
1789022023743889200,9.16988916015625,-3.868680715560913,-7.689300060272217,-0.8123812675476074
1789022023753815000,9.17981494140625,-3.4043188095092773,-7.074314117431641,3.8931941986083984
1789022023763741000,9.189740966796874,-1.8594071865081787,-6.931859016418457,6.163784980773926
1789022023773666800,9.199666748046875,-1.2305490970611572,-5.874771595001221,5.789720058441162
1789022023783592400,9.209592529296875,0.01609039306640625,-4.005537986755371,5.628994941711426
1789022023793518300,9.219518310546874,1.086798071861267,-2.619154453277588,5.45209264755249
1789022023803444200,9.2294443359375,0.6704545021057129,-1.9560332298278809,4.011852264404297
1789022023813370000,9.2393701171875,0.054688453674316406,-1.5197696685791016,2.877997398376465
1789022023823296000,9.2492958984375,-0.15426921844482422,-1.180201530456543,1.9866600036621094
1789022023833221600,9.2592216796875,0.08621716499328613,-1.143897533416748,0.7921352386474609
1789022023843147500,9.2691474609375,-0.09457778930664062,-0.8697738647460938,0.31065845489501953
1789022023853073400,9.279073486328125,-0.5115015506744385,-0.5199108123779297,0.04225921630859375
1789022023862999300,9.288999267578125,-0.3271026611328125,0.13456439971923828,0.8990659713745117
1789022023872925200,9.29892529296875,-0.6192722320556641,1.141434669494629,2.066579818725586
1789022023882851000,9.30885107421875,-0.8994905948638916,0.6137864589691162,1.3639440536499023
1789022023892776700,9.318776611328126,0.5521440505981445,-0.8822197914123535,-1.1081109046936035
1789022023902702600,9.32870263671875,1.7583175897598267,-1.0191869735717773,-2.7833876609802246
1789022023912628500,9.33862841796875,1.3005290031433105,-0.38058948516845703,-3.911553382873535
1789022023922554400,9.348554443359374,0.9523439407348633,0.6725764274597168,-4.629643440246582
1789022023932480000,9.35847998046875,2.3488149642944336,1.412078619003296,-3.794421672821045
1789022023942406000,9.368406005859375,3.2416157722473145,0.8184428215026855,-2.402204990386963
1789022023952331800,9.378331787109374,2.1475210189819336,-0.15003371238708496,-1.9348945617675781
1789022023962257700,9.388257568359375,1.4189071655273438,-0.963188648223877,-2.3665781021118164
1789022023972183600,9.39818359375,1.3994498252868652,-0.35611462593078613,-2.528158187866211
1789022023982109200,9.408109130859375,3.0217812061309814,0.0329434871673584,-3.1362671852111816
1789022023992035000,9.41803515625,4.109227657318115,0.4061148166656494,-4.232892036437988
1789022024001961000,9.4279609375,3.8507585525512695,0.8292919397354126,-5.9110307693481445
1789022024011886800,9.437886962890625,2.4480810165405273,1.618950366973877,-7.271951198577881
1789022024021812700,9.447812744140625,2.163675308227539,1.668447732925415,-8.646339416503906
1789022024031738400,9.45773828125,3.1293458938598633,1.0130640268325806,-10.194426536560059
1789022024041664300,9.467664306640625,4.47032356262207,0.7938644886016846,-12.016496658325195
1789022024051590100,9.477590087890626,3.848874568939209,1.8302488327026367,-12.119606971740723
1789022024061516000,9.48751611328125,0.8172829151153564,3.820840835571289,-8.087986946105957
1789022024071441700,9.497441650390625,1.1557424068450928,1.5035151243209839,-6.063689231872559
1789022024081367600,9.507367431640626,1.7508134841918945,-0.9261336326599121,-2.9420204162597656
1789022024091293400,9.51729345703125,1.8083621263504028,-3.249053478240967,-0.872004508972168
1789022024101219300,9.52721923828125,0.5476000308990479,-3.779738664627075,-0.22932910919189453
1789022024111145200,9.537145263671874,-1.812345027923584,-3.067854166030884,-0.9202079772949219
1789022024121070800,9.54707080078125,-3.1844916343688965,-2.780655860900879,-0.9551959037780762
1789022024130996700,9.556996826171876,-2.820141553878784,-2.950153350830078,-0.1739368438720703
1789022024140922600,9.566922607421875,-0.23501968383789062,-4.948103904724121,-0.7898960113525391
1789022024150848500,9.5768486328125,0.8617261648178101,-5.782985687255859,-0.9653716087341309
1789022024160774100,9.586774169921876,0.1073007583618164,-4.840705394744873,-0.5849113464355469
1789022024170700000,9.596699951171875,-1.3373329639434814,-3.372425079345703,0.010019302368164062
1789022024180626000,9.6066259765625,-1.7614703178405762,-2.6265125274658203,0.15682411193847656
1789022024190551800,9.6165517578125,-1.5790510177612305,-1.979853630065918,0.01813030242919922
1789022024200477400,9.6264775390625,-1.0257012844085693,-1.5386133193969727,0.0787343978881836
1789022024210403300,9.6364033203125,-0.802135705947876,-1.1112737655639648,0.9718904495239258
1789022024220329200,9.6463291015625,-0.07454419136047363,-0.7610740661621094,1.1267328262329102
1789022024230255000,9.656255126953125,0.28165626525878906,-0.33760738372802734,0.7789239883422852
1789022024240181000,9.666180908203126,0.2237718105316162,-0.15448570251464844,0.5006599426269531
1789022024250106600,9.676106689453125,0.58272385597229,-0.19710874557495117,0.6520328521728516
1789022024260032500,9.686032470703125,1.3055810928344727,-0.23016595840454102,0.8591103553771973
1789022024269958400,9.69595849609375,0.3909698724746704,-0.4247140884399414,1.1557979583740234
1789022024279884300,9.70588427734375,0.5286407470703125,-0.6945466995239258,1.9020442962646484
1789022024289810200,9.71581005859375,-0.2980722188949585,-1.2535181045532227,3.122307300567627
1789022024299735800,9.72573583984375,-1.9133718013763428,-1.1061115264892578,5.437787055969238
1789022024309661700,9.73566162109375,-1.3986464738845825,-1.6814541816711426,6.1516218185424805
1789022024319587600,9.745587646484376,-0.4025149345397949,-2.1595025062561035,6.05867862701416
1789022024329513500,9.755513427734375,0.28552114963531494,-2.0462145805358887,5.433698654174805
1789022024339439000,9.765439208984375,0.31209516525268555,-1.5810141563415527,3.951066493988037
1789022024349365000,9.775364990234374,0.6019786596298218,-0.49678611755371094,2.0079784393310547
1789022024359291000,9.785290771484375,0.26568603515625,1.4458813667297363,1.7865400314331055
1789022024369216500,9.795216552734376,-0.21021974086761475,3.473240852355957,1.8836565017700195
1789022024379142400,9.805142333984374,-0.900802493095398,5.1929850578308105,2.310103416442871
1789022024389068300,9.815068359375,0.10343742370605469,5.80728816986084,2.693448543548584
1789022024398994200,9.824994140625,0.2924448251724243,5.032729625701904,2.514655590057373
1789022024408920000,9.834920166015625,-0.6012399196624756,3.3571534156799316,2.238048553466797
1789022024418845700,9.844845703125,-1.1156952381134033,1.3620829582214355,2.323486804962158
1789022024428771600,9.854771484375,-0.5128183364868164,0.15525197982788086,2.5124573707580566
1789022024438697500,9.864697509765625,-0.11275124549865723,-0.0904998779296875,2.6434783935546875
1789022024448623400,9.874623291015626,0.5488266944885254,-0.2924666404724121,2.313535690307617
1789022024458549000,9.884549072265624,0.5023348331451416,0.02911853790283203,1.627699851989746
1789022024468475000,9.894474853515625,0.2980363368988037,-0.27736330032348633,1.7652649879455566
1789022024478400800,9.90440087890625,0.9459936618804932,-1.0490574836730957,1.766735553741455
1789022024488326400,9.914326416015625,0.43289971351623535,-1.363741397857666,2.336538314819336
1789022024498252300,9.924252197265625,-0.12482810020446777,-0.862978458404541,2.887028217315674
1789022024508178200,9.93417822265625,1.339301347732544,-0.912074089050293,2.6555657386779785
1789022024518104000,9.94410400390625,2.9771413803100586,-1.5483403205871582,1.7729911804199219
1789022024528029700,9.95402978515625,4.111303806304932,-3.0403809547424316,0.40195798873901367
1789022024537955600,9.96395556640625,3.2381436824798584,-4.313951015472412,-0.11238622665405273
1789022024547881500,9.973881591796875,1.0379669666290283,-5.012433052062988,-0.4135627746582031
1789022024557807400,9.983807373046876,-0.5075418949127197,-5.334183216094971,-0.5281038284301758
1789022024567733000,9.99373291015625,-1.5436015129089355,-5.0799102783203125,-0.20708560943603516
1789022024577659000,10.003658935546875,-1.8944683074951172,-4.117889404296875,0.3380861282348633
1789022024587584800,10.013584716796874,-1.0231871604919434,-2.708223819732666,1.6483154296875
1789022024597510700,10.0235107421875,-0.7883107662200928,-1.5911917686462402,2.9255876541137695
1789022024607436300,10.033436279296875,-0.4664909839630127,-0.9700946807861328,3.904604911804199
1789022024617362200,10.043362060546874,0.6630017757415771,-0.540306568145752,4.489760398864746
1789022024627288000,10.0532880859375,1.7815176248550415,-0.1873030662536621,5.615606307983398
1789022024637213700,10.063213623046876,1.5378479957580566,-0.2633190155029297,6.129714012145996
1789022024647139600,10.0731396484375,0.7911069393157959,-0.8387818336486816,6.374203681945801
1789022024657065500,10.0830654296875,-0.031169652938842773,-1.7129497528076172,5.031434059143066
1789022024666991000,10.0929912109375,0.6137876510620117,-2.720325469970703,0.41223907470703125
1789022024676917000,10.1029169921875,1.3769304752349854,-2.504227638244629,-1.1718087196350098
1789022024686843000,10.1128427734375,0.2026057243347168,-1.6416654586791992,-0.3114156723022461
1789022024696768800,10.122768798828124,-0.8544447422027588,-1.5485506057739258,-0.5284099578857422
1789022024706694400,10.1326943359375,0.0023932456970214844,-2.0838418006896973,-1.8703069686889648
1789022024716620300,10.142620361328126,0.9988870620727539,-2.221424102783203,-3.6886730194091797
1789022024726546200,10.152546142578124,1.5905112028121948,-1.0253593921661377,-4.399515628814697
1789022024736472000,10.16247216796875,2.6934945583343506,0.2517571449279785,-5.0896806716918945
1789022024746397700,10.172397705078126,4.010210990905762,0.89605712890625,-5.449801445007324
1789022024756323600,10.182323486328125,5.120466232299805,0.9636867046356201,-5.171901702880859
1789022024766249200,10.192249267578125,6.223809719085693,0.11049985885620117,-4.40097713470459
1789022024776175000,10.202175048828124,5.551790237426758,0.13847947120666504,-3.2205047607421875
1789022024786101000,10.21210107421875,3.6035544872283936,-0.1481153964996338,-2.5211429595947266
1789022024796027000,10.22202685546875,1.6673626899719238,-0.6595816612243652,-3.2312588691711426
1789022024805952500,10.231952392578124,1.8661242723464966,-1.010519027709961,-5.01955509185791
1789022024815878400,10.24187841796875,1.742774248123169,-0.22937369346618652,-6.598902702331543
1789022024825804300,10.25180419921875,1.4737896919250488,-0.33277368545532227,-7.314847946166992
1789022024835730000,10.26172998046875,1.2654526233673096,-0.8295543193817139,-7.932662010192871
1789022024845655800,10.27165576171875,0.6839144229888916,0.5058639049530029,-7.516676425933838
1789022024855581700,10.281581787109374,0.51517653465271,1.8275790214538574,-6.630470275878906
1789022024865507300,10.29150732421875,0.7709457874298096,2.0853519439697266,-5.103428363800049
1789022024875433200,10.30143310546875,0.997687816619873,2.4811465740203857,-3.017703056335449
1789022024885359000,10.311359130859374,1.4633326530456543,2.1649138927459717,-1.6300559043884277
1789022024895284700,10.32128466796875,3.3966684341430664,-0.26612186431884766,-3.101139545440674
1789022024905210600,10.331210693359376,3.8397762775421143,-2.568821430206299,-4.740365505218506
1789022024915136500,10.341136474609375,-0.6038551330566406,-1.4454317092895508,-2.226517677307129
1789022024925062100,10.351062255859375,-2.3831021785736084,-1.6933667659759521,-0.7379293441772461
1789022024934988000,10.360988037109376,-2.12410569190979,-2.290853977203369,-0.024916648864746094
1789022024944914000,10.370913818359375,-0.8366198539733887,-3.7792975902557373,0.032955169677734375
1789022024954839600,10.380839599609375,-1.0587658882141113,-4.171422958374023,1.7984037399291992
1789022024964765400,10.390765380859374,-1.8083434104919434,-3.285128355026245,3.3414907455444336
1789022024974691300,10.40069140625,-2.4041647911071777,-2.6607370376586914,4.124116897583008
1789022024984617000,10.410616943359376,-1.6360492706298828,-2.3059957027435303,3.9312057495117188
1789022024994542800,10.42054296875,-0.27204322814941406,-2.0491294860839844,2.745469093322754
1789022025004468700,10.43046875,1.1215271949768066,-2.2597227096557617,0.6160821914672852
1789022025014394400,10.440394287109376,3.3465561866760254,-3.5837392807006836,-2.095337390899658
1789022025024320300,10.4503203125,2.0163049697875977,-1.4556193351745605,-1.3324804306030273
1789022025034246100,10.46024609375,-0.5897312164306641,0.48677730560302734,-0.060606956481933594
1789022025044171800,10.470171875,-0.9220802783966064,0.7924389839172363,1.0019683837890625
1789022025054097700,10.48009765625,-0.584442138671875,0.6151084899902344,0.47608280181884766
1789022025064023600,10.4900234375,0.10727834701538086,0.6213779449462891,-0.40459346771240234
1789022025073949200,10.49994921875,0.8467129468917847,0.837275505065918,-1.8058042526245117
1789022025083875000,10.509875,1.2129414081573486,1.2844467163085938,-3.578977584838867
1789022025093800700,10.51980078125,2.8435850143432617,1.5144877433776855,-5.08959436416626
1789022025103726600,10.5297265625,4.563714981079102,2.3193752765655518,-4.8426313400268555
1789022025113652500,10.539652587890625,5.251279354095459,3.26025652885437,-3.4377894401550293
1789022025123578000,10.549578125,3.9793756008148193,3.285822868347168,-2.3137154579162598
1789022025133504000,10.55950390625,0.34588325023651123,2.090385913848877,0.039418697357177734
1789022025143430000,10.569429931640625,-2.9152538776397705,0.6664090156555176,2.2782797813415527
1789022025153355500,10.57935546875,-1.1897891759872437,-1.3863954544067383,2.3200912475585938
1789022025163281400,10.589281494140625,-0.8737868070602417,-3.269695281982422,2.9615159034729004
1789022025173207000,10.59920703125,-2.748225688934326,-4.172269344329834,6.092796325683594
1789022025183133000,10.6091328125,-3.3054656982421875,-4.962162017822266,8.398833274841309
1789022025193058800,10.619058837890625,-1.2890650033950806,-4.704768657684326,8.060745239257812
1789022025202984400,10.628984375,-0.118324875831604,-3.3748531341552734,7.4861297607421875
1789022025212910300,10.638910400390625,2.4723925590515137,-2.0976028442382812,5.3900346755981445
1789022025222836200,10.648836181640625,2.129746437072754,-0.5555181503295898,4.808135032653809
1789022025232761900,10.658761962890624,-0.44997692108154297,0.6213316917419434,4.756832122802734
1789022025242687700,10.668687744140625,-4.709984302520752,2.2490978240966797,6.0058698654174805
1789022025252613400,10.67861328125,-2.66810941696167,3.0887537002563477,4.8413615226745605
1789022025262539300,10.688539306640624,1.3370423316955566,3.029768466949463,0.5189099311828613
1789022025272465200,10.698465087890625,4.945219039916992,0.903203010559082,-5.218011856079102
1789022025282390800,10.708390869140626,4.508271217346191,-1.4584331512451172,-8.355130195617676
1789022025292316700,10.718316650390625,3.651242733001709,-2.3083839416503906,-11.16972827911377
1789022025302242300,10.7282421875,1.5173752307891846,-3.8961920738220215,-13.225781440734863
1789022025312168200,10.738168212890624,-0.9689154624938965,-3.8167648315429688,-8.74329948425293
1789022025322094000,10.748093994140625,-7.7663702964782715,-2.8492655754089355,0.6915369033813477
1789022025332019700,10.758019775390625,-9.922126770019531,-3.8007588386535645,4.561268329620361
1789022025341945600,10.767945556640624,-4.400043964385986,-3.647843837738037,7.298483848571777
1789022025351871200,10.777871337890625,2.1532909870147705,-1.5776476860046387,10.098177909851074
1789022025361797000,10.787797119140626,3.9841997623443604,0.27587127685546875,8.708532333374023
1789022025371722800,10.79772265625,3.58682918548584,-0.18732166290283203,5.506903648376465
1789022025381648600,10.807648681640625,0.2674206495285034,-1.4420757293701172,4.631926536560059
1789022025391574500,10.817574462890626,-1.5255064964294434,-2.7045516967773438,5.0582780838012695
1789022025401500200,10.827500244140625,-3.077575206756592,-3.7938156127929688,5.43084192276001
1789022025411426000,10.837426025390625,-1.936100959777832,-2.6967644691467285,5.401536464691162
1789022025421351700,10.8473515625,0.6638525724411011,-1.8448667526245117,3.422356605529785
1789022025431277600,10.857277587890625,3.4269261360168457,-1.8157601356506348,-0.20679283142089844
1789022025441203500,10.867203369140626,4.810053825378418,-1.8986597061157227,-3.583665370941162
1789022025451129000,10.877129150390624,3.8136000633239746,-0.21547222137451172,-5.373926639556885
1789022025461055000,10.887054931640625,0.7052165269851685,1.9499249458312988,-5.6372785568237305
1789022025470980600,10.896980712890626,-2.36128306388855,3.05680775642395,-5.987934112548828
1789022025480906500,10.906906494140625,-3.411278009414673,3.3428549766540527,-6.433379173278809
1789022025490832100,10.91683203125,-1.9665296077728271,3.994192123413086,-5.387290954589844
1789022025500758000,10.926758056640624,0.4600104093551636,4.3430328369140625,-3.2488832473754883
1789022025510683600,10.93668359375,2.267479658126831,3.4043447971343994,-1.2392897605895996
1789022025520609500,10.946609619140625,3.0522477626800537,1.7102909088134766,0.41349077224731445
1789022025530535400,10.956535400390624,1.8589959144592285,0.3402533531188965,2.6352663040161133
1789022025540461000,10.9664609375,1.3181452751159668,-0.9021167755126953,3.7227587699890137
1789022025550387000,10.976386962890626,2.655756950378418,-1.237581729888916,2.716707706451416
1789022025560312600,10.9863125,2.616762399673462,-1.5062103271484375,0.6761460304260254
1789022025570238500,10.996238525390625,1.184342622756958,-1.1546106338500977,-0.27313232421875
1789022025580164000,11.0061640625,-1.4734787940979004,0.20942258834838867,0.7151756286621094
1789022025590090000,11.016090087890625,-3.271235466003418,0.9780874252319336,2.059969902038574
1789022025600015600,11.026015625,-4.256265640258789,0.7200231552124023,3.6181859970092773
1789022025609941500,11.03594140625,-3.3252155780792236,0.5257854461669922,5.796103477478027
1789022025619867100,11.0458671875,-0.8297944068908691,-1.0490570068359375,5.628116607666016
1789022025629793000,11.05579296875,0.5172338485717773,-2.5407462120056152,5.234254837036133
1789022025639719000,11.065718994140624,0.44161319732666016,-3.4197936058044434,3.573728561401367
1789022025649644500,11.07564453125,0.20900511741638184,-3.5954737663269043,0.5579414367675781
1789022025659570400,11.0855703125,0.387182354927063,-3.2616677284240723,-1.8502411842346191
1789022025669496000,11.09549609375,0.42353320121765137,-2.439729690551758,-3.3826828002929688
1789022025679422000,11.105421875,-0.04507613182067871,-0.9306573867797852,-3.7497081756591797
1789022025689347600,11.11534765625,-0.9302158355712891,0.2830991744995117,-3.5218005180358887
1789022025699273500,11.1252734375,-0.7339005470275879,0.3617513179779053,-3.8590526580810547
1789022025709199000,11.13519921875,0.22018671035766602,-0.1802992820739746,-3.176093101501465
1789022025719125000,11.145125,0.8024362325668335,-0.9364166259765625,-1.8229761123657227
1789022025729050600,11.155050537109375,0.5376460552215576,-1.5227901935577393,-0.8674259185791016
1789022025738976500,11.1649765625,0.4324917793273926,-2.2289810180664062,-1.160752773284912
1789022025748902100,11.174902099609374,0.6700063943862915,-2.250088930130005,-2.346214771270752
1789022025758828000,11.184828125,0.4307234287261963,-1.4174706935882568,-2.6780853271484375
1789022025768753700,11.194753662109376,-0.43663454055786133,-0.7656333446502686,-1.2918481826782227
1789022025778679600,11.204679443359375,0.42581677436828613,-1.4525668621063232,-1.4158573150634766
1789022025788605200,11.214605224609375,1.738468885421753,-1.7004899978637695,-2.4950203895568848
1789022025798531000,11.224531005859374,1.0892791748046875,-0.9384670257568359,-3.550483226776123
1789022025808456700,11.234456787109375,-0.09148001670837402,0.08067679405212402,-3.90549373626709
1789022025818382600,11.244382568359375,-0.9338154792785645,0.1647496223449707,-2.9680256843566895
1789022025828308200,11.25430810546875,-0.13980770111083984,-0.15497446060180664,-3.0634446144104004
1789022025838234000,11.264234130859375,1.2599291801452637,-0.35749268531799316,-5.199231147766113
1789022025848159700,11.27415966796875,1.1429252624511719,-0.6489923000335693,-6.856212139129639
1789022025858085600,11.284085693359375,1.3091031312942505,-0.8226485252380371,-6.839395523071289
1789022025868011300,11.29401123046875,0.6798355579376221,-0.13696503639221191,-5.50609016418457
1789022025877937200,11.303937255859376,-0.5447654724121094,0.4217846393585205,-3.603342056274414
1789022025887862800,11.31386279296875,-0.8609333038330078,0.5525503158569336,-2.167607307434082
1789022025897788700,11.32378857421875,-0.33443355560302734,0.3596208095550537,-2.09464693069458
1789022025907714300,11.33371435546875,-0.07312297821044922,0.09044694900512695,-2.219700813293457
1789022025917640200,11.34364013671875,0.755982518196106,-0.019330739974975586,-1.7762374877929688
1789022025927565800,11.35356591796875,0.8056578636169434,-0.032015085220336914,-0.7947854995727539
1789022025937491700,11.36349169921875,0.37025225162506104,-0.5362305641174316,0.45246124267578125
1789022025947417300,11.373417236328125,-0.037506103515625,-0.6902813911437988,0.41489315032958984
1789022025957343200,11.38334326171875,-0.7117574214935303,-0.6111011505126953,-0.23953819274902344
1789022025967268900,11.393268798828124,-0.8322875499725342,-0.18759536743164062,-1.0455222129821777
1789022025977194800,11.40319482421875,-0.4015624523162842,0.48412227630615234,-1.7759075164794922
1789022025987120400,11.413120361328126,0.24923396110534668,1.3788363933563232,-1.8380799293518066
1789022025997046300,11.42304638671875,1.0984708070755005,2.2022721767425537,-1.7571501731872559
1789022026006972000,11.432971923828125,1.505312442779541,2.455265998840332,-1.734309196472168
1789022026016897800,11.442897705078124,1.6404905319213867,2.3885233402252197,-1.2786674499511719
1789022026026823400,11.452823486328125,1.2256836891174316,2.1065735816955566,-0.671048641204834
1789022026036749000,11.4627490234375,0.852828323841095,1.0252447128295898,-0.39461708068847656
1789022026046675000,11.472675048828124,0.4168086051940918,0.3991513252258301,0.5728092193603516
1789022026056600600,11.4826005859375,-0.2177257537841797,-0.07696151733398438,0.811394214630127
1789022026066526500,11.4925263671875,-1.1381784677505493,-0.7210350036621094,0.279721736907959
1789022026076452000,11.5024521484375,-0.677294135093689,-1.5094022750854492,0.42350053787231445
1789022026086378000,11.5123779296875,-0.5535880327224731,-1.6736464500427246,1.3656678199768066
1789022026096303600,11.5223037109375,-1.3991687297821045,-1.8057880401611328,3.118142604827881
1789022026106229500,11.5322294921875,-0.5515327453613281,-1.8588676452636719,5.187021732330322
1789022026116155100,11.542155029296875,0.35661327838897705,-2.297244071960449,5.87874174118042
1789022026126081000,11.5520810546875,0.21818268299102783,-2.512566566467285,5.577663898468018
1789022026136006700,11.562006591796875,-2.7017245292663574,-2.621091365814209,5.24761962890625
1789022026145932300,11.571932373046875,-5.019559860229492,-2.2019410133361816,5.725798606872559
1789022026155858200,11.581858154296874,-1.9600167274475098,-1.8617358207702637,4.812585353851318
1789022026165783800,11.59178369140625,3.5756235122680664,-2.451517105102539,1.4397196769714355
1789022026175709700,11.601709716796876,3.135672092437744,-0.916968822479248,-0.44744157791137695
1789022026185635300,11.61163525390625,0.0958930253982544,1.1782212257385254,-1.1708898544311523
1789022026195561200,11.621561279296875,-0.020630598068237305,2.068234920501709,-3.1755011081695557
1789022026205486800,11.63148681640625,-0.26030075550079346,2.3383469581604004,-4.273037910461426
1789022026215412700,11.641412841796875,-1.3553617000579834,2.925987958908081,-2.550769329071045
1789022026225338400,11.65133837890625,-1.2131788730621338,3.2204091548919678,0.2940335273742676
1789022026235264000,11.661263916015624,-0.31064772605895996,2.6367368698120117,2.177389144897461
1789022026245190000,11.67118994140625,-0.0010854005813598633,1.5023751258850098,2.7776808738708496
1789022026255115500,11.681115478515625,0.004703044891357422,0.2708778381347656,3.1380271911621094
1789022026265041400,11.69104150390625,-0.09555518627166748,-1.665182113647461,3.267888069152832
1789022026274967000,11.700967041015625,-0.8662786483764648,-1.4719486236572266,3.7007198333740234
1789022026284893000,11.710892822265626,0.8188145160675049,-0.9757723808288574,1.8667373657226562
1789022026294818600,11.720818603515625,1.1742963790893555,-1.0057573318481445,0.15817832946777344
1789022026304744400,11.730744384765625,0.26664841175079346,-1.0106754302978516,-0.17910146713256836
1789022026314670000,11.740670166015626,-3.413498878479004,-0.4795989990234375,1.4393930435180664
1789022026324595700,11.750595703125,-1.4345626831054688,-0.13853883743286133,1.1041350364685059
1789022026334521600,11.760521484375,0.36057519912719727,-0.8105196952819824,0.6080389022827148
1789022026344447200,11.770447265625,1.1678651571273804,-0.985630989074707,0.5107197761535645
1789022026354373000,11.780373046875,1.1638985872268677,-0.9663333892822266,0.8029022216796875
1789022026364298800,11.790298828125,-0.9766037464141846,-0.8985586166381836,1.9347333908081055
1789022026374224400,11.800224365234374,0.8515000343322754,0.01985311508178711,2.3909215927124023
1789022026384150300,11.810150390625,3.614884853363037,-1.7874293327331543,0.5892443656921387
1789022026394076000,11.820075927734376,1.0983123779296875,-2.670849323272705,1.4761157035827637
1789022026404001800,11.830001708984375,-0.012825489044189453,-3.968194007873535,1.109215259552002
1789022026413927400,11.839927490234375,-2.1078646183013916,-4.7331414222717285,1.4148602485656738
1789022026423853300,11.849853271484376,-2.3024649620056152,-3.8104143142700195,2.3610777854919434
1789022026433779000,11.859779052734375,0.5151598453521729,-2.418583393096924,2.773346424102783
1789022026443704600,11.86970458984375,1.0040240287780762,-0.9559965133666992,2.832380771636963
1789022026453630500,11.87963037109375,0.48704099655151367,0.2391376495361328,2.474763870239258
1789022026463556000,11.88955615234375,1.338159441947937,1.2852215766906738,2.243468761444092
1789022026473481700,11.899481689453125,1.8689234256744385,1.549203872680664,1.0812430381774902
1789022026483407600,11.90940771484375,2.641817569732666,1.2088332176208496,-0.34895896911621094
1789022026493333200,11.919333251953125,3.0805439949035645,1.0947637557983398,-0.47437524795532227
1789022026503259100,11.929259033203126,1.4855595827102661,1.0929059982299805,-0.08587074279785156
1789022026513184800,11.939184814453125,-0.502371072769165,1.5199298858642578,0.6416387557983398
1789022026523110700,11.949110595703125,-1.5112407207489014,1.658675193786621,1.410933494567871
1789022026533036300,11.959036376953126,-0.5851085186004639,1.1474871635437012,1.1479215621948242
1789022026542962000,11.9689619140625,1.1251353025436401,0.8507442474365234,0.8537883758544922
1789022026552887800,11.9788876953125,1.9808015823364258,0.49126148223876953,0.5336933135986328
1789022026562813400,11.9888134765625,1.4397716522216797,0.20692873001098633,1.9613852500915527
1789022026572739000,11.998739013671875,0.06887960433959961,-0.3322138786315918,2.965188980102539
1789022026582665000,12.0086650390625,-0.29276371002197266,-1.182422161102295,2.344205379486084
1789022026592590600,12.018590576171874,-0.14719033241271973,-0.7583231925964355,1.3483648300170898
1789022026602516500,12.0285166015625,-0.672231912612915,0.1916337013244629,2.6961517333984375
1789022026612442000,12.038442138671876,-0.9505977630615234,-0.2413616180419922,4.910305976867676
1789022026622367700,12.04836767578125,-0.3240349292755127,-1.4462175369262695,6.011104583740234
1789022026632293600,12.058293701171875,1.1474627256393433,-3.432952880859375,3.9787158966064453
1789022026642219300,12.06821923828125,1.8942530155181885,-4.588350296020508,1.2907657623291016
1789022026652145000,12.078144775390625,1.6846590042114258,-3.9038166999816895,-1.003495216369629
1789022026662070800,12.08807080078125,1.7301063537597656,-3.1418161392211914,-3.431596279144287
1789022026671996400,12.097996337890624,1.242356538772583,-1.479621410369873,-5.047964096069336
1789022026681922300,12.10792236328125,0.5398397445678711,0.3985872268676758,-5.589093208312988
1789022026691848000,12.117847900390625,0.6957540512084961,0.7158699035644531,-5.9846954345703125
1789022026701773600,12.127773681640624,1.5176734924316406,0.5077042579650879,-5.213384628295898
1789022026711699500,12.137699462890625,2.4393606185913086,0.11872267723083496,-4.359609127044678
1789022026721625000,12.147625,2.7139360904693604,-0.043823957443237305,-4.9995574951171875
1789022026731550700,12.15755078125,2.211090564727783,1.5300706624984741,-5.381175994873047
1789022026741476600,12.1674765625,0.8454756736755371,3.0931479930877686,-4.309397220611572
1789022026751402200,12.17740234375,0.5480108261108398,1.8808720111846924,-2.757491111755371
1789022026761327900,12.187327880859375,2.384312391281128,-0.35686349868774414,-1.6360406875610352
1789022026771253500,12.19725341796875,2.6600382328033447,-2.009030342102051,-2.5113987922668457
1789022026781179400,12.207179443359376,0.6265780925750732,-3.4071974754333496,-3.331935405731201
1789022026791105000,12.21710498046875,-2.114872455596924,-3.904351234436035,-2.4806318283081055
1789022026801031000,12.227031005859375,-1.7261579036712646,-2.753736734390259,-2.7522778511047363
1789022026810956500,12.23695654296875,0.09647703170776367,-3.4000306129455566,-5.37092399597168
1789022026820882200,12.246882080078125,0.43338465690612793,-2.993927240371704,-6.4126739501953125
1789022026830808000,12.25680810546875,0.32219910621643066,-0.6729214191436768,-6.215709686279297
1789022026840733700,12.266733642578124,-0.39867162704467773,0.7964067459106445,-5.349071979522705
1789022026850659300,12.276659423828125,0.40520477294921875,1.133987307548523,-4.408120155334473
1789022026860585200,12.286585205078126,1.40776526927948,0.9872496128082275,-3.4430794715881348
1789022026870510800,12.2965107421875,1.410423755645752,0.335956335067749,-2.2584786415100098
1789022026880436700,12.306436767578125,0.9367257356643677,-0.5082530975341797,-1.5237808227539062
1789022026890362400,12.3163623046875,0.2631521224975586,-0.8540167808532715,-1.130079746246338
1789022026900288000,12.3262880859375,-0.5705447196960449,-1.2332873344421387,-1.54286527633667
1789022026910214000,12.3362138671875,-1.3202228546142578,-1.3426871299743652,-1.9993290901184082
1789022026920139500,12.346139404296874,-1.5520541667938232,-1.003831386566162,-1.549211025238037
1789022026930065200,12.356065185546875,-1.0236074924468994,-0.5507297515869141,-1.426084041595459
1789022026939990800,12.36599072265625,-0.30544567108154297,-0.0389094352722168,-1.3191232681274414
1789022026949916700,12.375916748046874,0.5271921157836914,0.5310983657836914,-1.161365032196045
1789022026959842300,12.38584228515625,1.7609937191009521,0.8407301902770996,-1.5324745178222656
1789022026969768000,12.395767822265626,2.2844605445861816,0.9838142395019531,-1.4671268463134766
1789022026979693800,12.40569384765625,1.813861608505249,0.9362955093383789,0.2006235122680664
1789022026989619500,12.415619384765625,0.7887965440750122,0.7912411689758301,2.8512039184570312
1789022026999545300,12.42554541015625,-0.7179617881774902,-0.3427085876464844,4.646279335021973
1789022027009471000,12.435470947265625,-0.8313784599304199,-1.9964303970336914,4.495320796966553
1789022027019396600,12.445396728515625,-0.028864145278930664,-3.20711612701416,3.6983323097229004
1789022027029322200,12.455322265625,0.8888003826141357,-3.798287868499756,3.3057713508605957
1789022027039248100,12.465248046875,0.5050756931304932,-3.5014162063598633,4.465042591094971
1789022027049173800,12.475173828125,0.055945515632629395,-2.695436477661133,4.868397235870361
1789022027059099400,12.485099365234374,-0.35416650772094727,-1.9698033332824707,3.4075493812561035
1789022027069025300,12.495025390625,-0.4176979064941406,-1.3901076316833496,1.6323304176330566
1789022027078951000,12.504950927734376,-0.44933462142944336,-0.6452574729919434,0.7647666931152344
1789022027088876500,12.51487646484375,-0.6531820297241211,0.12143278121948242,0.8541960716247559
1789022027098802200,12.52480224609375,-1.0175422430038452,0.674227237701416,2.022306442260742
1789022027108728000,12.53472802734375,0.4549626111984253,0.550724983215332,1.6489214897155762
1789022027118653700,12.54465380859375,2.289374351501465,0.48270320892333984,-0.36971473693847656
1789022027128579300,12.554579345703125,1.7533687353134155,0.5231337547302246,-2.06003475189209
1789022027138505200,12.564505126953126,0.6323474645614624,1.016739845275879,-2.550154209136963
1789022027148430800,12.574430908203125,0.8495073318481445,2.0077991485595703,-1.7291321754455566
1789022027158356500,12.5843564453125,-0.11496412754058838,3.191990613937378,-0.9166717529296875
1789022027168282400,12.594282470703124,0.8517912030220032,3.3687307834625244,-1.1853222846984863
1789022027178208000,12.6042080078125,0.8732921481132507,3.267773151397705,-1.606788158416748
1789022027188133600,12.614133544921875,-1.9018049240112305,3.1820173263549805,-0.318270206451416
1789022027198059500,12.6240595703125,-4.3086419105529785,2.954017162322998,2.3400073051452637
1789022027207985200,12.633985107421875,-3.3843674659729004,1.918999195098877,4.821267604827881
1789022027217910800,12.643910888671876,0.18366873264312744,1.021986484527588,5.686673164367676
1789022027227836400,12.65383642578125,2.8365750312805176,0.12076711654663086,4.879883766174316
1789022027237762300,12.66376220703125,2.947256326675415,-0.2303457260131836,4.236959934234619
1789022027247688000,12.67368798828125,0.38908302783966064,-0.024866104125976562,4.365025520324707
1789022027257613600,12.683613525390625,-2.3010408878326416,0.6160736083984375,5.268887996673584
1789022027267539500,12.69353955078125,0.04423093795776367,0.7556257247924805,3.9824318885803223
1789022027277465000,12.703465087890624,1.554843544960022,-0.3616151809692383,2.063035488128662
1789022027287390700,12.713390625,0.27326500415802,-2.1016221046447754,0.9692754745483398
1789022027297316400,12.72331640625,-1.075969934463501,-3.075364589691162,0.2796764373779297
1789022027307242200,12.7332421875,-2.794126272201538,-1.7385787963867188,1.9324688911437988
1789022027317167900,12.74316796875,-3.3898346424102783,0.7224555015563965,3.600268840789795
1789022027327093500,12.753093505859376,-0.0034410953521728516,0.748776912689209,2.292067050933838
