time,seconds_elapsed,z,y,x
1789022014788462800,0.214462890625,-0.31902414560317993,-0.04657844081521034,0.05039634555578232
1789022014798388500,0.224388427734375,-0.2542724609375,0.01695149764418602,0.05283980444073677
1789022014808314000,0.234314208984375,-0.19990549981594086,0.07376192510128021,0.06994401663541794
1789022014818239700,0.24423974609375,-0.17486004531383514,0.11713331937789917,0.08582650125026703
1789022014828165400,0.254165283203125,-0.19501857459545135,0.11163553595542908,0.07483093440532684
1789022014838091000,0.264091064453125,-0.2383899837732315,0.0902552679181099,0.0308486707508564
1789022014848016600,0.2740166015625,-0.28725916147232056,0.05299251899123192,-0.038789913058280945
1789022014857942300,0.2839423828125,-0.32330018281936646,-0.025809036567807198,-0.11698060482740402
1789022014867868000,0.293867919921875,-0.3257436454296112,-0.15592323243618011,-0.17806708812713623
1789022014877793500,0.30379345703125,-0.3098611533641815,-0.3306305706501007,-0.20922118425369263
1789022014887719000,0.313718994140625,-0.2854265570640564,-0.46807512640953064,-0.20922118425369263
1789022014897644500,0.32364453125,-0.21945317089557648,-0.5047270059585571,-0.189673513174057
1789022014907570200,0.333570068359375,-0.1724165827035904,-0.531605064868927,-0.19394956529140472
1789022014917495800,0.343495849609375,-0.15225805342197418,-0.5358811020851135,-0.2306014597415924
1789022014927421400,0.35342138671875,-0.12965604662895203,-0.4546361267566681,-0.2874118685722351
1789022014937347000,0.36334716796875,-0.10399972647428513,-0.3312414288520813,-0.3588830530643463
1789022014947272700,0.373272705078125,-0.08078686892986298,-0.24633121490478516,-0.4401280879974365
1789022014957198300,0.3831982421875,-0.05757400393486023,-0.26282456517219543,-0.508544921875
1789022014967124000,0.3931240234375,-0.042913250625133514,-0.34834563732147217,-0.5476402640342712
1789022014977049600,0.403049560546875,-0.03375028073787689,-0.45646870136260986,-0.5531380772590637
1789022014986975200,0.412975341796875,-0.023365577682852745,-0.5749764442443848,-0.526870846748352
1789022014996900900,0.42290087890625,-0.008093958720564842,-0.708145022392273,-0.4780016839504242
1789022015006826500,0.432826416015625,0.015729768201708794,-0.818711519241333,-0.41447174549102783
1789022015016752000,0.442752197265625,0.03894263133406639,-0.8602503538131714,-0.3436114490032196
1789022015026677800,0.452677734375,0.057268574833869934,-0.8211549520492554,-0.26419901847839355
1789022015036603400,0.462603271484375,0.08903354406356812,-0.6855430006980896,-0.1646280586719513
1789022015046529000,0.472529052734375,0.11652245372533798,-0.502894401550293,-0.035735588520765305
1789022015056454700,0.48245458984375,0.13912445306777954,-0.2860374450683594,0.10842850059270859
1789022015066380300,0.49238037109375,0.24174973368644714,-0.09605848789215088,0.2464839369058609
1789022015076306000,0.502305908203125,0.44211336970329285,0.21059563755989075,0.3601047992706299
1789022015086231600,0.5122314453125,0.5178605914115906,0.5074759125709534,0.5030471682548523
1789022015096157200,0.5221572265625,0.5245801210403442,0.5013672709465027,0.6618719696998596
1789022015106082800,0.532082763671875,0.5148062705993652,0.30772313475608826,0.8323032855987549
1789022015116008400,0.542008544921875,0.5349648594856262,-0.009926552884280682,1.0131192207336426
1789022015125934000,0.55193408203125,0.5795579552650452,-0.3935496211051941,1.1823288202285767
1789022015135859700,0.561859619140625,0.6577486395835876,-0.755181610584259,1.3393210172653198
1789022015145785600,0.57178564453125,0.7786998748779297,-0.984866738319397,1.479819893836975
1789022015155711200,0.581711181640625,0.9204205274581909,-1.0777181386947632,1.581834316253662
1789022015165636900,0.591636962890625,1.0511455535888672,-1.1058179140090942,1.6294817924499512
1789022015175562500,0.6015625,1.131779670715332,-1.1070396900177002,1.6050472259521484
1789022015185488000,0.61148779296875,1.1348340511322021,-1.1009310483932495,1.462715744972229
1789022015195413800,0.621413818359375,0.9925025701522827,-1.0978766679763794,1.1530072689056396
1789022015205339400,0.63133935546875,0.7622065544128418,-0.88285231590271,0.767551600933075
1789022015215265000,0.64126513671875,0.569173276424408,-0.4595230221748352,0.4517345130443573
1789022015225190700,0.651190673828125,0.4427242577075958,-0.011148282326757908,0.29962918162345886
1789022015235116300,0.6611162109375,0.34987279772758484,0.3156643807888031,0.3094030022621155
1789022015245042000,0.6710419921875,0.2698495090007782,0.4915934205055237,0.45051276683807373
1789022015254967600,0.680967529296875,0.19654574990272522,0.5477929711341858,0.6575959324836731
1789022015264893200,0.69089306640625,0.12446369975805283,0.5337430834770203,0.8249728679656982
1789022015274818800,0.70081884765625,0.06887500733137131,0.2790125012397766,0.8848376274108887
1789022015284744400,0.710744384765625,0.05971203371882439,-0.1724165827035904,0.8439096808433533
1789022015294670000,0.720670166015625,0.09941824525594711,-0.4992292523384094,0.7608320713043213
1789022015304595700,0.730595703125,0.18066325783729553,-0.6275108456611633,0.6429351568222046
1789022015314521600,0.740521484375,0.3321577310562134,-0.5676460862159729,0.47067132592201233
1789022015324447200,0.750447265625,0.5001455545425415,-0.4705185890197754,0.2764163017272949
1789022015334372900,0.760372802734375,0.6259836554527283,-0.4027126133441925,0.09437860548496246
1789022015344298500,0.770298583984375,0.6980656981468201,-0.3556760251522064,-0.06017018109560013
1789022015354224000,0.78022412109375,0.7023417949676514,-0.31352636218070984,-0.20799945294857025
1789022015364149800,0.790149658203125,0.616209864616394,-0.31719154119491577,-0.3503309488296509
1789022015374075400,0.800075439453125,0.4555523991584778,-0.388051837682724,-0.46028661727905273
1789022015384001000,0.8100009765625,0.2747364342212677,-0.47174033522605896,-0.4981602132320404
1789022015393927000,0.819927001953125,0.1415679156780243,-0.6116283535957336,-0.4303542375564575
1789022015403852500,0.8298525390625,0.09819651395082474,-0.8211549520492554,-0.28985533118247986
1789022015413778200,0.839778076171875,0.10797034949064255,-0.9195042252540588,-0.0565049909055233
1789022015423703800,0.849703857421875,0.08170316368341446,-1.022740364074707,0.22876885533332825
1789022015433629400,0.85962939453125,-0.027030766010284424,-1.180343508720398,0.4871646761894226
1789022015443555000,0.86955517578125,-0.19501857459545135,-1.2841905355453491,0.6801979541778564
1789022015453480700,0.879480712890625,-0.3685041666030884,-1.2499819993972778,0.805425226688385
1789022015463406600,0.889406494140625,-0.4552469849586487,-1.2872447967529297,0.9416480660438538
1789022015473332200,0.899332275390625,-0.4607447683811188,-1.4894410371780396,1.1163554191589355
1789022015483257900,0.9092578125,-0.4277580678462982,-1.6409355401992798,1.2470804452896118
1789022015493183500,0.91918359375,-0.28298309445381165,-1.8431317806243896,1.0222822427749634
1789022015503109000,0.929109130859375,-0.3068068325519562,-1.780212640762329,0.5335903763771057
1789022015513034800,0.93903466796875,-0.3520108163356781,-1.23348867893219,0.10598503798246384
1789022015522960600,0.948960693359375,-0.29214608669281006,-0.5786416530609131,-0.10659590363502502
1789022015532886300,0.95888623046875,-0.22434009611606598,-0.25243985652923584,-0.08399390429258347
1789022015542812000,0.96881201171875,-0.24694208800792694,-0.2750418782234192,0.0412333719432354
1789022015552737800,0.97873779296875,-0.3715584874153137,-0.41676250100135803,0.22937972843647003
1789022015562663400,0.988663330078125,-0.4607447683811188,-0.5493201613426208,0.44929105043411255
1789022015572589000,0.998589111328125,-0.3972148299217224,-0.6806560754776001,0.5763509273529053
1789022015582514700,1.0085146484375,-0.1974620372056961,-0.7948877811431885,0.5317577719688416
1789022015592440300,1.0184404296875,0.0206166859716177,-0.8608611822128296,0.364991694688797
1789022015602366200,1.0283662109375,0.20509785413742065,-0.8486438989639282,0.19639302790164948
1789022015612291800,1.038291748046875,0.38591381907463074,-0.8254310488700867,0.05100720748305321
1789022015622217500,1.048217529296875,0.5471821427345276,-0.8040507435798645,-0.057726722210645676
1789022015632143000,1.05814306640625,0.6168206930160522,-0.8028290271759033,-0.11698060482740402
1789022015642069000,1.068069091796875,0.5765036344528198,-0.8486438989639282,-0.11575887352228165
1789022015651994600,1.07799462890625,0.5655080676078796,-0.9103412628173828,-0.03145953640341759
1789022015661920300,1.087920166015625,0.6382009983062744,-1.068555235862732,0.09315688163042068
1789022015671846100,1.09784619140625,0.7506000995635986,-1.4033091068267822,0.21716243028640747
1789022015681771800,1.107771728515625,0.7658717036247253,-1.9616395235061646,0.3381136655807495
1789022015691697400,1.117697509765625,0.7677043080329895,-2.668410062789917,0.476779967546463
1789022015701623000,1.127623046875,0.9637919068336487,-3.3318092823028564,0.6362156867980957
1789022015711549000,1.137548828125,0.9601266980171204,-3.8773114681243896,0.7541125416755676
1789022015721474600,1.147474609375,0.8251255750656128,-4.487565517425537,0.878728985786438
1789022015731400200,1.157400146484375,0.7640390992164612,-5.034900188446045,1.0326669216156006
1789022015741326000,1.167326171875,0.782365083694458,-5.247481346130371,1.1145228147506714
1789022015751251700,1.177251708984375,0.8373429179191589,-5.080715179443359,1.072983980178833
1789022015761177300,1.18717724609375,0.9027054309844971,-4.690372467041016,0.9025527238845825
1789022015771103000,1.19710302734375,1.068860650062561,-4.309192657470703,0.581848680973053
1789022015781028900,1.20702880859375,1.31870436668396,-4.162585258483887,0.2202167510986328
1789022015790954500,1.21695458984375,1.5111267566680908,-4.381274700164795,-0.11514800786972046
1789022015800880400,1.22688037109375,1.6937752962112427,-4.749626159667969,-0.36621344089508057
1789022015810806000,1.236805908203125,1.9191844463348389,-5.105149745941162,-0.5256491303443909
1789022015820731600,1.246731689453125,2.173915147781372,-5.413636207580566,-0.6154462695121765
1789022015830657500,1.256657470703125,2.455523729324341,-5.6683669090271,-0.6716458201408386
1789022015840583200,1.266583251953125,2.6949827671051025,-5.857124328613281,-0.7461713552474976
1789022015850509000,1.276509033203125,2.855640172958374,-5.87667179107666,-0.89705491065979
1789022015860434700,1.2864345703125,2.9912521839141846,-5.68058443069458,-1.1065815687179565
1789022015870360300,1.2963603515625,3.0553929805755615,-5.488162040710449,-1.3741402626037598
1789022015880286200,1.3062861328125,3.0688319206237793,-5.318952560424805,-1.672242283821106
1789022015890211800,1.3162119140625,3.123809814453125,-4.978089809417725,-1.969733476638794
1789022015900137500,1.326137451171875,3.1311402320861816,-4.424646377563477,-2.218966245651245
1789022015910063400,1.3360634765625,3.0053019523620605,-3.7398669719696045,-2.417497396469116
1789022015919989000,1.345989013671875,2.869079113006592,-2.9878923892974854,-2.6166393756866455
1789022015929915000,1.355914794921875,2.8574726581573486,-2.2291982173919678,-2.830441951751709
1789022015939840500,1.365840576171875,2.938717842102051,-1.54930579662323,-2.995986223220825
1789022015949766100,1.37576611328125,3.0028586387634277,-0.9726494550704956,-3.0527968406677246
1789022015959692000,1.385692138671875,2.964984893798828,-0.33368489146232605,-2.905578374862671
1789022015969617700,1.39561767578125,2.8825182914733887,0.495258629322052,-2.330143690109253
1789022015979543300,1.405543212890625,2.782947301864624,0.9967786073684692,-1.6313143968582153
1789022015989469200,1.41546923828125,2.679711103439331,1.4420989751815796,-0.8836159110069275
1789022015999394800,1.425394775390625,2.5043928623199463,1.6186389923095703,-0.3283398151397705
1789022016009320700,1.43532080078125,2.2288928031921387,1.4054471254348755,-0.06017018109560013
1789022016019246300,1.445246337890625,1.9417864084243774,0.9821178317070007,0.08888082206249237
1789022016029172000,1.455171875,1.7285946607589722,0.5642863512039185,0.3094030022621155
1789022016039097900,1.465097900390625,1.5270092487335205,0.23686282336711884,0.5677987933158875
1789022016049023500,1.4750234375,1.3394737243652344,-0.20051635801792145,0.897665798664093
1789022016058949400,1.484949462890625,1.3168717622756958,-0.2952004075050354,1.06443190574646
1789022016068875000,1.494875,1.1977530717849731,0.08781181275844574,0.815199077129364
1789022016078801000,1.50480078125,1.1519381999969482,-0.1931859850883484,0.8530726432800293
1789022016088726500,1.5147265625,1.1727076768875122,-0.2530507445335388,0.9856303334236145
1789022016098652200,1.524652099609375,1.2478439807891846,-0.2897026240825653,1.3008365631103516
1789022016108578000,1.534578125,1.2130247354507446,0.10858121514320374,1.2696824073791504
1789022016118503700,1.544503662109375,1.281441569328308,0.08170316368341446,1.1994329690933228
1789022016128429600,1.5544296875,1.420718789100647,-0.3116937577724457,1.4352267980575562
1789022016138355200,1.564355224609375,1.5105159282684326,-0.44608399271965027,1.711337685585022
1789022016148281000,1.574281005859375,1.5080723762512207,-0.17302745580673218,1.6215405464172363
1789022016158206700,1.584206787109375,1.271056890487671,0.12446369975805283,0.9941824078559875
1789022016168132400,1.59413232421875,0.9063706398010254,0.23441936075687408,0.2159406989812851
1789022016178058200,1.604058349609375,0.6919570565223694,0.8410080671310425,-0.48105600476264954
1789022016187984000,1.61398388671875,0.6944005489349365,1.3400845527648926,-1.1475094556808472
1789022016197909800,1.62390966796875,0.8061888217926025,1.3968950510025024,-1.3942989110946655
1789022016207835400,1.63383544921875,0.753043532371521,1.4989094734191895,-1.0577123165130615
1789022016217761300,1.64376123046875,0.3358229100704193,1.2032508850097656,-0.45539969205856323
1789022016227687000,1.65368701171875,-0.22495095431804657,0.4237874448299408,-0.06017018109560013
1789022016237612800,1.66361279296875,-0.3831649422645569,-0.30802857875823975,-0.17134757339954376
1789022016247538400,1.673538330078125,-0.5108356475830078,-1.588401198387146,0.29962918162345886
1789022016257464300,1.68346435546875,0.05849030241370201,-1.7508912086486816,1.5561779737472534
1789022016267390000,1.693389892578125,0.21609342098236084,0.2087630331516266,2.0772457122802734
1789022016277315600,1.703315673828125,-0.09728021919727325,0.1824958473443985,1.0699297189712524
1789022016287241500,1.713241455078125,-0.3685041666030884,-0.4082103967666626,0.03634645417332649
1789022016339210500,1.76521044921875,0.2503018379211426,-0.8852958083152771,1.2348631620407104
1789022016349136100,1.77513623046875,0.22708898782730103,0.03955349326133728,0.8683443069458008
1789022016359062000,1.78506201171875,0.1049160286784172,0.43172869086265564,1.3106104135513306
1789022016368987600,1.794987548828125,-0.019700389355421066,0.3828594982624054,2.123060464859009
1789022016378913500,1.80491357421875,-0.1931859850883484,-0.32818710803985596,1.944688081741333
1789022016388839200,1.814839111328125,-0.4705185890197754,-0.314748078584671,0.9489784240722656
1789022016398765000,1.82476513671875,-0.34834563732147217,0.3303251266479492,0.4871646761894226
1789022016408690700,1.834690673828125,-0.008704823441803455,0.9350812435150146,0.46517354249954224
1789022016418616600,1.844616455078125,0.043829549103975296,0.8446732759475708,0.13530655205249786
1789022016428542200,1.854542236328125,-0.1418733447790146,0.4390590488910675,0.013133592903614044
1789022016438468000,1.864468017578125,-0.20173808932304382,0.028557928279042244,0.24770566821098328
1789022016448393700,1.874393798828125,-0.17363831400871277,-0.14248420298099518,0.5006036758422852
1789022016458319600,1.884319580078125,-0.12110394239425659,-0.10827577859163284,0.5861247777938843
1789022016468245200,1.894245361328125,-0.11866047978401184,-0.01908952370285988,0.5910117030143738
1789022016478171100,1.904171142578125,-0.17119485139846802,-0.14492766559123993,0.5800161361694336
1789022016488096800,1.9140966796875,-0.2530507445335388,-0.4234820008277893,0.6765327453613281
1789022016498022700,1.924022705078125,-0.3324631452560425,-0.8168789148330688,0.7327322959899902
1789022016507948300,1.9339482421875,-0.4766272306442261,-0.9598212838172913,0.7706059217453003
1789022016517874200,1.943874267578125,-0.4558578431606293,-1.0563379526138306,0.6704241037368774
1789022016527799800,1.9537998046875,-0.4851793646812439,-0.9854776263237,0.5506945848464966
1789022016537725700,1.9637255859375,-0.7319687008857727,-0.9463822841644287,0.6068941354751587
1789022016547651300,1.9736513671875,-0.8480330109596252,-1.251814603805542,0.7901535630226135
1789022016557577200,1.9835771484375,-1.0813833475112915,-1.4814997911453247,1.1065815687179565
1789022016567503000,1.993503173828125,-1.2096649408340454,-1.7160718441009521,0.9831868410110474
1789022016577428700,2.0034287109375,-1.1131483316421509,-1.7307326793670654,0.32100942730903625
1789022016587354600,2.013354736328125,-0.8040507435798645,-1.2029454708099365,-0.05528326332569122
1789022016597280300,2.0232802734375,-0.672104001045227,-0.698371171951294,-0.231212317943573
1789022016607206100,2.0332060546875,-0.9628756046295166,-0.7496837973594666,-0.04428769648075104
1789022016617131800,2.0431318359375,-1.0593922138214111,-1.1833977699279785,0.8268054723739624
1789022016627057700,2.0530576171875,-0.26648977398872375,-1.82724928855896,0.9868520498275757
1789022016636983300,2.0629833984375,-0.191964253783226,-2.0544910430908203,0.8854485154151917
1789022016646909200,2.0729091796875,-0.1003345400094986,-2.3122758865356445,1.1493420600891113
1789022016656835000,2.0828349609375,0.03894263133406639,-2.687346935272217,1.145676851272583
1789022016666760700,2.0927607421875,-0.19440771639347076,-2.788750410079956,0.8573487401008606
1789022016676686600,2.1026865234375,-0.4228711426258087,-2.0935862064361572,0.7082977294921875
1789022016686612200,2.1126123046875,0.3724747896194458,-0.9561560750007629,0.7327322959899902
1789022016696538000,2.1225380859375,0.6779071688652039,-1.0270164012908936,0.06444623321294785
1789022016706463700,2.132463623046875,0.4641045033931732,-1.068555235862732,-0.33017241954803467
1789022016716389600,2.1423896484375,0.4494437575340271,-1.251814603805542,-0.712573766708374
1789022016726315500,2.1523154296875,0.2393062710762024,-1.057559609413147,-0.776103675365448
1789022016736241200,2.1622412109375,0.18432845175266266,-0.8535308241844177,-0.7724385261535645
1789022016746167000,2.1721669921875,-0.02214384824037552,-0.7460185885429382,-0.8579595685005188
1789022016756092700,2.1820927734375,0.2087630331516266,-0.5737547278404236,-0.7357866168022156
1789022016766018600,2.1920185546875,0.4189005196094513,-0.32452189922332764,-0.5745183229446411
1789022016775944400,2.2019443359375,0.2796233594417572,-0.2341139316558838,-0.49510589241981506
1789022016785870000,2.2118701171875,0.1879936307668686,0.03222311660647392,-0.5317577719688416
1789022016795796000,2.2217958984375,0.16966769099235535,0.3523162603378296,-0.45967575907707214
1789022016805721900,2.231721923828125,0.15867212414741516,0.6027708053588867,-0.2507599890232086
1789022016815647500,2.2416474609375,0.3040579557418823,0.9326378107070923,-0.09437860548496246
1789022016825573400,2.251573486328125,0.4848739206790924,1.2307398319244385,-0.06750056147575378
1789022016835499000,2.2614990234375,0.4958694875240326,1.354134440422058,0.00946840364485979
1789022016845425000,2.2714248046875,0.46288278698921204,1.4763075113296509,0.12186752259731293
1789022016855350800,2.281350830078125,0.38591381907463074,1.3492475748062134,0.35277441143989563
1789022016865276400,2.2912763671875,0.33826637268066406,1.3064870834350586,0.693636953830719
1789022016875202300,2.301202392578125,0.1366809904575348,1.200196623802185,0.9782999157905579
1789022016885128200,2.311128173828125,-0.07589995115995407,1.0816887617111206,0.8182533979415894
1789022016895053800,2.3210537109375,0.0951421856880188,1.6229150295257568,0.7412844300270081
1789022016904979700,2.330979736328125,0.6388118267059326,3.0975425243377686,0.6142245531082153
1789022016914905600,2.340905517578125,0.7145590782165527,3.884336471557617,-0.04306596517562866
1789022016924831200,2.350831298828125,0.15378521382808685,2.6002986431121826,-0.6453786492347717
1789022016934757000,2.360757080078125,0.14889828860759735,1.6937752962112427,-0.2519817352294922
1789022016944682800,2.370682861328125,0.46166107058525085,1.9368995428085327,0.7266236543655396
1789022016954608600,2.380608642578125,0.1977674663066864,1.1073451042175293,0.18784092366695404
1789022016964534500,2.390534423828125,0.03649916872382164,0.3095557391643524,-0.34116798639297485
1789022016974460400,2.40046044921875,0.04505127668380737,0.48181959986686707,-0.3631591200828552
1789022016984386000,2.410385986328125,0.13790272176265717,0.7408262491226196,-0.3436114490032196
1789022016994312000,2.42031201171875,-0.05757400393486023,0.001679878099821508,-0.26542073488235474
1789022017004237800,2.43023779296875,-0.2897026240825653,-0.8975130915641785,-0.3020726442337036
1789022017014163500,2.44016357421875,-0.06734783947467804,-1.409417748451233,-0.14569124579429626
1789022017024089300,2.45008935546875,0.0792597085237503,-1.718515396118164,-0.12247838824987411
1789022017034015200,2.46001513671875,0.16600249707698822,-1.8504620790481567,-0.14691297709941864
1789022017043940900,2.46994091796875,0.0694858655333519,-2.111912250518799,-0.619722306728363
1789022017053866800,2.47986669921875,-0.15286891162395477,-2.0557126998901367,-0.6380482912063599
1789022017063792600,2.489792724609375,0.07070759683847427,-2.6274821758270264,-0.9947932958602905
1789022017073718300,2.49971826171875,-0.08200860023498535,-3.755138397216797,-1.1756092309951782
1789022017083644200,2.50964404296875,-0.09666935354471207,-4.579805850982666,-1.1951569318771362
1789022017093570000,2.519570068359375,-0.22495095431804657,-3.6977171897888184,-1.1756092309951782
1789022017103495700,2.52949560546875,-0.3923279047012329,-1.9628612995147705,-1.589775562286377
1789022017113421600,2.539421630859375,-0.08078686892986298,-1.5486949682235718,-1.7644829750061035
1789022017123347500,2.549347412109375,0.05604684352874756,-2.3342671394348145,-1.1059707403182983
1789022017133273300,2.5592734375,-0.025809036567807198,-2.1192426681518555,-0.8298597931861877
1789022017143199000,2.569198974609375,-0.191964253783226,-1.2298234701156616,-1.007010579109192
1789022017153124900,2.579124755859375,-0.14431680738925934,-0.3782780170440674,-1.3454296588897705
1789022017163050800,2.58905078125,0.005955931730568409,0.027336198836565018,-1.6142101287841797
1789022017172976400,2.598976318359375,0.29184064269065857,0.31810784339904785,-1.870773434638977
1789022017182902300,2.60890234375,0.8440623879432678,0.8239038586616516,-1.9660682678222656
1789022017192828200,2.618828125,1.7554726600646973,1.578932762145996,-1.9624030590057373
1789022017202753800,2.62875390625,2.995528221130371,1.9637775421142578,-1.9049818515777588
1789022017212679700,2.6386796875,4.487259864807129,2.0688462257385254,-1.7266093492507935
1789022017222605600,2.64860546875,5.82627534866333,2.252105712890625,-1.4602723121643066
1789022017232531500,2.658531494140625,6.857415199279785,2.9265005588531494,-1.1157444715499878
1789022017242457000,2.66845703125,7.976519584655762,3.749946117401123,-0.4572322964668274
1789022017252383000,2.678383056640625,8.351590156555176,4.084700107574463,0.38698282837867737
1789022017262308900,2.688308837890625,7.838464260101318,4.353480339050293,0.9355394244194031
1789022017272234800,2.69823486328125,3.1286966800689697,3.715737819671631,1.370475172996521
1789022017282160400,2.708160400390625,0.9882264733314514,3.5642433166503906,0.16829325258731842
1789022017292086300,2.718086181640625,1.5648828744888306,3.6363253593444824,-0.8396336436271667
1789022017302012200,2.72801220703125,2.012035846710205,3.7120726108551025,-0.8408553600311279
1789022017311938000,2.73793798828125,2.0242531299591064,3.2319328784942627,-1.0314451456069946
1789022017321863700,2.74786376953125,1.975383996963501,2.4707953929901123,-1.1658353805541992
1789022017331789600,2.75778955078125,1.7799072265625,1.5190680027008057,-1.1194096803665161
1789022017341715500,2.767715576171875,1.3657408952713013,0.4659371078014374,-0.9398154616355896
1789022017351641000,2.77764111328125,0.9124792814254761,-0.4503600597381592,-0.8872811198234558
1789022017361567000,2.78756689453125,0.5936078429222107,-1.0514509677886963,-1.0338886976242065
1789022017371492900,2.797492919921875,-0.033139415085315704,-1.6195552349090576,-0.9654718041419983
1789022017381418800,2.807418701171875,-0.9359975457191467,-3.0611960887908936,-0.8225294351577759
1789022017391344600,2.8173447265625,-1.5334233045578003,-4.154644012451172,-1.0509928464889526
1789022017401270300,2.827270263671875,-1.6299399137496948,-4.4942851066589355,-0.9471458196640015
1789022017411196200,2.837196044921875,-1.8926118612289429,-4.172969818115234,-1.0497710704803467
1789022017421122000,2.8471220703125,-2.003789186477661,-2.942688465118408,-1.617875337600708
1789022017431048000,2.8570478515625,-1.6910264492034912,-0.8889609575271606,-2.291048288345337
1789022017440973600,2.8669736328125,-1.881616234779358,-0.873078465461731,-2.818835496902466
1789022017450899500,2.8768994140625,-2.713613986968994,-1.5267038345336914,-2.5134031772613525
1789022017460825300,2.886825439453125,-1.9414809942245483,0.7457131743431091,-0.6038398146629333
1789022017470751200,2.896751220703125,-0.8468112945556641,0.9130901098251343,-1.1487312316894531
1789022017480676900,2.9066767578125,-0.4326449930667877,1.2380702495574951,-1.2440260648727417
1789022017490602800,2.916602783203125,-0.19440771639347076,1.1403318643569946,-0.8445205688476562
1789022017500528600,2.926528564453125,0.06337722390890121,0.754265308380127,-0.4780016839504242
1789022017510454500,2.93645458984375,0.05971203371882439,0.42195484042167664,-0.1798996776342392
1789022017520380200,2.946380126953125,-0.09422589093446732,0.40973755717277527,-0.07483093440532684
1789022017530306000,2.95630615234375,-0.38011062145233154,0.6882919073104858,-0.07360920310020447
1789022017540232000,2.96623193359375,-0.7747292518615723,0.938746452331543,-0.15057817101478577
1789022017550157800,2.97615771484375,-0.8688024282455444,1.0218240022659302,-0.3692677617073059
1789022017560083700,2.986083740234375,-0.9237802624702454,0.5795579552650452,-0.7589994668960571
1789022017570009300,2.99600927734375,-0.28725916147232056,-0.005650499369949102,-1.0571014881134033
1789022017579935200,3.005935302734375,0.9222530722618103,0.5306887626647949,-0.5390881896018982
1789022017589861000,3.015861083984375,1.5172353982925415,0.9656245112419128,-0.2886336147785187
1789022017599787000,3.025787109375,1.1494947671890259,0.5820014476776123,-0.38270679116249084
1789022017609713000,3.035712890625,0.6925679445266724,-0.2597702443599701,-0.282524973154068
1789022017619638500,3.045638427734375,0.7622065544128418,-0.7228057384490967,-0.15668681263923645
1789022017629564400,3.055564453125,0.7756455540657043,-0.6299542784690857,-0.1640172004699707
1789022017639490300,3.065490234375,0.44211336970329285,-0.3966039717197418,-0.2886336147785187
1789022017649416200,3.075416259765625,0.3993528485298157,-0.2793179154396057,-0.42791077494621277
1789022017659341800,3.085341796875,0.5031998753547668,0.09819651395082474,-0.5891790986061096
1789022017669267700,3.095267822265625,0.2796233594417572,0.8910989761352539,-0.6075050234794617
1789022017679193600,3.105193603515625,-0.1308777779340744,1.7511966228485107,-0.7247910499572754
1789022017689119500,3.115119384765625,-0.34834563732147217,2.2863142490386963,-0.6966912746429443
1789022017699045400,3.12504541015625,-0.3006981909275055,1.365130066871643,-0.5232056975364685
1789022017708971000,3.134970947265625,-0.31902414560317993,0.8251255750656128,-0.5879573225975037
1789022017718897000,3.14489697265625,0.11224640160799026,0.31444263458251953,-0.7101303339004517
1789022017728822800,3.15482275390625,1.4928008317947388,0.32788166403770447,-0.6856957077980042
1789022017738748700,3.164748779296875,1.4720313549041748,1.0780236721038818,-0.41325002908706665
1789022017748674600,3.174674560546875,0.6046034097671509,1.1488839387893677,-1.239139199256897
1789022017758600200,3.18460009765625,-0.2738201320171356,1.1122320890426636,-2.4205517768859863
1789022017768526000,3.194526123046875,-0.06734783947467804,2.6198463439941406,-2.430325508117676
1789022017778452000,3.204451904296875,0.41645705699920654,3.997957229614258,-1.9245294332504272
1789022017788377900,3.2143779296875,0.29794928431510925,4.245968341827393,-1.6936225891113281
1789022017798303700,3.2243037109375,0.7622065544128418,5.217243194580078,-1.8182389736175537
1789022017808229400,3.2342294921875,1.0383174419403076,4.2374162673950195,-1.239139199256897
1789022017818155300,3.2441552734375,1.1690424680709839,1.1537708044052124,-0.7736602425575256
1789022017828081200,3.2540810546875,0.6717985272407532,1.179427146911621,0.30146175622940063
1789022017838007000,3.264007080078125,0.680350661277771,1.093906044960022,-0.3851502537727356
1789022017847933000,3.273932861328125,0.9601266980171204,0.45738500356674194,-0.49021899700164795
1789022017857858600,3.283858642578125,0.053603384643793106,0.6650790572166443,0.23548837006092072
1789022017867784400,3.293784423828125,-0.13820815086364746,1.0682498216629028,0.27091851830482483
1789022017877710300,3.30371044921875,-0.06856957077980042,0.8471167087554932,-0.02107483521103859
1789022017887636200,3.31363623046875,-0.23716825246810913,0.6101012229919434,-0.3289506733417511
1789022017897562000,3.32356201171875,-0.45707955956459045,0.4243983030319214,-0.4975493550300598
1789022017907488000,3.333488037109375,-0.5963567495346069,0.35353797674179077,-0.48044514656066895
1789022017917413600,3.34341357421875,-0.6024653911590576,0.28267768025398254,-0.5012145638465881
1789022017927339500,3.353339599609375,-0.5010618567466736,0.24602578580379486,-0.5378664135932922
1789022017937265400,3.363265380859375,-0.3202458620071411,0.31932955980300903,-0.5256491303443909
1789022017947191300,3.37319140625,-0.11133010685443878,0.39996370673179626,-0.5427533388137817
1789022017957117000,3.383116943359375,0.018173227086663246,0.19104796648025513,-0.5928442478179932
1789022017967042800,3.393042724609375,0.07803797721862793,-0.05818486958742142,-0.6282744407653809
1789022017976968700,3.40296875,0.11102467030286789,-0.0154243353754282,-0.5891790986061096
1789022017986894600,3.41289453125,0.16355904936790466,0.05787943676114082,-0.5439751148223877
1789022017996820500,3.422820556640625,0.21975859999656677,-0.03497200831770897,-0.5904008150100708
1789022018006746400,3.432746337890625,0.23564109206199646,-0.24022257328033447,-0.6600393652915955
1789022018016672000,3.442672119140625,0.20143266022205353,-0.2695440948009491,-0.601396381855011
1789022018026598000,3.452597900390625,0.21609342098236084,-0.07162389904260635,-0.4816668927669525
1789022018036523800,3.462523681640625,0.27840161323547363,-0.030085090547800064,-0.43890634179115295
1789022018046449700,3.47244970703125,0.34926193952560425,-0.1876882016658783,-0.4621191918849945
1789022018056375600,3.48237548828125,0.36880961060523987,-0.3428478538990021,-0.4780016839504242
1789022018066301400,3.492301513671875,0.3260490894317627,-0.33429574966430664,-0.39248061180114746
1789022018076227000,3.50222705078125,0.33337944746017456,-0.2328922003507614,-0.1945604383945465
1789022018086153000,3.512153076171875,0.41523534059524536,-0.263435423374176,-0.07605266571044922
1789022018096078800,3.522078857421875,0.42012226581573486,-0.3208567202091217,-0.13958260416984558
1789022018106004700,3.532004638671875,0.3675878942012787,-0.2597702443599701,-0.24831652641296387
1789022018115930600,3.5419306640625,0.31261005997657776,-0.18524473905563354,-0.2971857190132141
1789022018125856300,3.551856201171875,0.26740604639053345,-0.15836669504642487,-0.2202167510986328
1789022018135782100,3.5617822265625,0.24052800238132477,-0.19013166427612305,-0.11881320178508759
1789022018145708000,3.5717080078125,0.14767655730247498,-0.15225805342197418,-0.12980876863002777
1789022018155634000,3.581634033203125,0.010842849500477314,0.04566214233636856,-0.24831652641296387
1789022018165559800,3.591559814453125,-0.10888664424419403,0.24236060678958893,-0.3851502537727356
1789022018175485700,3.601485595703125,-0.18341214954853058,0.4072940945625305,-0.4266890585422516
1789022018185411300,3.611411376953125,-0.2078467458486557,0.46227192878723145,-0.4303542375564575
1789022018195337200,3.621337158203125,-0.24083344638347626,0.48304131627082825,-0.5146535634994507
1789022018205263000,3.63126318359375,-0.31291547417640686,0.6003273725509644,-0.6600393652915955
1789022018215189000,3.64118896484375,-0.4228711426258087,0.6357575058937073,-0.7980948090553284
1789022018225115000,3.651114990234375,-0.5193877816200256,0.578336238861084,-0.9410371780395508
1789022018235040800,3.661040771484375,-0.6354520916938782,0.3364337682723999,-1.1084141731262207
1789022018244966400,3.67096630859375,-0.7441860437393188,0.011453714221715927,-1.3429862260818481
1789022018254892300,3.680892333984375,-0.8272636532783508,-0.13881902396678925,-1.5347977876663208
1789022018264818200,3.690818115234375,-0.8785762786865234,-0.1314886510372162,-1.6032146215438843
1789022018274744000,3.700744140625,-0.911562979221344,-0.06795870512723923,-1.5567889213562012
1789022018284670000,3.710669921875,-0.9274454712867737,0.05543597787618637,-1.4297289848327637
1789022018294595800,3.720595947265625,-0.9042325615882874,0.249690979719162,-1.2928953170776367
1789022018304521700,3.730521728515625,-0.8333722949028015,0.49892380833625793,-1.181717872619629
1789022018314447400,3.740447265625,-0.8150463104248047,0.986393928527832,-1.046105980873108
1789022018324373200,3.750373291015625,-0.8455895781517029,1.4030036926269531,-0.9056070446968079
1789022018334299100,3.760299072265625,-0.8419243693351746,1.4701987504959106,-0.7699950337409973
1789022018344225000,3.77022509765625,-0.799163818359375,1.2637264728546143,-0.7614429593086243
1789022018354151000,3.78015087890625,-0.74540776014328,1.0157153606414795,-0.8506292104721069
1789022018364076800,3.790076904296875,-0.7295252680778503,0.7359393239021301,-0.8946114778518677
1789022018374002700,3.800002685546875,-0.7380773425102234,0.3987419903278351,-0.9019418358802795
1789022018383928300,3.80992822265625,-0.7270817756652832,0.02367101050913334,-0.9544762372970581
1789022018393854200,3.819854248046875,-0.6928733587265015,-0.3868301212787628,-1.0290017127990723
1789022018403780000,3.829780029296875,-0.652556300163269,-0.6617192625999451,-1.0571014881134033
1789022018413706000,3.8397060546875,-0.6892082095146179,-0.35873034596443176,-1.0082323551177979
1789022018423632000,3.8496318359375,-0.6892082095146179,0.14340050518512726,-0.8432988524436951
1789022018433557800,3.859557861328125,-0.7136427760124207,0.606436014175415,-0.6856957077980042
1789022018443483400,3.8694833984375,-0.8443678617477417,0.9753983616828918,-0.7345649003982544
1789022018453409300,3.8794091796875,-0.8736893534660339,0.6785180568695068,-1.0045671463012695
1789022018463335200,3.889335205078125,-0.8260418772697449,-0.366060733795166,-1.2818996906280518
1789022018473261000,3.899260986328125,-0.7392991185188293,-1.4020873308181763,-1.4089596271514893
1789022018483187000,3.90918701171875,-0.6769908666610718,-1.5560252666473389,-1.3307689428329468
1789022018493112800,3.91911279296875,-0.6696605086326599,-1.1003202199935913,-1.14017915725708
1789022018503038700,3.929038818359375,-0.6965385675430298,-0.4699077308177948,-1.0290017127990723
1789022018512964400,3.93896435546875,-0.7625119686126709,-0.04108065739274025,-0.9947932958602905
1789022018522890200,3.94889013671875,-0.8981239199638367,-0.10338886082172394,-1.0143409967422485
1789022018532816100,3.958816162109375,-0.9543235301971436,-0.6861538887023926,-1.092531681060791
1789022018542742000,3.968741943359375,-0.9274454712867737,-1.299462080001831,-1.1523964405059814
1789022018552668000,3.97866796875,-0.9054543375968933,-1.3471095561981201,-1.2159262895584106
1789022018562593800,3.98859375,-0.8700241446495056,-0.8840740323066711,-1.2513564825057983
1789022018572519700,3.998519775390625,-0.8321505188941956,-0.37583455443382263,-1.2232567071914673
1789022018582445600,4.008445556640625,-0.7502946853637695,-0.2182314395904541,-1.1609485149383545
1789022018592371200,4.01837109375,-0.7014254927635193,-0.5432115197181702,-1.046105980873108
1789022018602297000,4.028297119140625,-0.6513345837593079,-0.9121738076210022,-0.9862411618232727
1789022018612223000,4.038222900390625,-0.551152765750885,-0.8132137656211853,-1.0216712951660156
1789022018622148900,4.04814892578125,-0.4326449930667877,-0.5077813267707825,-0.9605848789215088
1789022018632074800,4.05807470703125,-0.26282456517219543,-0.30375251173973083,-0.757777750492096
1789022018642000600,4.068000732421875,-0.20418155193328857,-0.38072147965431213,-0.5806269645690918
1789022018651926500,4.077926513671875,-0.33857181668281555,-0.522442102432251,-0.4816668927669525
1789022018661852400,4.087852294921875,-0.3165806829929352,-0.35384342074394226,-0.5378664135932922
1789022018671778300,4.0977783203125,-0.22006404399871826,-0.10216713696718216,-0.4682278633117676
1789022018681704000,4.107703857421875,-0.13209950923919678,-0.0154243353754282,-0.27397283911705017
1789022018691629800,4.1176298828125,-0.06734783947467804,0.06765327602624893,-0.19089524447917938
1789022018701555700,4.1275556640625,-0.023365577682852745,0.13973531126976013,-0.18234314024448395
1789022018711481600,4.137481689453125,0.05849030241370201,0.14706569910049438,-0.051618073135614395
1789022018721407500,4.147407470703125,0.14523309469223022,0.21548254787921906,0.06322450190782547
1789022018731333400,4.15733349609375,0.24174973368644714,0.32299473881721497,0.05345066636800766
1789022018741259300,4.16725927734375,0.2441931962966919,0.2228129357099533,0.019242240116000175
1789022018751185000,4.177184814453125,0.2747364342212677,0.07498364895582199,0.02412915788590908
1789022018761110800,4.18711083984375,0.37980517745018005,0.06520981341600418,0.03634645417332649
1789022018771036700,4.19703662109375,0.5410735011100769,0.2838993966579437,0.0668896958231926
1789022018780962600,4.206962646484375,0.7096721529960632,0.5917752385139465,0.08521563559770584
1789022018790888400,4.216888427734375,0.8257364630699158,0.7066178321838379,0.13041962683200836
1789022018800814300,4.226814453125,0.9271399974822998,0.5954404473304749,0.2098320573568344
1789022018810740200,4.236740234375,1.0163263082504272,0.40607234835624695,0.19639302790164948
1789022018820666000,4.246666015625,1.0749692916870117,0.1971566081047058,0.18417572975158691
1789022018830592000,4.256592041015625,1.1311688423156738,0.2179260104894638,0.20250166952610016
1789022018840518000,4.266517822265625,1.2142465114593506,0.4647153913974762,0.16829325258731842
1789022018850443500,4.276443603515625,1.2961024045944214,0.586888313293457,0.19150610268115997
1789022018860369400,4.286369384765625,1.3571888208389282,0.5575668215751648,0.22815799713134766
1789022018870295300,4.29629541015625,1.392619013786316,0.48914995789527893,0.2049451321363449
1789022018880221200,4.30622119140625,1.399949312210083,0.3352120518684387,0.24281874299049377
1789022018890147000,4.31614697265625,1.4708096981048584,0.26190826296806335,0.3197877109050751
1789022018900073000,4.326072998046875,1.557552456855774,0.40485063195228577,0.22449280321598053
1789022018909998800,4.335998779296875,1.641851782798767,0.753043532371521,0.007024944759905338
1789022018919924700,4.3459248046875,1.8458806276321411,1.1916444301605225,-0.0565049909055233
1789022018929850400,4.355850341796875,1.9814926385879517,1.2050834894180298,0.05711585655808449
1789022018939776300,4.3657763671875,1.8849760293960571,0.8776599764823914,0.16707152128219604
1789022018949702100,4.3757021484375,1.7224860191345215,0.5196931958198547,0.15485422313213348
1789022018959628000,4.3856279296875,1.5893174409866333,0.0896444097161293,0.14508038759231567
1789022018969554000,4.395553955078125,1.5502220392227173,-0.0386371985077858,0.18661919236183167
1789022018979479800,4.405479736328125,1.633299708366394,0.12140937149524689,0.18661919236183167
1789022018989405700,4.41540576171875,1.6687299013137817,0.25579962134361267,0.10965022444725037
1789022018999331600,4.42533154296875,1.5990912914276123,0.0847574844956398,0.10965022444725037
1789022019009257500,4.435257568359375,1.5123485326766968,-0.11316270381212234,0.20616686344146729
1789022019019183400,4.445183349609375,1.4879138469696045,0.0334448479115963,0.3087921440601349
1789022019029109200,4.455109130859375,1.5135701894760132,0.5746710300445557,0.30146175622940063
1789022019039035000,4.465034912109375,1.5428917407989502,0.9350812435150146,0.24281874299049377
1789022019048960800,4.474960693359375,1.5331178903579712,0.8263473510742188,0.2574795186519623
1789022019058886700,4.48488671875,1.5086833238601685,0.47815442085266113,0.2660316228866577
1789022019068812500,4.4948125,1.4048362970352173,0.12018764764070511,0.21471896767616272
1789022019078738400,4.504738525390625,1.2680025100708008,0.0334448479115963,0.24526220560073853
1789022019088664300,4.514664306640625,1.1751511096954346,0.22159120440483093,0.29046618938446045
1789022019098590200,4.524590087890625,1.1030690670013428,0.3816377818584442,0.22693626582622528
1789022019108516000,4.53451611328125,1.0358740091323853,0.4757109582424164,0.1585194170475006
1789022019118441700,4.544441650390625,0.97600919008255,0.41706791520118713,0.13775001466274261
1789022019128367600,4.55436767578125,0.8208495378494263,0.13973531126976013,0.0668896958231926
1789022019138293500,4.56429345703125,0.6131555438041687,-0.0435241162776947,-0.013744457624852657
1789022019148219400,4.574219482421875,0.38102689385414124,-0.07284562289714813,-0.11026109009981155
1789022019158145300,4.584145263671875,0.1562286615371704,-0.16569706797599792,-0.1640172004699707
1789022019168071200,4.5940712890625,0.027947064489126205,-0.1974620372056961,-0.12247838824987411
1789022019177997000,4.6039970703125,-0.04535670951008797,-0.2744309902191162,-0.10903936624526978
1789022019187923000,4.6139228515625,-0.06612611562013626,-0.27687445282936096,-0.10659590363502502
1789022019197848800,4.623848876953125,-0.10766492038965225,-0.3782780170440674,-0.16768237948417664
1789022019207774700,4.633774658203125,-0.191964253783226,-0.6617192625999451,-0.29962918162345886
1789022019217700400,4.643700439453125,-0.23472478985786438,-0.7631227970123291,-0.3656025826931
1789022019227626200,4.653626220703125,-0.2078467458486557,-0.6348412036895752,-0.37171122431755066
1789022019237552000,4.66355224609375,-0.17119485139846802,-0.3477347791194916,-0.35216355323791504
1789022019247478000,4.67347802734375,-0.13698641955852509,0.11285726726055145,-0.2409861534833908
1789022019257404000,4.68340380859375,-0.10399972647428513,0.4634936451911926,-0.07849612087011337
1789022019267329800,4.693329833984375,-0.14920371770858765,0.5196931958198547,-0.019853105768561363
1789022019277255700,4.703255615234375,-0.24205516278743744,0.6186532974243164,-0.08949168771505356
1789022019287181600,4.713181640625,-0.3507890999317169,0.772591233253479,-0.231212317943573
1789022019297107500,4.723107421875,-0.41065385937690735,0.7786998748779297,-0.3802633285522461
1789022019307033000,4.733033203125,-0.4082103967666626,0.7762564420700073,-0.4523453712463379
1789022019316959000,4.742958984375,-0.4644099473953247,0.679739773273468,-0.4889972507953644
1789022019326884900,4.752884765625,-0.5523744821548462,0.495258629322052,-0.5403099060058594
1789022019336810800,4.762810791015625,-0.633008599281311,0.495258629322052,-0.5598575472831726
1789022019346736600,4.772736572265625,-0.6391173005104065,0.6235402226448059,-0.49144071340560913
1789022019356662500,4.78266259765625,-0.5279398560523987,0.5160280466079712,-0.2874118685722351
1789022019366588400,4.79258837890625,-0.4045451879501343,0.30833399295806885,-0.03695731982588768
1789022019376514300,4.802514404296875,-0.3068068325519562,0.15073087811470032,0.04734202101826668
1789022019386440000,4.81243994140625,-0.3116937577724457,-0.0154243353754282,-0.06627883017063141
1789022019396365800,4.82236572265625,-0.38499751687049866,0.016340631991624832,-0.23854269087314606
1789022019406291700,4.832291748046875,-0.3972148299217224,0.1519526094198227,-0.3191768527030945
1789022019416217600,4.842217529296875,-0.35323256254196167,0.1519526094198227,-0.2715294063091278
1789022019426143500,4.8521435546875,-0.34956738352775574,0.14462223649024963,-0.1493564397096634
1789022019436069400,4.8620693359375,-0.32879796624183655,0.1568395346403122,-0.07360920310020447
1789022019445995300,4.871995361328125,-0.30314165353775024,0.11163553595542908,-0.06872228533029556
1789022019455921200,4.881921142578125,-0.3019199073314667,0.040775224566459656,-0.11636973917484283
1789022019465847000,4.891846923828125,-0.3214675784111023,-0.22678354382514954,-0.21655155718326569
1789022019475772700,4.901772705078125,-0.3678933084011078,-0.5236638188362122,-0.3032943606376648
1789022019485698600,4.911698486328125,-0.4546361267566681,-0.5432115197181702,-0.34605491161346436
1789022019495624400,4.92162451171875,-0.5572614073753357,-0.2903134822845459,-0.3631591200828552
1789022019505550300,4.93155029296875,-0.6476693749427795,0.07498364895582199,-0.39370235800743103
1789022019515476200,4.941476318359375,-0.7344121932983398,0.4500546157360077,-0.4682278633117676
1789022019525402000,4.951402099609375,-0.818711519241333,0.5416843295097351,-0.6160571575164795
1789022019535328000,4.961327880859375,-0.8932369947433472,0.21426081657409668,-0.7919861674308777
1789022019545253600,4.971253662109375,-0.9164499044418335,-0.19013166427612305,-0.8652899861335754
1789022019555179500,4.981179443359375,-0.9274454712867737,-0.37461283802986145,-0.8665117025375366
1789022019565105400,4.99110546875,-0.9640973210334778,-0.30863943696022034,-0.8481857180595398
1789022019575031300,5.00103125,-1.2243257761001587,-0.05451968312263489,-0.8701768517494202
1789022019584957200,5.010957275390625,-1.4246894121170044,0.1617264449596405,-0.9764673709869385
1789022019594883000,5.020883056640625,-1.51143217086792,0.09819651395082474,-1.0241148471832275
1789022019604809000,5.03080908203125,-1.5334233045578003,-0.2756527364253998,-1.0778708457946777
1789022019614734800,5.04073486328125,-1.5383102893829346,-0.6030762791633606,-1.1829396486282349
1789022019624660500,5.050660400390625,-1.5566362142562866,-0.6409498453140259,-1.211039423942566
1789022019634586400,5.06058642578125,-1.5334233045578003,-0.550541877746582,-1.191491723060608
1789022019644512300,5.07051220703125,-1.4747803211212158,-0.5688678026199341,-1.1145228147506714
1789022019654438100,5.080438232421875,-1.4808889627456665,-0.7704532146453857,-0.9703587293624878
1789022019664364000,5.090364013671875,-1.5248712301254272,-0.9231693744659424,-0.8933897614479065
1789022019674290000,5.1002900390625,-1.4686716794967651,-0.8205441236495972,-0.8616247773170471
1789022019684215800,5.1102158203125,-1.3990330696105957,-0.6898190379142761,-0.7993165850639343
1789022019694141700,5.1201416015625,-1.2939642667770386,-0.3917170464992523,-0.7663298845291138
1789022019704067300,5.1300673828125,-1.1009310483932495,0.050549060106277466,-0.7333431839942932
1789022019713993200,5.1399931640625,-0.8626937866210938,0.36453354358673096,-0.5635227560997009
1789022019723919000,5.149919189453125,-0.6366738080978394,0.5184714794158936,-0.2837466895580292
1789022019733845000,5.159844970703125,-0.39965829253196716,0.5710058808326721,-0.061391908675432205
1789022019743771000,5.16977099609375,-0.2603811025619507,0.3510945439338684,0.016798781231045723
1789022019753696800,5.17969677734375,-0.11621702462434769,0.09208786487579346,0.00946840364485979
1789022019763622700,5.18962255859375,0.014508038759231567,-0.0032070400193333626,-0.011300998739898205
1789022019773548300,5.19954833984375,0.12690715491771698,0.12385283410549164,0.01435532234609127
1789022019783474200,5.20947412109375,0.29184064269065857,0.48670652508735657,0.0766635313630104
1789022019793400000,5.219400146484375,0.4909825623035431,0.9656245112419128,0.08155044913291931
1789022019803326000,5.229325927734375,0.6339249014854431,1.0071632862091064,0.11698060482740402
1789022019813251800,5.239251953125,0.7377719283103943,0.7139481902122498,0.20372340083122253
1789022019823177700,5.249177734375,0.8599448800086975,0.4964803457260132,0.29535311460494995
1789022019833103600,5.259103515625,1.0248783826828003,0.4708240330219269,0.34666576981544495
1789022019843029500,5.269029541015625,1.1946988105773926,0.4451677203178406,0.3796524703502655
1789022019852955100,5.278955078125,1.3694061040878296,0.3730856776237488,0.4517345130443573
1789022019862881000,5.288881103515625,1.5599958896636963,0.3620901107788086,0.46028661727905273
1789022019872807000,5.298806884765625,1.7114903926849365,0.2228129357099533,0.46028661727905273
1789022019882732800,5.30873291015625,1.836106777191162,0.1568395346403122,0.5409207344055176
1789022019892658700,5.31865869140625,1.9326233863830566,0.3510945439338684,0.5067123174667358
1789022019902584600,5.32858447265625,1.9521710872650146,0.5820014476776123,0.4260781705379486
1789022019912510500,5.338510498046875,1.9680535793304443,0.7151699662208557,0.38209593296051025
1789022019922436000,5.34843603515625,1.966831922531128,0.7921388745307922,0.2977965772151947
1789022019932362000,5.358362060546875,1.9863795042037964,0.5991056561470032,0.25870123505592346
1789022019942288000,5.368287841796875,2.0157010555267334,0.4427242577075958,0.26480987668037415
1789022019952213800,5.3782138671875,1.9998185634613037,0.4427242577075958,0.2110537886619568
1789022019962139600,5.3881396484375,1.9289582967758179,0.3657552897930145,0.20250166952610016
1789022019972065500,5.3980654296875,1.9020801782608032,0.19349141418933868,0.2660316228866577
1789022019981991400,5.407991455078125,1.937510371208191,0.41706791520118713,0.2110537886619568
1789022019991917300,5.417917236328125,1.9790492057800293,0.7249437570571899,0.0925460159778595
1789022020001843200,5.42784326171875,1.966831922531128,0.6015490889549255,0.07422006875276566
1789022020011768800,5.437768798828125,1.9106323719024658,0.44638943672180176,0.07788526266813278
1789022020021694700,5.44769482421875,1.8519892692565918,0.5477929711341858,0.05345066636800766
1789022020031620600,5.45762060546875,1.7676899433135986,0.8312342762947083,0.10476330667734146
1789022020041546500,5.46754638671875,1.7029383182525635,0.9106466770172119,0.12431098520755768
1789022020051472400,5.477472412109375,1.6100867986679077,0.7506000995635986,0.11209368705749512
1789022020061398300,5.487398193359375,1.528230905532837,0.568562388420105,0.13530655205249786
1789022020071324200,5.49732421875,1.4512619972229004,0.48304131627082825,0.12064579129219055
1789022020081250000,5.50725,1.3461933135986328,0.5294670462608337,0.11575887352228165
1789022020091176000,5.517176025390625,1.2704460620880127,0.7554870247840881,0.09621120244264603
1789022020101101800,5.527101806640625,1.1800380945205688,0.8214604258537292,0.06933315098285675
1789022020111027700,5.53702783203125,0.9943351149559021,0.5991056561470032,0.09987638890743256
1789022020120953300,5.546953369140625,0.7976366877555847,0.37919431924819946,0.07422006875276566
1789022020130879200,5.556879150390625,0.5936078429222107,0.15073087811470032,-0.07971785217523575
1789022020140805000,5.56680517578125,0.3272708058357239,0.1104138121008873,-0.2263254076242447
1789022020150731000,5.57673095703125,0.06582067906856537,0.046883873641490936,-0.32039856910705566
1789022020160657000,5.586656982421875,-0.16875138878822327,-0.2280052751302719,-0.37781986594200134
1789022020170582800,5.596582763671875,-0.3605629503726959,-0.471129447221756,-0.4376846253871918
1789022020180508700,5.6065087890625,-0.4912880063056946,-0.5053378939628601,-0.47555822134017944
1789022020190434600,5.6164345703125,-0.6012436747550964,-0.5163334608078003,-0.5623010396957397
1789022020200360400,5.6263603515625,-0.6769908666610718,-0.45158177614212036,-0.6661480665206909
1789022020210286300,5.636286376953125,-0.6928733587265015,-0.19624030590057373,-0.7137954831123352
1789022020220212200,5.646212158203125,-0.6537780165672302,0.1104138121008873,-0.6563742160797119
1789022020230138000,5.65613818359375,-0.6220130324363708,0.13729186356067657,-0.5830704569816589
1789022020240064000,5.66606396484375,-0.6061305999755859,-0.045967575162649155,-0.5170970559120178
1789022020249990000,5.675989990234375,-0.6012436747550964,-0.0386371985077858,-0.435241162776947
1789022020259915800,5.685915771484375,-0.6476693749427795,0.2228129357099533,-0.3594939112663269
1789022020269841700,5.695841552734375,-0.7380773425102234,0.33887723088264465,-0.40836310386657715
1789022020279767600,5.705767578125,-0.8040507435798645,0.2594648003578186,-0.6123919486999512
1789022020289693200,5.715693115234375,-0.8113811612129211,0.3119991719722748,-0.8103121519088745
1789022020299619000,5.725619140625,-0.7930551767349243,0.5380191802978516,-0.8359684348106384
1789022020309545000,5.735544921875,-0.7735075354576111,0.6345357894897461,-0.629496157169342
1789022020319470800,5.745470947265625,-0.7148644924163818,0.4805978536605835,-0.35705047845840454
1789022020329396700,5.755396728515625,-0.5548179149627686,0.16539163887500763,-0.15790854394435883
1789022020339322600,5.765322509765625,-0.347123920917511,-0.2390008419752121,-0.11026109009981155
1789022020349248500,5.77524853515625,-0.29214608669281006,-0.49800750613212585,-0.24953825771808624
1789022020359174400,5.78517431640625,-0.31291547417640686,-0.3819431960582733,-0.42913252115249634
1789022020369100300,5.795100341796875,-0.11377356201410294,-0.08139773458242416,-0.3900371491909027
1789022020379026200,5.805026123046875,0.0951421856880188,-0.07528908550739288,-0.15057817101478577
1789022020388952000,5.8149521484375,0.02672533318400383,-0.1510363221168518,-0.028405211865901947
1789022020398878000,5.8248779296875,-0.1565341055393219,-0.2964221239089966,-0.13591741025447845
1789022020408803800,5.834803955078125,-0.3092502951622009,-0.5823068618774414,-0.2458730787038803
1789022020418729700,5.844729736328125,-0.43753188848495483,-0.819322407245636,-0.2556469142436981
1789022020428655600,5.854655517578125,-0.4534143805503845,-0.8669698238372803,-0.23487751185894012
1789022020438581500,5.86458154296875,-0.43142324686050415,-0.6519454121589661,-0.25931209325790405
1789022020448507400,5.87450732421875,-0.48884454369544983,-0.30375251173973083,-0.3607156574726105
1789022020458433300,5.884433349609375,-0.5755873322486877,-0.08017600327730179,-0.4889972507953644
1789022020468359200,5.894359130859375,-0.6843212842941284,-0.2023489624261856,-0.5940660238265991
1789022020478285000,5.90428515625,-0.808937668800354,-0.5639809370040894,-0.7040216326713562
1789022020488211000,5.9142109375,-0.8981239199638367,-0.9989166259765625,-0.9153808951377869
1789022020498136800,5.92413671875,-0.9628756046295166,-1.244484305381775,-1.1389573812484741
1789022020508062700,5.934062744140625,-1.0276272296905518,-1.1846195459365845,-1.1743875741958618
1789022020517988600,5.943988525390625,-1.159574031829834,-0.9121738076210022,-1.072983980178833
1789022020527914500,5.95391455078125,-1.3807071447372437,-0.5383245944976807,-1.0558797121047974
1789022020537840400,5.96384033203125,-1.605505347251892,-0.12415826320648193,-1.1780527830123901
1789022020547766300,5.973766357421875,-1.744782567024231,0.11163553595542908,-1.3136646747589111
1789022020557692200,5.983692138671875,-1.8290818929672241,-0.11438442766666412,-1.324660301208496
1789022020567618000,5.9936181640625,-1.9060508012771606,-0.6763800382614136,-1.230587124824524
1789022020577544000,6.0035439453125,-1.9964587688446045,-1.0795507431030273,-1.1475094556808472
1789022020587469800,6.0134697265625,-2.0221152305603027,-1.0086904764175415,-1.0961968898773193
1789022020597395700,6.023395751953125,-1.9805762767791748,-0.7228057384490967,-1.0009019374847412
1789022020607321600,6.033321533203125,-1.9402592182159424,-0.5187768936157227,-0.8640682101249695
1789022020617247500,6.04324755859375,-1.9023855924606323,-0.32452189922332764,-0.7150171995162964
1789022020627173400,6.05317333984375,-1.9023855924606323,-0.26099199056625366,-0.5586358308792114
1789022020637099000,6.06309912109375,-1.8657337427139282,-0.42103853821754456,-0.4718930423259735
1789022020647025200,6.073025146484375,-1.7105741500854492,-0.5542070865631104,-0.37659814953804016
1789022020656950800,6.08295068359375,-1.530979871749878,-0.4857902228832245,-0.21777328848838806
1789022020666876700,6.092876708984375,-1.2426517009735107,-0.1204930767416954,-0.07238747924566269
1789022020676802600,6.102802490234375,-0.8101593852043152,0.37064221501350403,0.02779434807598591
1789022020686728400,6.112728515625,-0.47174033522605896,0.46227192878723145,0.11942406743764877
1789022020696654300,6.122654296875,-0.24816381931304932,0.291229784488678,0.2110537886619568
1789022020706580200,6.132580322265625,-0.05024362727999687,0.23625195026397705,0.2721402645111084
1789022020716506000,6.142506103515625,0.10613775253295898,0.4488328993320465,0.33200499415397644
1789022020726432000,6.152431884765625,0.268627792596817,0.7127264738082886,0.37843072414398193
1789022020736358000,6.16235791015625,0.49220430850982666,0.86544269323349,0.4468475878238678
1789022020746283800,6.17228369140625,0.7878628373146057,0.9424116611480713,0.5519163012504578
1789022020756209700,6.182209716796875,1.0615302324295044,0.7884737253189087,0.572685718536377
1789022020766135600,6.192135498046875,1.2838850021362305,0.3633118271827698,0.5555815100669861
1789022020776061400,6.2020615234375,1.3950624465942383,-0.10827577859163284,0.5910117030143738
1789022020785987300,6.2119873046875,1.4182753562927246,-0.46746426820755005,0.7058542370796204
1789022020795913200,6.221913330078125,1.4695879220962524,-0.4454731345176697,0.7852666974067688
1789022020805839000,6.231839111328125,1.6650646924972534,-0.03130681812763214,0.7791580557823181
1789022020815765000,6.241764892578125,1.9167410135269165,0.33276858925819397,0.711962878704071
1789022020825691000,6.25169091796875,2.1000003814697266,0.49281516671180725,0.7449495792388916
1789022020835616800,6.26161669921875,2.255160093307495,0.5221366882324219,0.804814338684082
1789022020845542700,6.271542724609375,2.3150248527526855,0.586888313293457,0.7803797721862793
1789022020855468500,6.281468505859375,2.2282819747924805,0.32299473881721497,0.7644972801208496
1789022020865394400,6.29139453125,2.1757476329803467,-0.05451968312263489,0.7522799968719482
1789022020875320300,6.3013203125,2.196516990661621,0.05177079141139984,0.7095194458961487
1789022020885246200,6.31124609375,2.19040846824646,0.2606865465641022,0.6582068204879761
1789022020895172000,6.321172119140625,2.176969289779663,0.2802342176437378,0.6911935210227966
1789022020905098000,6.331097900390625,2.185521364212036,0.1971566081047058,0.8133664727210999
1789022020915024000,6.34102392578125,2.2221734523773193,0.27656903862953186,0.8683443069458008
1789022020924949800,6.35094970703125,2.2392776012420654,0.3889681398868561,0.8768963813781738
1789022020934875600,6.360875732421875,2.181856393814087,0.249690979719162,1.0015127658843994
1789022020944801500,6.370801513671875,2.0694570541381836,-0.052076224237680435,1.1126902103424072
1789022020954727400,6.3807275390625,1.94728422164917,-0.20112723112106323,1.00762140750885
1789022020964653300,6.3906533203125,1.8544327020645142,-0.18890993297100067,0.7877101302146912
1789022020974579200,6.4005791015625,1.8031201362609863,-0.026419902220368385,0.6740893125534058
1789022020984505000,6.410505126953125,1.7591378688812256,0.3767508566379547,0.6765327453613281
1789022020994430700,6.4204306640625,1.6858340501785278,0.8422298431396484,0.7070759534835815
1789022021004356600,6.430356689453125,1.5490003824234009,1.0328196287155151,0.6679806113243103
1789022021014282500,6.440282470703125,1.2606722116470337,0.772591233253479,0.5409207344055176
1789022021024208400,6.45020849609375,0.9332486391067505,0.07498364895582199,0.3637699782848358
1789022021034134300,6.46013427734375,0.7108938694000244,-0.3000873327255249,0.3185659945011139
1789022021044060200,6.47006005859375,0.5545125007629395,-0.24633121490478516,0.28924447298049927
1789022021053986000,6.479986083984375,0.3675878942012787,-0.21090106666088104,0.20250166952610016
1789022021063912000,6.489911865234375,0.1513417512178421,-0.08872810751199722,0.14263692498207092
1789022021073837800,6.499837890625,-0.10888664424419403,0.04566214233636856,0.05589412897825241
1789022021083763700,6.509763671875,-0.44608399271965027,-0.011759147047996521,-0.12247838824987411
1789022021093689600,6.519689697265625,-0.7600684762001038,-0.3721693754196167,-0.35216355323791504
1789022021103615500,6.529615478515625,-1.0264055728912354,-0.9402735829353333,-0.5390881896018982
1789022021113541400,6.539541259765625,-1.2414299249649048,-1.2848013639450073,-0.629496157169342
1789022021123467300,6.54946728515625,-1.3183989524841309,-1.113759160041809,-0.639270007610321
1789022021133393200,6.55939306640625,-1.3098467588424683,-0.5908589363098145,-0.5904008150100708
1789022021143319000,6.569319091796875,-1.3135119676589966,-0.13759729266166687,-0.5415316224098206
1789022021153245000,6.579244873046875,-1.297629475593567,0.02977965772151947,-0.467006117105484
1789022021163170800,6.5891708984375,-1.3000729084014893,-0.14492766559123993,-0.3607156574726105
1789022021173096700,6.5990966796875,-1.2988512516021729,-0.34406960010528564,-0.1957821547985077
1789022021183022600,6.609022705078125,-1.3403900861740112,-0.22189663350582123,-0.08093958348035812
1789022021192948200,6.6189482421875,-1.38192880153656,0.13240493834018707,-0.016187917441129684
1789022021202874000,6.6288740234375,-1.440571904182434,0.23136503994464874,-0.0308486707508564
1789022021212800000,6.638800048828125,-1.392924427986145,0.33399030566215515,-0.024740023538470268
1789022021222726000,6.648725830078125,-1.226769208908081,0.3352120518684387,0.029016077518463135
1789022021232651800,6.65865185546875,-1.0948224067687988,0.145843967795372,0.05833758786320686
1789022021242577700,6.66857763671875,-0.9604321718215942,0.10063996911048889,0.07544180005788803
1789022021252503600,6.678503662109375,-0.7331904768943787,0.06887500733137131,0.13530655205249786
1789022021262429400,6.688429443359375,-0.5157225728034973,0.005345067009329796,0.16707152128219604
1789022021272355300,6.698355224609375,-0.37400195002555847,0.0591011680662632,0.12675444781780243
1789022021282281200,6.70828125,-0.28725916147232056,0.06643154472112656,0.0766635313630104
1789022021292207000,6.71820703125,-0.25549420714378357,-0.0642935186624527,0.021685699000954628
1789022021302133000,6.728133056640625,-0.4130973219871521,-0.3306305706501007,-0.06872228533029556
1789022021312059000,6.738058837890625,-0.634230375289917,-0.471129447221756,-0.12370011955499649
1789022021321984800,6.74798486328125,-0.7942769527435303,-0.3416261374950409,-0.06872228533029556
1789022021331910700,6.75791064453125,-0.8565851449966431,0.013897174037992954,0.03634645417332649
1789022021341836500,6.76783642578125,-0.8028290271759033,0.4292852282524109,0.06322450190782547
1789022021351762200,6.77776220703125,-0.800385594367981,0.5196931958198547,-0.016187917441129684
1789022021361688000,6.78768798828125,-0.8345940113067627,-0.005650499369949102,-0.17623448371887207
1789022021371614000,6.797614013671875,-0.8565851449966431,-0.873078465461731,-0.31184646487236023
1789022021381539800,6.807539794921875,-0.9078977704048157,-1.5193734169006348,-0.39858928322792053
1789022021391465700,6.8174658203125,-1.0557270050048828,-1.6659809350967407,-0.4608974754810333
1789022021401391600,6.8273916015625,-1.2695297002792358,-1.3874266147613525,-0.5476402640342712
1789022021411317500,6.8373173828125,-1.4479022026062012,-0.8510873317718506,-0.6466003656387329
1789022021421243400,6.847243408203125,-1.557857871055603,-0.30741769075393677,-0.7235693335533142
1789022021431169300,6.857169189453125,-1.6494876146316528,-0.0642935186624527,-0.8090903759002686
1789022021441095200,6.86709521484375,-1.7496694326400757,-0.09605848789215088,-0.8640682101249695
1789022021451021000,6.87702099609375,-1.8131994009017944,-0.3196350038051605,-0.8726203441619873
1789022021460947000,6.886947021484375,-1.8254166841506958,-0.5114465355873108,-0.8762855529785156
1789022021470872600,6.89687255859375,-1.800982117652893,-0.44669488072395325,-0.8347467184066772
1789022021480798500,6.906798583984375,-1.6690353155136108,-0.32940882444381714,-0.777325451374054
1789022021490724400,6.916724365234375,-1.540753722190857,-0.3257436454296112,-0.7345649003982544
1789022021500650200,6.926650146484375,-1.548084020614624,-0.48701193928718567,-0.6527090072631836
1789022021510576000,6.936576171875,-1.5993967056274414,-0.5163334608078003,-0.4938841760158539
1789022021520502000,6.946501953125,-1.5712969303131104,-0.3000873327255249,-0.3656025826931
1789022021530428000,6.956427978515625,-1.4772237539291382,-0.011759147047996521,-0.2861901521682739
1789022021540353800,6.966353759765625,-1.355050802230835,0.249690979719162,-0.24953825771808624
1789022021550279700,6.97627978515625,-1.1155917644500732,0.4500546157360077,-0.19822561740875244
1789022021560205300,6.986205322265625,-0.7881683111190796,0.6406444311141968,-0.07238747924566269
1789022021570131200,6.996131103515625,-0.48884454369544983,0.781143307685852,0.08643736690282822
1789022021580057000,7.00605712890625,-0.25671592354774475,0.6772963404655457,0.19883649051189423
1789022021589983000,7.01598291015625,-0.033139415085315704,0.5074759125709534,0.1902843713760376
1789022021599908900,7.025908935546875,0.19654574990272522,0.43661558628082275,0.1695149689912796
1789022021609834800,7.035834716796875,0.42623090744018555,0.44761115312576294,0.2684750556945801
1789022021619760600,7.0457607421875,0.6717985272407532,0.6113229393959045,0.37232208251953125
1789022021629686500,7.0556865234375,0.9185879230499268,0.9216422438621521,0.4211912751197815
1789022021639612200,7.065612060546875,1.177594542503357,1.114675521850586,0.48105600476264954
1789022021649538300,7.075538330078125,1.381623387336731,1.0572541952133179,0.4468475878238678
1789022021659464000,7.0854638671875,1.5062397718429565,0.8520036339759827,0.42974337935447693
1789022021669389800,7.095389892578125,1.6186389923095703,0.586888313293457,0.46395179629325867
1789022021679315700,7.105315673828125,1.7456988096237183,0.495258629322052,0.45539969205856323
1789022021689241600,7.11524169921875,1.837328553199768,0.4390590488910675,0.4260781705379486
1789022021699167500,7.12516748046875,1.937510371208191,0.3559814393520355,0.364991694688797
1789022021709093400,7.13509326171875,2.0438008308410645,0.5001455545425415,0.3039052188396454
1789022021719019000,7.14501904296875,2.131765365600586,0.6125446557998657,0.2525925934314728
1789022021728945000,7.15494482421875,2.170860767364502,0.4390590488910675,0.25503605604171753
1789022021738870800,7.164870849609375,2.2001821994781494,0.17516547441482544,0.2965748608112335
1789022021748796700,7.174796630859375,2.296698808670044,0.2179260104894638,0.2868010103702545
1789022021758722600,7.18472265625,2.374889612197876,0.5001455545425415,0.21471896767616272
1789022021768648400,7.1946484375,2.4066545963287354,0.6663007736206055,0.24526220560073853
1789022021778574300,7.20457421875,2.422537088394165,0.7628173828125,0.3845393657684326
1789022021788500200,7.214500244140625,2.391993761062622,0.9546289443969727,0.48472121357917786
1789022021798426000,7.224426025390625,2.31380295753479,1.004719853401184,0.5934551358222961
1789022021808352000,7.23435205078125,2.3064727783203125,0.836121141910553,0.6875283122062683
1789022021818277600,7.244277587890625,2.324798583984375,0.8581122756004333,0.6545416116714478
1789022021828203500,7.25420361328125,2.3015856742858887,0.9802852272987366,0.6068941354751587
1789022021838129400,7.26412939453125,2.2001821994781494,1.00594162940979,0.6191114783287048
1789022021848055300,7.27405517578125,1.992488145828247,0.8129082918167114,0.6056724190711975
1789022021857981200,7.283981201171875,1.7481422424316406,0.6259836554527283,0.6130027770996094
1789022021867907000,7.293906982421875,1.5294526815414429,0.6101012229919434,0.5751292109489441
1789022021877832700,7.303832763671875,1.2692242860794067,0.4696022868156433,0.37843072414398193
1789022021887758600,7.313758544921875,0.9699005484580994,0.3107774555683136,0.20127993822097778
1789022021897684500,7.3236845703125,0.680350661277771,0.19104796648025513,0.1182023361325264
1789022021907610400,7.3336103515625,0.4127918779850006,-0.18646647036075592,0.010690134018659592
1789022021917536300,7.343536376953125,0.1513417512178421,-0.6299542784690857,-0.0870482325553894
1789022021927462100,7.353462158203125,-0.08323032408952713,-0.8388700485229492,-0.12614357471466064
1789022021937388000,7.363387939453125,-0.3422369956970215,-1.0099122524261475,-0.18112140893936157
1789022021947313700,7.373313720703125,-0.5193877816200256,-0.8364266157150269,-0.1542433500289917
1789022021957239600,7.383239501953125,-0.6183478832244873,-0.5456549525260925,-0.09560033679008484
1789022021967165400,7.39316552734375,-0.6830995678901672,-0.3379609286785126,-0.047952886670827866
1789022021977091300,7.40309130859375,-0.7331904768943787,-0.22556181252002716,-0.04062250629067421
1789022021987017200,7.413017333984375,-0.818711519241333,-0.36483898758888245,-0.11148282140493393
1789022021996943000,7.422943115234375,-0.8724676370620728,-0.6140718460083008,-0.1542433500289917
1789022022006869000,7.432868896484375,-0.8651372194290161,-0.46257734298706055,-0.03329212963581085
1789022022016794600,7.442794677734375,-0.8651372194290161,0.14706569910049438,0.23182319104671478
1789022022026720500,7.452720458984375,-0.9763146042823792,0.6247619390487671,0.40775224566459656
1789022022036646400,7.462646484375,-1.159574031829834,0.2435823380947113,0.30512696504592896
1789022022046572300,7.472572265625,-1.2487603425979614,-0.2597702443599701,0.14630211889743805
1789022022056498200,7.482498291015625,-1.1363612413406372,-0.2133445292711258,-0.025961752980947495
1789022022066423800,7.492423828125,-0.9005674123764038,0.0798705667257309,-0.18112140893936157
1789022022076349700,7.502349609375,-0.6171261668205261,0.16416990756988525,-0.22999058663845062
1789022022086275600,7.512275634765625,-0.5059487819671631,0.18127411603927612,-0.16768237948417664
1789022022096201500,7.522201416015625,-0.5340485572814941,0.21181736886501312,-0.06261363625526428
1789022022106127400,7.53212744140625,-0.5328267812728882,0.08231402933597565,-0.02718348242342472
1789022022116053200,7.54205322265625,-0.4864010810852051,-0.16325360536575317,-0.07483093440532684
1789022022125979000,7.551978759765625,-0.5096139311790466,-0.2805396616458893,-0.14569124579429626
1789022022135904800,7.56190478515625,-0.5572614073753357,-0.21212279796600342,-0.20433427393436432
1789022022145830700,7.57183056640625,-0.5792525410652161,-0.14004075527191162,-0.28008151054382324
1789022022155756500,7.581756591796875,-0.6562215089797974,-0.03130681812763214,-0.37171122431755066
1789022022165682400,7.591682373046875,-0.7673988938331604,0.16050471365451813,-0.41447174549102783
1789022022175608000,7.601608154296875,-0.8370374441146851,0.342542439699173,-0.31062474846839905
1789022022185534000,7.611533935546875,-0.6989820003509521,0.6479747891426086,-0.15179990231990814
1789022022195459800,7.6214599609375,-0.4692968726158142,0.8434515595436096,-0.06994401663541794
1789022022205385700,7.6313857421875,-0.3422369956970215,0.6785180568695068,-0.04428769648075104
1789022022215311600,7.6413115234375,-0.46685341000556946,0.17027856409549713,-0.08093958348035812
1789022022225237500,7.651237548828125,-0.7441860437393188,-0.4332558512687683,-0.2263254076242447
1789022022235163100,7.6611630859375,-1.070387840270996,-0.8694133162498474,-0.3643808364868164
1789022022245089000,7.671089111328125,-1.374598503112793,-1.0099122524261475,-0.3692677617073059
1789022022255015000,7.681014892578125,-1.6262747049331665,-0.9769254922866821,-0.4303542375564575
1789022022264940800,7.69094091796875,-1.8620685338974,-0.8975130915641785,-0.6881392002105713
1789022022274866700,7.70086669921875,-2.0208933353424072,-0.7851139307022095,-0.9019418358802795
1789022022284792300,7.710792236328125,-2.05143666267395,-0.49312058091163635,-0.9312633275985718
1789022022294718200,7.72071826171875,-2.0404410362243652,-0.07162389904260635,-0.8701768517494202
1789022022304644000,7.73064404296875,-2.0111196041107178,0.040775224566459656,-0.7382301092147827
1789022022314570000,7.740570068359375,-1.918268084526062,-0.2536616027355194,-0.5574141144752502
1789022022324496000,7.750495849609375,-1.8400774002075195,-0.4088212549686432,-0.3631591200828552
1789022022334421500,7.76042138671875,-1.8070907592773438,-0.3367392122745514,-0.24953825771808624
1789022022344347400,7.770347412109375,-1.8559598922729492,-0.3208567202091217,-0.1591302752494812
1789022022354273300,7.780273193359375,-1.8926118612289429,-0.5383245944976807,-0.12003492563962936
1789022022364199200,7.79019921875,-1.8290818929672241,-0.6116283535957336,-0.20189081132411957
1789022022374124800,7.800124755859375,-1.6690353155136108,-0.4650208055973053,-0.19700388610363007
1789022022384050700,7.81005078125,-1.4271328449249268,-0.2707658112049103,-0.0027488914784044027
1789022022393976600,7.8199765625,-1.1730130910873413,0.054214250296354294,0.11942406743764877
1789022022403902500,7.82990234375,-0.9140064120292664,0.5294670462608337,0.06200277432799339
1789022022413828400,7.839828369140625,-0.6415607333183289,1.0352630615234375,0.007024944759905338
1789022022423754200,7.849754150390625,-0.4094321131706238,1.2441788911819458,0.13164135813713074
1789022022433680000,7.859679931640625,-0.16875138878822327,1.0877974033355713,0.42974337935447693
1789022022443605800,7.869605712890625,0.03649916872382164,0.8202387094497681,0.5787943601608276
1789022022453531600,7.87953173828125,0.22708898782730103,0.6210967898368835,0.537255585193634
1789022022463457500,7.88945751953125,0.46166107058525085,0.6504182815551758,0.4969384968280792
1789022022473383200,7.899383056640625,0.7231112122535706,0.7396045327186584,0.5006036758422852
1789022022483309000,7.90930908203125,0.9918916821479797,0.7567087411880493,0.5067123174667358
1789022022493235000,7.91923486328125,1.2423462867736816,0.6748528480529785,0.5262600183486938
1789022022503160800,7.929160888671875,1.4231622219085693,0.6113229393959045,0.4883863925933838
1789022022513086700,7.939086669921875,1.538004755973816,0.5991056561470032,0.4272999167442322
1789022022523012400,7.949012451171875,1.7066035270690918,0.782365083694458,0.4529562294483185
1789022022532938200,7.958938232421875,1.9399538040161133,1.0535889863967896,0.5164861679077148
1789022022542864100,7.968864013671875,2.142760992050171,1.1916444301605225,0.4419606626033783
1789022022552790000,7.9787900390625,2.2808163166046143,1.103679895401001,0.29901832342147827
1789022022562715600,7.988715576171875,2.41154146194458,0.8397863507270813,0.2257145345211029
1789022022572641500,7.9986416015625,2.5386013984680176,0.7225003242492676,0.19272783398628235
1789022022582567400,8.0085673828125,2.574031352996826,0.6394227147102356,0.16218459606170654
1789022022592493300,8.018493408203126,2.5642576217651367,0.4549415409564972,0.22327107191085815
1789022022602419200,8.028419189453125,2.581361770629883,0.33399030566215515,0.3197877109050751
1789022022612344800,8.0383447265625,2.596022605895996,0.49892380833625793,0.3271180987358093
1789022022622270700,8.048270751953124,2.5667011737823486,0.754265308380127,0.2562577724456787
1789022022632196600,8.058196533203125,2.472627878189087,0.8324559926986694,0.12553271651268005
1789022022642122500,8.06812255859375,2.394437313079834,0.7945823669433594,0.05955931544303894
1789022022652048100,8.078048095703124,2.3345725536346436,0.7994692921638489,0.04245510324835777
1789022022661974000,8.08797412109375,2.2930335998535156,0.7835868000984192,0.07055488228797913
1789022022671900000,8.09789990234375,2.2930335998535156,0.6601921319961548,0.16829325258731842
1789022022681825800,8.10782568359375,2.324798583984375,0.6504182815551758,0.23915356397628784
1789022022691751400,8.11775146484375,2.285703182220459,0.5917752385139465,0.22693626582622528
1789022022701677300,8.12767724609375,2.0975568294525146,0.5025889873504639,0.1792888194322586
1789022022711603200,8.137603271484375,1.8348851203918457,0.42562004923820496,0.13041962683200836
1789022022721529000,8.147529052734376,1.5783218145370483,0.31444263458251953,0.10109812021255493
1789022022731454700,8.157454833984374,1.3107631206512451,0.18860450387001038,0.07422006875276566
1789022022741380600,8.167380615234375,1.021213173866272,0.0896444097161293,0.0766635313630104
1789022022751306500,8.177306396484376,0.7157807946205139,-0.04108065739274025,0.01802051067352295
1789022022761232100,8.187232177734375,0.3272708058357239,-0.3306305706501007,-0.18600831925868988
1789022022771158000,8.197157958984375,-0.05635227635502815,-0.6470585465431213,-0.3326158821582794
1789022022781084000,8.207083984375,-0.3764454126358032,-0.6763800382614136,-0.33628106117248535
1789022022791009800,8.217009765625,-0.6366738080978394,-0.4088212549686432,-0.2971857190132141
1789022022800935700,8.226935791015626,-0.9042325615882874,0.016340631991624832,-0.30085089802742004
1789022022810861300,8.236861328125,-1.2206605672836304,0.18005239963531494,-0.4059196412563324
1789022022820787200,8.246787109375,-1.4772237539291382,-0.14492766559123993,-0.6123919486999512
1789022022830713000,8.256713134765626,-1.62505304813385,-0.57008957862854,-0.8323032855987549
1789022022840639000,8.266638916015625,-1.7276782989501953,-0.7118101716041565,-0.9532544612884521
1789022022850564600,8.276564697265625,-1.6714787483215332,-0.5652026534080505,-0.9214895367622375
1789022022860490500,8.286490478515624,-1.54930579662323,-0.4405862092971802,-0.8017600178718567
1789022022870416400,8.29641650390625,-1.501658320426941,-0.512668251991272,-0.6466003656387329
1789022022880342300,8.30634228515625,-1.5150973796844482,-0.2793179154396057,-0.4401280879974365
1789022022890268000,8.316267822265624,-1.5517492294311523,0.27168211340904236,-0.3484983444213867
1789022022900193800,8.32619384765625,-1.4601194858551025,0.7066178321838379,-0.3863719701766968
1789022022910119700,8.33611962890625,-1.1644610166549683,0.6076577305793762,-0.28496840596199036
1789022022920045600,8.346045654296875,-0.8333722949028015,0.33887723088264465,-0.13225223124027252
1789022022929971200,8.35597119140625,-0.6195695996284485,0.41462448239326477,-0.0772743970155716
1789022022939897000,8.36589697265625,-0.4240928590297699,0.4659371078014374,-0.057726722210645676
1789022022949823000,8.375822998046875,-0.26160284876823425,0.32788166403770447,-0.09071341902017593
1789022022959748900,8.385748779296875,-0.24572035670280457,0.1727220118045807,-0.2214384824037552
1789022022969674500,8.395674560546874,-0.30802857875823975,-0.13271036744117737,-0.4156934916973114
1789022022979600400,8.405600341796875,-0.4399753510951996,-0.2438877671957016,-0.4731147587299347
1789022022989526300,8.4155263671875,-0.5682569742202759,-0.13759729266166687,-0.34605491161346436
1789022022999452200,8.4254521484375,-0.5988001823425293,-0.2280052751302719,-0.14569124579429626
1789022023009377800,8.435377685546875,-0.7234166264533997,-0.18402300775051117,-0.08460476994514465
1789022023019303700,8.4453037109375,-0.9152281284332275,0.09697478264570236,-0.15790854394435883
1789022023029229600,8.4552294921875,-0.9506583213806152,0.4341721534729004,-0.26542073488235474
1789022023039155200,8.4651552734375,-0.8431460857391357,0.5123628377914429,-0.3582721948623657
1789022023049081000,8.4750810546875,-0.7564033269882202,0.2802342176437378,-0.35582873225212097
1789022023059007000,8.485007080078125,-0.7918334603309631,-0.16325360536575317,-0.2519817352294922
1789022023068932900,8.494932861328126,-0.9921970963478088,-0.5199986696243286,-0.17623448371887207
1789022023078858500,8.5048583984375,-1.2573124170303345,-0.7912226319313049,-0.2629773020744324
1789022023088784400,8.514784423828125,-1.4356849193572998,-1.0380120277404785,-0.4364628791809082
1789022023098710300,8.524710205078126,-1.4967714548110962,-1.1186461448669434,-0.5977311730384827
1789022023108636200,8.53463623046875,-1.548084020614624,-1.0111339092254639,-0.722347617149353
1789022023118561800,8.544561767578125,-1.6103923320770264,-0.9072869420051575,-0.7467821836471558
1789022023128487700,8.55448779296875,-1.6421571969985962,-0.8156571984291077,-0.6759218573570251
1789022023138413600,8.56441357421875,-1.6617048978805542,-0.6360629796981812,-0.5732966065406799
1789022023148339500,8.57433935546875,-1.6617048978805542,-0.3611738085746765,-0.48044514656066895
1789022023158265000,8.58426513671875,-1.644600749015808,-0.162031888961792,-0.3802633285522461
1789022023168191000,8.59419091796875,-1.6507093906402588,-0.11438442766666412,-0.24220788478851318
1789022023178116900,8.604116943359376,-1.6482658386230469,-0.02153298258781433,-0.11636973917484283
1789022023188042500,8.61404248046875,-1.6116139888763428,0.0896444097161293,-0.024740023538470268
1789022023197968400,8.623968505859375,-1.539531946182251,0.03955349326133728,0.129197895526886
1789022023207894300,8.633894287109374,-1.4198024272918701,0.02367101050913334,0.21227550506591797
1789022023217820200,8.643820068359375,-1.218217134475708,0.09208786487579346,0.1328630894422531
1789022023227745800,8.653745849609376,-0.9775363802909851,0.16661337018013,0.05222893878817558
1789022023237671700,8.663671630859374,-0.7124210596084595,0.23136503994464874,0.0021380267571657896
1789022023247597600,8.67359765625,-0.4631882309913635,0.1153007298707962,-0.02107483521103859
1789022023257523500,8.6835234375,-0.233503058552742,0.009010255336761475,-0.0308486707508564
1789022023267449300,8.693449462890625,0.03527744114398956,0.22159120440483093,0.010690134018659592
1789022023277375000,8.703375,0.34437501430511475,0.6174315810203552,0.11331541836261749
1789022023287300900,8.71330078125,0.6498073935508728,0.986393928527832,0.21471896767616272
1789022023297226800,8.723226806640625,0.9503529071807861,1.114675521850586,0.30024003982543945
1789022023307152600,8.733152587890626,1.2374593019485474,0.9925025701522827,0.32589635252952576
1789022023317078300,8.743078369140624,1.4879138469696045,0.8006910085678101,0.27947062253952026
1789022023327004200,8.753004150390625,1.6785037517547607,0.6357575058937073,0.24526220560073853
1789022023336930000,8.762929931640626,1.7750203609466553,0.4647153913974762,0.24037529528141022
1789022023346856000,8.77285595703125,1.8519892692565918,0.29856017231941223,0.24404047429561615
1789022023356781600,8.782781494140625,2.0047054290771484,0.291229784488678,0.2257145345211029
1789022023366707500,8.79270751953125,2.216064691543579,0.5465712547302246,0.1792888194322586
1789022023376633300,8.80263330078125,2.3761112689971924,0.8568905591964722,0.14996729791164398
1789022023386559200,8.812559326171876,2.470184564590454,0.9106466770172119,0.15241076052188873
1789022023396485000,8.822485107421874,2.5630359649658203,0.7848085165023804,0.21838416159152985
1789022023406410800,8.83241064453125,2.643670082092285,0.5978838801383972,0.21349723637104034
1789022023416336600,8.842336669921876,2.6192355155944824,0.2948949635028839,0.11209368705749512
1789022023426262500,8.852262451171875,2.6021311283111572,0.0591011680662632,0.08765909820795059
1789022023436188400,8.8621884765625,2.6253440380096436,0.145843967795372,0.07055488228797913
1789022023446114300,8.8721142578125,2.581361770629883,0.3816377818584442,0.048563748598098755
1789022023456040000,8.8820400390625,2.5019493103027344,0.4402807950973511,0.12553271651268005
1789022023465965800,8.8919658203125,2.48117995262146,0.5832231640815735,0.2306014597415924
1789022023475891700,8.9018916015625,2.4848451614379883,0.790917158126831,0.37110036611557007
1789022023485817600,8.911817626953125,2.5080580711364746,1.1171189546585083,0.48594292998313904
1789022023495743200,8.9217431640625,2.3785548210144043,1.3981167078018188,0.4199695289134979
1789022023505669000,8.931669189453125,1.9802708625793457,1.0034980773925781,0.2562577724456787
1789022023515595000,8.941594970703125,1.6797254085540771,-0.18280129134655,0.0974329337477684
1789022023525521000,8.95152099609375,1.5563308000564575,-0.8571959733963013,0.035124726593494415
1789022023535446800,8.96144677734375,1.4647010564804077,-0.5749764442443848,0.0204639695584774
1789022023545372400,8.971372314453125,1.244789719581604,0.05177079141139984,-0.022296564653515816
1789022023555298300,8.98129833984375,0.9344704151153564,0.342542439699173,-0.06383536756038666
1789022023565224200,8.99122412109375,0.6253728270530701,0.11652245372533798,-0.07116574794054031
1789022023575150000,9.001150146484376,0.35903576016426086,-0.3355174660682678,-0.057726722210645676
1789022023585076000,9.011075927734375,0.09392046183347702,-0.8510873317718506,-0.05283980444073677
1789022023595001600,9.021001708984375,-0.18341214954853058,-1.0795507431030273,-0.06872228533029556
1789022023604927500,9.030927490234374,-0.4546361267566681,-0.9549343585968018,-0.12247838824987411
1789022023614853400,9.040853271484375,-0.697760283946991,-0.7313578724861145,-0.2153298407793045
1789022023624779300,9.050779296875,-0.9164499044418335,-0.6653844714164734,-0.2776380479335785
1789022023634705000,9.060704833984374,-1.1363612413406372,-0.7667880058288574,-0.31551164388656616
1789022023644630800,9.070630859375,-1.3758201599121094,-0.8242093324661255,-0.35582873225212097
1789022023654556700,9.080556640625,-1.5517492294311523,-0.5529853701591492,-0.3228420317173004
1789022023664482600,9.090482666015625,-1.6006184816360474,-0.26099199056625366,-0.2788597643375397
1789022023674408400,9.100408447265625,-1.5627448558807373,-0.1974620372056961,-0.29962918162345886
1789022023684334300,9.110334228515624,-1.5468623638153076,-0.35017824172973633,-0.3484983444213867
1789022023694260000,9.120260009765625,-1.5822924375534058,-0.540768027305603,-0.42913252115249634
1789022023704185900,9.130185791015625,-1.6702569723129272,-0.4699077308177948,-0.5317577719688416
1789022023714111700,9.14011181640625,-1.6555962562561035,0.06154462695121765,-0.5513054728507996
1789022023724037600,9.15003759765625,-1.4234676361083984,0.32299473881721497,-0.40347617864608765
1789022023733963500,9.159963623046876,-0.9359975457191467,0.056657709181308746,-0.11392628401517868
1789022023743889200,9.16988916015625,-0.4766272306442261,-0.346513032913208,-0.014966187067329884
1789022023753815000,9.17981494140625,-0.3666715919971466,-0.46746426820755005,-0.23243404924869537
1789022023763741000,9.189740966796874,-0.5120574235916138,-0.28176137804985046,-0.45967575907707214
1789022023773666800,9.199666748046875,-0.5853611826896667,-0.27198755741119385,-0.467006117105484
1789022023783592400,9.209592529296875,-0.6391173005104065,-0.2756527364253998,-0.35216355323791504
1789022023793518300,9.219518310546874,-0.7564033269882202,-0.06062832847237587,-0.2055560052394867
1789022023803444200,9.2294443359375,-0.838259220123291,0.09941824525594711,-0.09071341902017593
1789022023813370000,9.2393701171875,-0.9078977704048157,0.08720094710588455,-0.07483093440532684
1789022023823296000,9.2492958984375,-0.9347758293151855,0.024892739951610565,-0.15546508133411407
1789022023833221600,9.2592216796875,-0.9127846956253052,0.08720094710588455,-0.2617555558681488
1789022023843147500,9.2691474609375,-0.8956804871559143,0.187382772564888,-0.3228420317173004
1789022023853073400,9.279073486328125,-0.8859066367149353,0.16416990756988525,-0.3338375985622406
1789022023862999300,9.288999267578125,-0.9482148289680481,-0.0154243353754282,-0.30573782324790955
1789022023872925200,9.29892529296875,-1.162017583847046,-0.263435423374176,-0.3069595396518707
1789022023882851000,9.30885107421875,-1.3978112936019897,-0.3990474045276642,-0.41325002908706665
1789022023892776700,9.318776611328126,-1.4760019779205322,-0.2793179154396057,-0.5012145638465881
1789022023902702600,9.32870263671875,-1.4772237539291382,-0.14737112820148468,-0.4780016839504242
1789022023912628500,9.33862841796875,-1.6079487800598145,-0.37583455443382263,-0.49021899700164795
1789022023922554400,9.348554443359374,-1.8180862665176392,-0.9195042252540588,-0.6209440231323242
1789022023932480000,9.35847998046875,-1.9451462030410767,-1.2383756637573242,-0.712573766708374
1789022023942406000,9.368406005859375,-1.9341505765914917,-0.9427170753479004,-0.6832522749900818
1789022023952331800,9.378331787109374,-1.8632903099060059,-0.31352636218070984,-0.6624828577041626
1789022023962257700,9.388257568359375,-1.763108491897583,0.03588830679655075,-0.6001746654510498
1789022023972183600,9.39818359375,-1.7008002996444702,-0.1510363221168518,-0.4401280879974365
1789022023982109200,9.408109130859375,-1.6812525987625122,-0.38438665866851807,-0.23976442217826843
1789022023992035000,9.41803515625,-1.6274964809417725,-0.31230461597442627,-0.1029307171702385
1789022024001961000,9.4279609375,-1.501658320426941,-0.0948367565870285,-0.04428769648075104
1789022024011886800,9.437886962890625,-1.335503101348877,0.004123337101191282,-0.047952886670827866
1789022024021812700,9.447812744140625,-1.1326960325241089,-0.010537417605519295,-0.09926552325487137
1789022024031738400,9.45773828125,-0.8785762786865234,0.07009673118591309,-0.14813470840454102
1789022024041664300,9.467664306640625,-0.5597048401832581,0.32788166403770447,-0.13591741025447845
1789022024051590100,9.477590087890626,-0.2078467458486557,0.5514581799507141,-0.0870482325553894
1789022024061516000,9.48751611328125,0.025503603741526604,0.5600103139877319,-0.07483093440532684
1789022024071441700,9.497441650390625,0.2649625837802887,0.641866147518158,-0.051618073135614395
1789022024081367600,9.507367431640626,0.5557342171669006,0.7212786078453064,0.07544180005788803
1789022024091293400,9.51729345703125,0.8257364630699158,0.7469348907470703,0.24037529528141022
1789022024101219300,9.52721923828125,1.030987024307251,0.7860302329063416,0.31123560667037964
1789022024111145200,9.537145263671874,1.2081378698349,0.679739773273468,0.2782489061355591
1789022024121070800,9.54707080078125,1.409723162651062,0.4353938698768616,0.23915356397628784
1789022024130996700,9.556996826171876,1.557552456855774,0.32910341024398804,0.21716243028640747
1789022024140922600,9.566922607421875,1.7127121686935425,0.4586067199707031,0.24526220560073853
1789022024150848500,9.5768486328125,1.8923063278198242,0.6137663722038269,0.3283398151397705
1789022024160774100,9.586774169921876,2.0413572788238525,0.7066178321838379,0.39309149980545044
1789022024170700000,9.596699951171875,2.1525347232818604,0.6479747891426086,0.38698282837867737
1789022024180626000,9.6066259765625,2.2588253021240234,0.5404626131057739,0.364991694688797
1789022024190551800,9.6165517578125,2.3736677169799805,0.49281516671180725,0.35643959045410156
1789022024200477400,9.6264775390625,2.48117995262146,0.568562388420105,0.33322674036026
1789022024210403300,9.6364033203125,2.5495967864990234,0.6479747891426086,0.26480987668037415
1789022024220329200,9.6463291015625,2.5862488746643066,0.6088794469833374,0.2623664140701294
1789022024230255000,9.656255126953125,2.587470531463623,0.5025889873504639,0.28557929396629333
1789022024240181000,9.666180908203126,2.5166101455688477,0.5160280466079712,0.22204934060573578
1789022024250106600,9.676106689453125,2.4323108196258545,0.586888313293457,0.18295399844646454
1789022024260032500,9.686032470703125,2.38955020904541,0.7689260244369507,0.24281874299049377
1789022024269958400,9.69595849609375,2.3651156425476074,0.9778417944908142,0.27458372712135315
1789022024279884300,9.70588427734375,2.3406810760498047,1.093906044960022,0.30146175622940063
1789022024289810200,9.71581005859375,2.279594659805298,1.0034980773925781,0.2611446976661682
1789022024299735800,9.72573583984375,2.0804526805877686,0.5575668215751648,0.07544180005788803
1789022024309661700,9.73566162109375,1.808007001876831,0.12140937149524689,-0.12614357471466064
1789022024319587600,9.745587646484376,1.5257874727249146,-0.06551524996757507,-0.2202167510986328
1789022024329513500,9.755513427734375,1.2472331523895264,-0.06062832847237587,-0.2214384824037552
1789022024339439000,9.765439208984375,1.021213173866272,-0.039858926087617874,-0.1542433500289917
1789022024349365000,9.775364990234374,0.8684970140457153,0.02367101050913334,-0.08826996386051178
1789022024359291000,9.785290771484375,0.6925679445266724,0.02000582218170166,-0.0821613147854805
1789022024369216500,9.795216552734376,0.4848739206790924,-0.10827577859163284,-0.1334739476442337
1789022024379142400,9.805142333984374,0.27717989683151245,-0.35017824172973633,-0.2263254076242447
1789022024389068300,9.815068359375,0.03283398225903511,-0.502894401550293,-0.2617555558681488
1789022024398994200,9.824994140625,-0.22495095431804657,-0.5090031027793884,-0.23854269087314606
1789022024408920000,9.834920166015625,-0.44119709730148315,-0.595745861530304,-0.24220788478851318
1789022024418845700,9.844845703125,-0.614682674407959,-0.8168789148330688,-0.2984074354171753
1789022024428771600,9.854771484375,-0.780837893486023,-0.9903645515441895,-0.3900371491909027
1789022024438697500,9.864697509765625,-0.9689842462539673,-1.0331250429153442,-0.476779967546463
1789022024448623400,9.874623291015626,-1.142469882965088,-0.9243911504745483,-0.518318772315979
1789022024458549000,9.884549072265624,-1.2194387912750244,-0.7130318880081177,-0.528092622756958
1789022024468475000,9.894474853515625,-1.235321283340454,-0.5212203860282898,-0.5122101306915283
1789022024478400800,9.90440087890625,-1.2133301496505737,-0.3318522870540619,-0.4584540128707886
1789022024488326400,9.914326416015625,-1.19866943359375,-0.2597702443599701,-0.3998109996318817
1789022024498252300,9.924252197265625,-1.2793035507202148,-0.4332558512687683,-0.3802633285522461
1789022024508178200,9.93417822265625,-1.3965896368026733,-0.5334376692771912,-0.35705047845840454
1789022024518104000,9.94410400390625,-1.4674499034881592,-0.5236638188362122,-0.29962918162345886
1789022024528029700,9.95402978515625,-1.411250352859497,-0.38560840487480164,-0.1737910360097885
1789022024537955600,9.96395556640625,-1.2744166851043701,-0.1974620372056961,-0.007635809946805239
1789022024547881500,9.973881591796875,-1.1253656148910522,-0.1107192412018776,0.08643736690282822
1789022024557807400,9.983807373046876,-1.0093013048171997,-0.023976443335413933,0.05345066636800766
1789022024567733000,9.99373291015625,-0.8797979950904846,0.03955349326133728,-0.0308486707508564
1789022024577659000,10.003658935546875,-0.7136427760124207,0.006566796451807022,-0.07238747924566269
1789022024587584800,10.013584716796874,-0.5829176902770996,-0.0032070400193333626,-0.04306596517562866
1789022024597510700,10.0235107421875,-0.5535961985588074,-0.07162389904260635,-0.04428769648075104
1789022024607436300,10.033436279296875,-0.652556300163269,-0.26710063219070435,-0.14569124579429626
1789022024617362200,10.043362060546874,-0.8309288024902344,-0.39538222551345825,-0.2605338394641876
1789022024627288000,10.0532880859375,-1.0483967065811157,-0.3428478538990021,-0.2776380479335785
1789022024637213700,10.063213623046876,-1.2854121923446655,-0.2842048406600952,-0.20311254262924194
1789022024647139600,10.0731396484375,-1.5603013038635254,-0.15958842635154724,-0.16523891687393188
1789022024657065500,10.0830654296875,-1.742339015007019,0.005345067009329796,-0.23243404924869537
1789022024666991000,10.0929912109375,-1.6592614650726318,0.21670427918434143,-0.30573782324790955
1789022024676917000,10.1029169921875,-1.4869976043701172,0.31810784339904785,-0.30573782324790955
1789022024686843000,10.1128427734375,-1.5089887380599976,0.15806126594543457,-0.28496840596199036
1789022024696768800,10.122768798828124,-1.6531528234481812,-0.24022257328033447,-0.2764163017272949
1789022024706694400,10.1326943359375,-1.7496694326400757,-0.6226239204406738,-0.2214384824037552
1789022024716620300,10.142620361328126,-1.7557780742645264,-0.9048434495925903,-0.1737910360097885
1789022024726546200,10.152546142578124,-1.771660566329956,-1.2579232454299927,-0.21655155718326569
1789022024736472000,10.16247216796875,-1.8144210577011108,-1.5853468179702759,-0.2922987937927246
1789022024746397700,10.172397705078126,-1.789986491203308,-1.652541995048523,-0.33017241954803467
1789022024756323600,10.182323486328125,-1.6983567476272583,-1.2395973205566406,-0.3399462401866913
1789022024766249200,10.192249267578125,-1.5541926622390747,-0.4503600597381592,-0.26419901847839355
1789022024776175000,10.202175048828124,-1.4698933362960815,0.15439607203006744,-0.047952886670827866
1789022024786101000,10.21210107421875,-1.4149155616760254,0.2655734717845917,0.23915356397628784
1789022024796027000,10.22202685546875,-1.3807071447372437,0.19104796648025513,0.4016436040401459
1789022024805952500,10.231952392578124,-1.2585341930389404,0.08231402933597565,0.5616901516914368
1789022024815878400,10.24187841796875,-1.0264055728912354,0.024892739951610565,0.6618719696998596
1789022024825804300,10.25180419921875,-0.7307469844818115,0.23258677124977112,0.6239983439445496
1789022024835730000,10.26172998046875,-0.40088000893592834,0.4378373324871063,0.5592467188835144
1789022024845655800,10.27165576171875,-0.09544762223958969,0.3462076187133789,0.5555815100669861
1789022024855581700,10.281581787109374,0.11713331937789917,0.12140937149524689,0.5482511520385742
1789022024865507300,10.29150732421875,0.2808450758457184,-0.1363755613565445,0.5238165259361267
1789022024875433200,10.30143310546875,0.3993528485298157,-0.3013090491294861,0.5079340934753418
1789022024885359000,10.311359130859374,0.4751000702381134,-0.08261945843696594,0.46395179629325867
1789022024895284700,10.32128466796875,0.6351466774940491,0.4805978536605835,0.45539969205856323
1789022024905210600,10.331210693359376,0.9747874736785889,1.065806269645691,0.5262600183486938
1789022024915136500,10.341136474609375,1.2227985858917236,1.1879792213439941,0.5433642268180847
1789022024925062100,10.351062255859375,1.371849536895752,0.8752164840698242,0.5042688846588135
1789022024934988000,10.360988037109376,1.4268274307250977,0.49403688311576843,0.47006043791770935
1789022024944914000,10.370913818359375,1.4537054300308228,0.4182896614074707,0.4224129915237427
1789022024954839600,10.380839599609375,1.5074615478515625,0.4402807950973511,0.4321868419647217
1789022024964765400,10.390765380859374,1.5428917407989502,0.34865108132362366,0.4517345130443573
1789022024974691300,10.40069140625,1.6100867986679077,0.10430516302585602,0.37843072414398193
1789022024984617000,10.410616943359376,1.643073558807373,-0.10705405473709106,0.2831358313560486
1789022024994542800,10.42054296875,1.652847409248352,-0.15958842635154724,0.23426663875579834
1789022025004468700,10.43046875,1.6797254085540771,0.01511890348047018,0.22693626582622528
1789022025014394400,10.440394287109376,1.827554702758789,0.5062541961669922,0.28069236874580383
1789022025024320300,10.4503203125,1.9521710872650146,0.9448550939559937,0.38820457458496094
1789022025034246100,10.46024609375,1.908188819885254,1.0267109870910645,0.44318240880966187
1789022025044171800,10.470171875,1.789681077003479,0.6210967898368835,0.537255585193634
1789022025054097700,10.48009765625,1.7151556015014648,0.0639880821108818,0.6459894776344299
1789022025064023600,10.4900234375,1.6833906173706055,-0.3575085997581482,0.6911935210227966
1789022025073949200,10.49994921875,1.7017165422439575,-0.6959276795387268,0.68386310338974
1789022025083875000,10.509875,1.7456988096237183,-0.7521272301673889,0.5360338687896729
1789022025093800700,10.51980078125,1.798233151435852,-0.1718057245016098,0.21960589289665222
1789022025103726600,10.5297265625,1.8690935373306274,0.7762564420700073,-0.0015271619195118546
1789022025113652500,10.539652587890625,1.8788673877716064,1.6021455526351929,0.2208276242017746
1789022025123578000,10.549578125,1.7676899433135986,2.2117886543273926,0.6154462695121765
1789022025133504000,10.55950390625,1.4989094734191895,2.210566997528076,0.8121446967124939
1789022025143430000,10.569429931640625,1.1189515590667725,1.4139991998672485,0.7363975048065186
1789022025153355500,10.57935546875,0.8709404468536377,0.6736311316490173,0.6044507026672363
1789022025163281400,10.589281494140625,0.7658717036247253,0.443945974111557,0.3601047992706299
1789022025173207000,10.59920703125,0.6217076182365417,0.2338084876537323,-0.028405211865901947
1789022025183133000,10.6091328125,0.49831295013427734,-0.16814053058624268,-0.32162031531333923
1789022025193058800,10.619058837890625,0.46166107058525085,-0.38072147965431213,-0.44379326701164246
1789022025202984400,10.628984375,0.39080074429512024,-0.4234820008277893,-0.4621191918849945
1789022025212910300,10.638910400390625,0.21975859999656677,-0.22189663350582123,-0.39248061180114746
1789022025222836200,10.648836181640625,0.009621120058000088,0.054214250296354294,-0.31673339009284973
1789022025232761900,10.658761962890624,-0.1821904182434082,-0.06551524996757507,-0.27397283911705017
1789022025242687700,10.668687744140625,-0.4192059636116028,-0.9683734178543091,-0.3607156574726105
1789022025252613400,10.67861328125,-0.7783944606781006,-1.807701587677002,-0.5317577719688416
1789022025262539300,10.688539306640624,-1.0447314977645874,-1.7234022617340088,-0.6514872908592224
1789022025272465200,10.698465087890625,-1.0068578720092773,-0.9549343585968018,-0.5427533388137817
1789022025282390800,10.708390869140626,-0.717307984828949,-0.27320927381515503,-0.06994401663541794
1789022025292316700,10.718316650390625,-0.35811948776245117,0.281455934047699,0.5360338687896729
1789022025302242300,10.7282421875,0.2539670467376709,0.8116865754127502,0.9123265743255615
1789022025312168200,10.738168212890624,0.874605655670166,0.744491457939148,0.9819651246070862
1789022025322094000,10.748093994140625,0.8807142972946167,0.18493930995464325,0.5812378525733948
1789022025332019700,10.758019775390625,0.651029109954834,-0.5297724604606628,-0.11026109009981155
1789022025341945600,10.767945556640624,0.3565923273563385,-0.8791871070861816,-0.49021899700164795
1789022025351871200,10.777871337890625,-0.033139415085315704,-0.3721693754196167,-0.37171122431755066
1789022025361797000,10.787797119140626,-0.27748534083366394,0.44150251150131226,-0.09071341902017593
1789022025371722800,10.79772265625,-0.49373146891593933,0.9815070033073425,0.10965022444725037
1789022025381648600,10.807648681640625,-0.6415607333183289,0.8752164840698242,0.1695149689912796
1789022025391574500,10.817574462890626,-0.755181610584259,0.29733842611312866,0.06933315098285675
1789022025401500200,10.827500244140625,-0.8565851449966431,-0.44180795550346375,-0.09682206809520721
1789022025411426000,10.837426025390625,-0.984866738319397,-1.2176061868667603,-0.20311254262924194
1789022025421351700,10.8473515625,-1.151021957397461,-1.4692825078964233,-0.21166464686393738
1789022025431277600,10.857277587890625,-1.151021957397461,-1.0270164012908936,-0.16157373785972595
1789022025441203500,10.867203369140626,-0.911562979221344,-0.17302745580673218,0.015577051788568497
1789022025451129000,10.877129150390624,-0.5645917654037476,0.586888313293457,0.31490078568458557
1789022025461055000,10.887054931640625,-0.31780239939689636,0.8495602011680603,0.5360338687896729
1789022025470980600,10.896980712890626,-0.15409064292907715,0.5453495383262634,0.5115992426872253
1789022025480906500,10.906906494140625,0.027947064489126205,-0.045967575162649155,0.23793183267116547
1789022025490832100,10.91683203125,0.11468986421823502,-0.5138899683952332,-0.13713914155960083
1789022025500758000,10.926758056640624,0.010842849500477314,-0.6360629796981812,-0.42424559593200684
1789022025510683600,10.93668359375,-0.12843431532382965,-0.37949973344802856,-0.48044514656066895
1789022025520609500,10.946609619140625,-0.22495095431804657,0.13973531126976013,-0.31184646487236023
1789022025530535400,10.956535400390624,-0.4045451879501343,0.5074759125709534,-0.13958260416984558
1789022025540461000,10.9664609375,-0.6659952998161316,0.5893318057060242,-0.09071341902017593
1789022025550387000,10.976386962890626,-0.8944587707519531,0.6785180568695068,-0.06994401663541794
1789022025560312600,10.9863125,-1.0251837968826294,0.8825469017028809,-0.05039634555578232
1789022025570238500,10.996238525390625,-1.0300707817077637,1.0462586879730225,-0.04428769648075104
1789022025580164000,11.0061640625,-1.0545053482055664,0.9692896604537964,-0.08338304609060287
1789022025590090000,11.016090087890625,-1.0826051235198975,0.6760746240615845,-0.1750127524137497
1789022025600015600,11.026015625,-1.0826051235198975,0.14217877388000488,-0.3032943606376648
1789022025609941500,11.03594140625,-1.2609776258468628,-0.4173733592033386,-0.43401941657066345
1789022025619867100,11.0458671875,-1.4833323955535889,-0.5737547278404236,-0.48655378818511963
1789022025629793000,11.05579296875,-1.6665918827056885,-0.34406960010528564,-0.46456265449523926
1789022025639719000,11.065718994140624,-1.8559598922729492,-0.07651081681251526,-0.4108065664768219
1789022025649644500,11.07564453125,-1.965915560722351,-0.0019853105768561363,-0.3607156574726105
1789022025659570400,11.0855703125,-1.97568941116333,-0.026419902220368385,-0.3191768527030945
1789022025669496000,11.09549609375,-1.939037561416626,-0.0642935186624527,-0.2971857190132141
1789022025679422000,11.105421875,-1.9048291444778442,-0.141262486577034,-0.2886336147785187
1789022025689347600,11.11534765625,-1.8938335180282593,-0.2805396616458893,-0.2910770773887634
1789022025699273500,11.1252734375,-1.8315253257751465,-0.3917170464992523,-0.3032943606376648
1789022025709199000,11.13519921875,-1.705687165260315,-0.3770562708377838,-0.3277289569377899
1789022025719125000,11.145125,-1.595731496810913,-0.25243985652923584,-0.3289506733417511
1789022025729050600,11.155050537109375,-1.5322015285491943,-0.15225805342197418,-0.3032943606376648
1789022025738976500,11.1649765625,-1.4637846946716309,-0.14981459081172943,-0.2153298407793045
1789022025748902100,11.174902099609374,-1.3330596685409546,-0.29397866129875183,-0.06383536756038666
1789022025758828000,11.184828125,-1.152243733406067,-0.4405862092971802,0.02412915788590908
1789022025768753700,11.194753662109376,-0.9616538882255554,-0.5065596103668213,0.01802051067352295
1789022025778679600,11.204679443359375,-0.7637336850166321,-0.5090031027793884,0.04367683082818985
1789022025788605200,11.214605224609375,-0.5487092733383179,-0.4185950756072998,0.13652828335762024
1789022025798531000,11.224531005859374,-0.32757624983787537,-0.25732678174972534,0.17562362551689148
1789022025808456700,11.234456787109375,-0.1418733447790146,-0.10094540566205978,0.12553271651268005
1789022025818382600,11.244382568359375,0.010842849500477314,-0.049632761627435684,0.08032871782779694
1789022025828308200,11.25430810546875,0.17821979522705078,-0.08261945843696594,0.13041962683200836
1789022025838234000,11.264234130859375,0.38957902789115906,0.0383317656815052,0.2000582218170166
1789022025848159700,11.27415966796875,0.6204859018325806,0.2533561587333679,0.1853974610567093
1789022025858085600,11.284085693359375,0.8611665964126587,0.39507678151130676,0.1951712965965271
1789022025868011300,11.29401123046875,1.067638874053955,0.5221366882324219,0.21960589289665222
1789022025877937200,11.303937255859376,1.2191333770751953,0.5746710300445557,0.22693626582622528
1789022025887862800,11.31386279296875,1.3070979118347168,0.5306887626647949,0.24892739951610565
1789022025897788700,11.32378857421875,1.3755147457122803,0.44761115312576294,0.2721402645111084
1789022025907714300,11.33371435546875,1.4414881467819214,0.3095557391643524,0.24281874299049377
1789022025917640200,11.34364013671875,1.5147919654846191,0.29733842611312866,0.2574795186519623
1789022025927565800,11.35356591796875,1.5367830991744995,0.4451677203178406,0.27091851830482483
1789022025937491700,11.36349169921875,1.5441133975982666,0.5233584046363831,0.2880227565765381
1789022025947417300,11.373417236328125,1.603978157043457,0.41462448239326477,0.33200499415397644
1789022025957343200,11.38334326171875,1.6650646924972534,0.25702136754989624,0.31001389026641846
1789022025967268900,11.393268798828124,1.6992731094360352,0.013897174037992954,0.2672533392906189
1789022025977194800,11.40319482421875,1.7395901679992676,-0.10216713696718216,0.21838416159152985
1789022025987120400,11.413120361328126,1.770133376121521,-0.04841103404760361,0.18173226714134216
1789022025997046300,11.42304638671875,1.7640247344970703,0.07376192510128021,0.17318016290664673
1789022026006972000,11.432971923828125,1.781129002571106,0.2655734717845917,0.1646280586719513
1789022026016897800,11.442897705078124,1.8104504346847534,0.5453495383262634,0.16096286475658417
1789022026026823400,11.452823486328125,1.772576928138733,0.8202387094497681,0.12186752259731293
1789022026036749000,11.4627490234375,1.7163772583007812,1.0963495969772339,0.025350889191031456
1789022026046675000,11.472675048828124,1.6601777076721191,1.1354448795318604,0.019242240116000175
1789022026056600600,11.4826005859375,1.5990912914276123,0.883768618106842,0.11209368705749512
1789022026066526500,11.4925263671875,1.586874008178711,0.7762564420700073,0.1182023361325264
1789022026076452000,11.5024521484375,1.632077932357788,0.7298306822776794,0.11453714966773987
1789022026086378000,11.5123779296875,1.6760601997375488,0.6504182815551758,0.09376774728298187
1789022026096303600,11.5223037109375,1.6369649171829224,0.5795579552650452,-0.05039634555578232
1789022026106229500,11.5322294921875,1.5111267566680908,0.45616328716278076,-0.14691297709941864
1789022026116155100,11.542155029296875,1.3559670448303223,0.3669770061969757,-0.19700388610363007
1789022026126081000,11.5520810546875,1.1617120504379272,0.47326749563217163,-0.33017241954803467
1789022026136006700,11.562006591796875,0.9650136232376099,0.3975202441215515,-0.5549706816673279
1789022026145932300,11.571932373046875,0.763428270816803,-0.19135339558124542,-0.6771436333656311
1789022026155858200,11.581858154296874,0.5337430834770203,-0.7570141553878784,-0.5855138897895813
1789022026165783800,11.59178369140625,0.5765036344528198,-0.6128500699996948,-0.32650721073150635
1789022026175709700,11.601709716796876,0.6620246767997742,-0.0850629210472107,-0.17745621502399445
1789022026185635300,11.61163525390625,0.5569559335708618,0.15073087811470032,-0.2214384824037552
1789022026195561200,11.621561279296875,0.4702131748199463,0.3205513060092926,-0.23854269087314606
1789022026205486800,11.63148681640625,0.5031998753547668,0.4757109582424164,-0.19333870708942413
1789022026215412700,11.641412841796875,0.4848739206790924,0.37552911043167114,-0.20677772164344788
1789022026225338400,11.65133837890625,0.3565923273563385,0.1262962967157364,-0.2764163017272949
1789022026235264000,11.661263916015624,0.17333288490772247,-0.0691804364323616,-0.314289927482605
1789022026245190000,11.67118994140625,-0.005039634648710489,-0.2744309902191162,-0.33628106117248535
1789022026255115500,11.681115478515625,-0.13820815086364746,-0.522442102432251,-0.3338375985622406
1789022026265041400,11.69104150390625,-0.22617268562316895,-0.8058833479881287,-0.3130682110786438
1789022026274967000,11.700967041015625,-0.35811948776245117,-1.1174243688583374,-0.3130682110786438
1789022026284893000,11.710892822265626,-0.4656316637992859,-1.0257946252822876,-0.2666424810886383
1789022026294818600,11.720818603515625,-0.4949531853199005,-0.6824886798858643,-0.1444695144891739
1789022026304744400,11.730744384765625,-0.4607447683811188,-0.407599538564682,0.032681263983249664
1789022026314670000,11.740670166015626,-0.49373146891593933,-0.615293562412262,-0.01740964688360691
1789022026324595700,11.750595703125,-0.6085740327835083,-0.6201804876327515,-0.19700388610363007
1789022026334521600,11.760521484375,-0.6549997329711914,-0.3257436454296112,-0.25931209325790405
1789022026344447200,11.770447265625,-0.6745474338531494,-0.2084576040506363,-0.23976442217826843
1789022026354373000,11.780373046875,-0.652556300163269,-0.2438877671957016,-0.16157373785972595
1789022026364298800,11.790298828125,-0.64278244972229,-0.6214022040367126,-0.14569124579429626
1789022026374224400,11.800224365234374,-0.7392991185188293,-0.8559742569923401,-0.19822561740875244
1789022026384150300,11.810150390625,-0.7148644924163818,-0.41615164279937744,-0.15790854394435883
1789022026394076000,11.820075927734376,-0.64278244972229,-0.2683223485946655,-0.05039634555578232
1789022026404001800,11.830001708984375,-0.503505289554596,-0.2646571695804596,0.09498947113752365
1789022026413927400,11.839927490234375,-0.3776671588420868,-0.2756527364253998,0.08521563559770584
1789022026423853300,11.849853271484376,-0.3837758004665375,-0.3513999581336975,-0.05894844979047775
1789022026433779000,11.859779052734375,-0.4534143805503845,-0.2548833191394806,-0.08826996386051178
1789022026443704600,11.86970458984375,-0.5120574235916138,-0.24022257328033447,0.0021380267571657896
1789022026453630500,11.87963037109375,-0.5426006317138672,-0.4405862092971802,0.04734202101826668
1789022026463556000,11.88955615234375,-0.6305651664733887,-0.4943423271179199,0.010690134018659592
1789022026473481700,11.899481689453125,-0.6904299259185791,-0.40515607595443726,-0.04550942778587341
1789022026483407600,11.90940771484375,-0.5975784659385681,-0.23044873774051666,-0.022296564653515816
1789022026493333200,11.919333251953125,-0.44241881370544434,0.012675444595515728,0.12431098520755768
1789022026503259100,11.929259033203126,-0.32757624983787537,0.1617264449596405,0.24404047429561615
1789022026513184800,11.939184814453125,-0.3263545036315918,0.12873975932598114,0.21716243028640747
1789022026523110700,11.949110595703125,-0.41187557578086853,-0.08017600327730179,0.07299833744764328
1789022026533036300,11.959036376953126,-0.5010618567466736,-0.2952004075050354,-0.04306596517562866
1789022026542962000,11.9689619140625,-0.5694786906242371,-0.3110828995704651,-0.08338304609060287
1789022026552887800,11.9788876953125,-0.6403390169143677,-0.162031888961792,-0.10537417232990265
1789022026562813400,11.9888134765625,-0.7832813858985901,-0.08017600327730179,-0.12125665694475174
1789022026572739000,11.998739013671875,-1.032514214515686,-0.023976443335413933,-0.19089524447917938
1789022026582665000,12.0086650390625,-1.2793035507202148,0.022449281066656113,-0.23487751185894012
1789022026592590600,12.018590576171874,-1.4332414865493774,-0.07528908550739288,-0.189673513174057
1789022026602516500,12.0285166015625,-1.5700751543045044,-0.3416261374950409,-0.20677772164344788
1789022026612442000,12.038442138671876,-1.6934698820114136,-0.512668251991272,-0.35216355323791504
1789022026622367700,12.04836767578125,-1.8596251010894775,-0.3477347791194916,-0.47555822134017944
1789022026632293600,12.058293701171875,-1.9708025455474854,0.040775224566459656,-0.4877755343914032
1789022026642219300,12.06821923828125,-1.9610286951065063,0.39996370673179626,-0.425467312335968
1789022026652145000,12.078144775390625,-1.928041934967041,0.38652467727661133,-0.3191768527030945
1789022026662070800,12.08807080078125,-1.8669555187225342,0.12263110280036926,-0.1798996776342392
1789022026671996400,12.097996337890624,-1.782656192779541,-0.12293653935194016,-0.06017018109560013
1789022026681922300,12.10792236328125,-1.7362303733825684,-0.366060733795166,0.01802051067352295
1789022026691848000,12.117847900390625,-1.6812525987625122,-0.5639809370040894,0.04001164436340332
1789022026701773600,12.127773681640624,-1.6201660633087158,-0.5994110703468323,0.05222893878817558
1789022026711699500,12.137699462890625,-1.5749621391296387,-0.4137081801891327,0.09621120244264603
1789022026721625000,12.147625,-1.519984245300293,-0.2084576040506363,0.14752385020256042
1789022026731550700,12.15755078125,-1.4540108442306519,-0.19868376851081848,0.23426663875579834
1789022026741476600,12.1674765625,-1.3892592191696167,-0.27320927381515503,0.3026835024356842
1789022026751402200,12.17740234375,-1.2475385665893555,-0.10216713696718216,0.281914085149765
1789022026761327900,12.187327880859375,-1.011744737625122,0.22036947309970856,0.32100942730903625
1789022026771253500,12.19725341796875,-0.7283035516738892,0.6320923566818237,0.37110036611557007
1789022026781179400,12.207179443359376,-0.378888875246048,0.8275690674781799,0.35643959045410156
1789022026791105000,12.21710498046875,-0.09300415962934494,0.48792824149131775,0.3087921440601349
1789022026801031000,12.227031005859375,0.08170316368341446,0.11774418503046036,0.250149130821228
1789022026810956500,12.23695654296875,0.26618432998657227,0.10063996911048889,0.20372340083122253
1789022026820882200,12.246882080078125,0.4286743700504303,0.10919208079576492,0.2208276242017746
1789022026830808000,12.25680810546875,0.5410735011100769,0.07498364895582199,0.27091851830482483
1789022026840733700,12.266733642578124,0.6363683938980103,-0.05085449293255806,0.28435754776000977
1789022026850659300,12.276659423828125,0.7328850030899048,-0.10583232343196869,0.27580544352531433
1789022026860585200,12.286585205078126,0.8403972387313843,0.11896591633558273,0.24037529528141022
1789022026870510800,12.2965107421875,0.9711222648620605,0.3926333487033844,0.22204934060573578
1789022026880436700,12.306436767578125,1.1458295583724976,0.5893318057060242,0.24526220560073853
1789022026890362400,12.3163623046875,1.3107631206512451,0.699287474155426,0.2574795186519623
1789022026900288000,12.3262880859375,1.4793617725372314,0.5929969549179077,0.23182319104671478
1789022026910214000,12.3362138671875,1.6858340501785278,0.4915934205055237,0.18784092366695404
1789022026920139500,12.346139404296874,1.8055635690689087,0.2704603672027588,0.17318016290664673
1789022026930065200,12.356065185546875,1.8703151941299438,-0.04230238497257233,0.2208276242017746
1789022026939990800,12.36599072265625,1.9155192375183105,-0.16814053058624268,0.23426663875579834
1789022026949916700,12.375916748046874,1.9106323719024658,-0.18402300775051117,0.21349723637104034
1789022026959842300,12.38584228515625,1.9106323719024658,-0.11438442766666412,0.2367101013660431
1789022026969768000,12.395767822265626,1.9399538040161133,0.2240346521139145,0.2660316228866577
1789022026979693800,12.40569384765625,1.9692753553390503,0.689513623714447,0.2721402645111084
1789022026989619500,12.415619384765625,1.94728422164917,0.8568905591964722,0.33078327775001526
1789022026999545300,12.42554541015625,1.8874194622039795,0.6272054314613342,0.3552178740501404
1789022027009471000,12.435470947265625,1.838550329208374,0.3681987524032593,0.2782489061355591
1789022027019396600,12.445396728515625,1.826332926750183,0.3413206934928894,0.15607595443725586
1789022027029322200,12.455322265625,1.8813108205795288,0.5648971796035767,0.060781046748161316
1789022027039248100,12.465248046875,1.8874194622039795,0.7738129496574402,0.05222893878817558
1789022027049173800,12.475173828125,1.808007001876831,0.6357575058937073,0.14752385020256042
1789022027059099400,12.485099365234374,1.7200424671173096,0.3266599476337433,0.2208276242017746
1789022027069025300,12.495025390625,1.6662863492965698,0.1776089370250702,0.21349723637104034
1789022027078951000,12.504950927734376,1.633299708366394,0.1262962967157364,0.14630211889743805
1789022027088876500,12.51487646484375,1.6113085746765137,0.1519526094198227,0.04978547990322113
1789022027098802200,12.52480224609375,1.5013529062271118,0.11285726726055145,-0.07238747924566269
1789022027108728000,12.53472802734375,1.363297462463379,0.02977965772151947,-0.09804379940032959
1789022027118653700,12.54465380859375,1.3132065534591675,0.13484840095043182,0.038789913058280945
1789022027128579300,12.554579345703125,1.3388628959655762,0.37919431924819946,0.18906265497207642
1789022027138505200,12.564505126953126,1.3388628959655762,0.5917752385139465,0.250149130821228
1789022027148430800,12.574430908203125,1.236237645149231,0.7115047574043274,0.29535311460494995
1789022027158356500,12.5843564453125,1.032208800315857,0.6003273725509644,0.29535311460494995
1789022027168282400,12.594282470703124,0.8575014472007751,0.48670652508735657,0.33078327775001526
