time,seconds_elapsed,z,y,x
1789022014799546400,0.22554638671875,9.930213928222656,2.1056840419769287,-1.0552347898483276
1789022014809472000,0.235471923828125,9.523433685302734,2.2636101245880127,-1.0217353105545044
1789022014819397600,0.245397705078125,8.949156761169434,2.3856441974639893,-0.8662018179893494
1789022014829323300,0.2553232421875,8.47298526763916,2.407179594039917,-0.794417142868042
1789022014839249000,0.265248779296875,8.173882484436035,2.3234307765960693,-0.8685946464538574
1789022014849174500,0.275174560546875,8.056633949279785,2.3306093215942383,-0.9690931439399719
1789022014859100200,0.28510009765625,8.197810173034668,2.4502503871917725,-1.2993026971817017
1789022014869025800,0.29502587890625,8.508877754211426,2.510071039199829,-1.5170495510101318
1789022014878951400,0.304951416015625,8.992227554321289,2.469393014907837,-1.5481562614440918
1789022014888877000,0.314876953125,9.535398483276367,2.366501569747925,-1.7180466651916504
1789022014898802700,0.324802734375,9.836894035339355,2.2133610248565674,-1.7276179790496826
1789022014908728300,0.334728271484375,9.980463027954102,2.014756679534912,-1.4165509939193726
1789022014918654000,0.344654052734375,10.15753173828125,1.9022940397262573,-1.373480200767517
1789022014928579600,0.35457958984375,10.162318229675293,1.832902193069458,-1.306481122970581
1789022014938505200,0.364505126953125,9.913464546203613,1.6917256116867065,-1.191625714302063
1789022014948430800,0.374430908203125,9.588040351867676,1.5744773149490356,-1.246660590171814
1789022014958356500,0.3843564453125,9.528220176696777,1.576870083808899,-1.2801600694656372
1789022014968282000,0.3942822265625,9.738788604736328,1.7180466651916504,-1.179661512374878
1789022014978207700,0.404207763671875,10.083354949951172,1.8807586431503296,-1.0600204467773438
1789022014988133400,0.41413330078125,10.37767219543457,1.9381862878799438,-0.9571290612220764
1789022014998059000,0.42405908203125,10.657631874084473,1.9334007501602173,-0.8111668825149536
1789022015007984600,0.433984619140625,11.018948554992676,1.825723648071289,-0.6747759580612183
1789022015017910300,0.44391015625,11.416156768798828,1.7204394340515137,-0.4498506486415863
1789022015027836000,0.4538359375,11.700902938842773,1.5672988891601562,-0.2679961323738098
1789022015037761500,0.463761474609375,11.662617683410645,1.4261223077774048,-0.17228323221206665
1789022015047687200,0.473687255859375,11.36351490020752,1.4476577043533325,-0.12921242415905
1789022015057612800,0.48361279296875,10.827522277832031,1.2897313833236694,-0.12442677468061447
1789022015067538400,0.493538330078125,10.411170959472656,0.3852444589138031,-0.035892341285943985
1789022015077464000,0.503464111328125,11.088339805603027,1.3615161180496216,-0.794417142868042
1789022015087389700,0.5133896484375,9.772287368774414,1.423729419708252,-0.39481574296951294
1789022015097315300,0.5233154296875,9.059226989746094,1.5912270545959473,-0.42352959513664246
1789022015107241000,0.533240966796875,8.817551612854004,1.7778671979904175,-0.7968099117279053
1789022015117166600,0.54316650390625,8.796015739440918,1.7395820617675781,-1.0528420209884644
1789022015127092200,0.55309228515625,8.937192916870117,1.5290136337280273,-1.0767701864242554
1789022015137017900,0.563017822265625,9.181260108947754,1.2681959867477417,-1.100698471069336
1789022015146943500,0.572943603515625,9.494720458984375,1.100698471069336,-1.0336993932724
1789022015156869000,0.582869140625,9.863214492797852,1.1270195245742798,-0.8781659007072449
1789022015166794800,0.592794677734375,10.365707397460938,1.430907964706421,-0.6699903607368469
1789022015176720400,0.602720458984375,10.71984577178955,1.978864312171936,-0.4163511395454407
1789022015186646000,0.61264599609375,10.480563163757324,2.5842485427856445,-0.03349951654672623
1789022015196571600,0.622571533203125,10.585846900939941,3.2757742404937744,0.38763725757598877
1789022015206497300,0.632497314453125,11.054841041564941,3.775874137878418,0.8111668825149536
1789022015216423000,0.6424228515625,11.344371795654297,3.7639100551605225,1.1868400573730469
1789022015226348500,0.6523486328125,11.523834228515625,3.7328033447265625,1.4069796800613403
1789022015236274200,0.662274169921875,11.397014617919922,3.675375461578369,1.5984054803848267
1789022015246200000,0.672199951171875,10.8969144821167,3.7232320308685303,1.7324036359786987
1789022015256125700,0.682125732421875,10.202995300292969,3.8045880794525146,1.8999011516571045
1789022015266051300,0.69205126953125,8.970691680908203,3.81655216217041,1.7515461444854736
1789022015275977000,0.70197705078125,7.063612461090088,3.744767427444458,1.4141582250595093
1789022015285902600,0.711902587890625,6.355337142944336,3.696911096572876,0.9092726111412048
1789022015295828200,0.721828125,6.262016773223877,3.5126636028289795,0.5623133182525635
1789022015305753900,0.73175390625,6.3122663497924805,3.046063184738159,0.040677983313798904
1789022015315679500,0.741679443359375,6.137589931488037,2.9072794914245605,-0.08374879509210587
1789022015325605000,0.751605224609375,6.044270038604736,3.3403804302215576,0.11006984114646912
1789022015335530800,0.76153076171875,6.072983741760254,3.728017568588257,0.37088751792907715
1789022015345456600,0.77145654296875,6.422336101531982,4.261617183685303,0.8374879360198975
1789022015355382300,0.78138232421875,6.8554368019104,4.7952165603637695,1.5361921787261963
1789022015365308000,0.791307861328125,7.240681171417236,5.015356063842773,2.0985054969787598
1789022015375233500,0.801233642578125,7.788637638092041,4.706682205200195,2.4526431560516357
1789022015385159200,0.8111591796875,8.288737297058105,3.981656789779663,2.5387847423553467
1789022015395084800,0.821084716796875,8.47298526763916,3.091526746749878,2.4646072387695312
1789022015405010400,0.831010498046875,9.140582084655762,2.8043880462646484,2.2923240661621094
1789022015414936000,0.84093603515625,9.89432144165039,3.0388846397399902,2.620140790939331
1789022015424862000,0.850862060546875,10.126425743103027,3.2925238609313965,3.019742250442505
1789022015434787600,0.86078759765625,10.39920711517334,3.4337005615234375,3.524627685546875
1789022015444713200,0.870713134765625,10.593026161193848,3.3858439922332764,4.041477680206299
1789022015454638800,0.880638916015625,10.04267692565918,2.833101987838745,4.271188259124756
1789022015464564500,0.890564453125,9.159725189208984,2.3569302558898926,4.371686935424805
1789022015474490000,0.900489990234375,8.405985832214355,2.6249263286590576,3.902693748474121
1789022015484416000,0.910416015625,6.695117950439453,5.113461971282959,-0.38763725757598877
1789022015494341600,0.920341552734375,5.5728840827941895,5.9198431968688965,0.19381862878799438
1789022015504267300,0.930267333984375,6.821937561035156,3.6681971549987793,2.5986053943634033
1789022015514193000,0.94019287109375,8.772088050842285,2.5746772289276123,2.7421748638153076
1789022015524118500,0.950118408203125,9.640682220458984,2.644068956375122,2.6943182945251465
1789022015534044400,0.96004443359375,9.573683738708496,3.067598581314087,3.594019651412964
1789022015543970000,0.969969970703125,9.839286804199219,3.7256247997283936,4.450650215148926
1789022015553895700,0.979895751953125,10.147960662841797,4.426722049713135,4.474578380584717
1789022015563821300,0.9898212890625,9.29611587524414,4.515256404876709,3.589233875274658
1789022015573747000,0.999746826171875,7.8795647621154785,3.8596229553222656,2.469393014907837
1789022015583672800,1.0096728515625,6.8410797119140625,3.6777684688568115,1.7395820617675781
1789022015593598500,1.019598388671875,6.951149940490723,3.3954153060913086,1.9334007501602173
1789022015603524000,1.029524169921875,7.226324558258057,3.6634113788604736,2.383251428604126
1789022015613450000,1.039449951171875,7.45364236831665,4.333401679992676,3.1345977783203125
1789022015623375600,1.049375732421875,7.884350776672363,4.515256404876709,4.54636287689209
1789022015633301200,1.05930126953125,8.147561073303223,4.529613494873047,5.98444938659668
1789022015643227000,1.069226806640625,8.62612533569336,4.436293125152588,6.288337707519531
1789022015653152800,1.07915283203125,8.384450912475586,3.8572301864624023,6.051448345184326
1789022015663078400,1.089078369140625,7.247859954833984,3.2446675300598145,5.807380676269531
1789022015673004000,1.099004150390625,5.714060306549072,2.8498518466949463,5.903093338012695
1789022015682929700,1.1089296875,4.500899314880371,2.1583259105682373,6.776473522186279
1789022015692855600,1.11885546875,3.9385859966278076,0.9619147181510925,5.893522262573242
1789022015702781200,1.12878125,3.4959139823913574,0.8949156403541565,5.383851051330566
1789022015712706800,1.138706787109375,2.469393014907837,0.8685946464538574,5.989234924316406
1789022015722632700,1.1486328125,1.9022940397262573,1.124626636505127,6.912864685058594
1789022015732558300,1.158558349609375,2.2468605041503906,0.5886343717575073,7.2095746994018555
1789022015742484000,1.16848388671875,2.2444677352905273,0.4331009089946747,7.23589563369751
1789022015752409900,1.178409912109375,2.2995026111602783,0.04785645380616188,6.91765022277832
1789022015762335500,1.18833544921875,1.5625132322311401,-0.15553347766399384,5.78345251083374
1789022015772261000,1.19826123046875,0.2632105052471161,-0.916451096534729,4.967499732971191
1789022015782186800,1.208186767578125,-0.8063812255859375,-1.5625132322311401,5.383851051330566
1789022015792112600,1.218112548828125,-0.8063812255859375,-1.6319050788879395,5.682953834533691
1789022015802038300,1.228038330078125,-0.09092725813388824,-1.8616160154342651,5.709274768829346
1789022015811964200,1.237964111328125,0.6963114142417908,-2.2755744457244873,5.979663848876953
1789022015821889800,1.247889892578125,1.2346965074539185,-2.500499725341797,6.561119556427002
1789022015831815400,1.2578154296875,1.4404792785644531,-2.3808584213256836,7.106683254241943
1789022015841741300,1.2677412109375,1.6701902151107788,-2.2636101245880127,8.374878883361816
1789022015851667000,1.2776669921875,2.0410776138305664,-2.4335005283355713,9.600004196166992
1789022015861592600,1.287592529296875,2.148754835128784,-2.65842604637146,10.794022560119629
1789022015871518200,1.297518310546875,2.5292134284973145,-2.5148565769195557,12.629318237304688
1789022015881444000,1.307444091796875,3.5054850578308105,-2.3569302558898926,13.574482917785645
1789022015891370000,1.317369873046875,4.773681163787842,-2.03629207611084,14.411971092224121
1789022015901295600,1.327295654296875,5.819344520568848,-1.373480200767517,15.658631324768066
1789022015911221200,1.33722119140625,6.570691108703613,-0.7872386574745178,16.149160385131836
1789022015921147100,1.347147216796875,6.561119556427002,-0.914058268070221,15.270994186401367
1789022015931072800,1.35707275390625,6.2668023109436035,-1.4979069232940674,14.344971656799316
1789022015940998400,1.366998291015625,5.702096462249756,-2.012363910675049,13.811372756958008
1789022015950924300,1.37692431640625,5.601597785949707,-2.0865414142608643,13.84247875213623
1789022015960850000,1.386849853515625,8.927620887756348,-1.124626636505127,13.694124221801758
1789022015970775800,1.39677587890625,9.286544799804688,-1.1341979503631592,14.237295150756836
1789022015980701400,1.406701416015625,9.449256896972656,-1.466800332069397,13.698909759521484
1789022015990627000,1.416626953125,8.403593063354492,-1.4093725681304932,13.227523803710938
1789022016000553000,1.426552978515625,5.769095420837402,-1.1365907192230225,13.110275268554688
1789022016010478600,1.436478515625,3.87876558303833,-0.97148597240448,12.79442310333252
1789022016020404200,1.446404296875,3.2614171504974365,-1.2275179624557495,12.232109069824219
1789022016030330000,1.456330078125,3.1585259437561035,-1.3758729696273804,11.564512252807617
1789022016040255700,1.466255859375,2.50289249420166,-0.9762716293334961,11.547761917114258
1789022016050181600,1.476181640625,1.3088740110397339,-1.215553879737854,11.68175983428955
1789022016060107300,1.486107177734375,1.6390835046768188,-3.081955671310425,10.171889305114746
1789022016070033200,1.496033203125,0.34695929288864136,-2.172683000564575,10.040284156799316
1789022016079958800,1.505958740234375,0.4163511395454407,-0.8015955686569214,11.248659133911133
1789022016089884700,1.515884765625,0.20817556977272034,-3.2685956954956055,10.016355514526367
1789022016099810300,1.525810302734375,1.031306505203247,-4.096512317657471,9.42054271697998
1789022016109736000,1.53573583984375,1.3854442834854126,-3.2853455543518066,10.899307250976562
1789022016119661800,1.545661865234375,-0.8374879360198975,-4.225724697113037,10.40638542175293
1789022016129587500,1.55558740234375,0.26560330390930176,-5.111069202423096,11.59561824798584
1789022016139513300,1.565513427734375,-0.48095735907554626,-4.814359188079834,13.186845779418945
1789022016149439000,1.57543896484375,-4.000799655914307,-2.770888566970825,15.756736755371094
1789022016159364900,1.58536474609375,-6.38883638381958,-1.7228323221206665,17.77867317199707
1789022016169290500,1.59529052734375,-8.733802795410156,0.3445664644241333,18.95833396911621
1789022016179216100,1.605216064453125,-10.973484992980957,1.0241280794143677,18.470197677612305
1789022016189142000,1.61514208984375,-9.93260669708252,-0.46899324655532837,16.716259002685547
1789022016199068000,1.62506787109375,-4.115654945373535,-2.8761727809906006,15.993626594543457
1789022016208993500,1.63499365234375,0.9810572862625122,-3.373879909515381,15.826128959655762
1789022016218919200,1.644919189453125,0.6699903607368469,-0.4498506486415863,15.883556365966797
1789022016228845000,1.654844970703125,0.02153540402650833,-5.182853698730469,12.557533264160156
1789022016238770700,1.664770751953125,-1.9597218036651611,-4.027120590209961,12.557533264160156
1789022016248696600,1.674696533203125,1.0959128141403198,-5.9676995277404785,12.430713653564453
1789022016258622200,1.684622314453125,10.686346054077148,-6.324230194091797,11.174481391906738
1789022016268548000,1.694548095703125,-4.07258415222168,-2.6177480220794678,11.956934928894043
1789022016278473700,1.7044736328125,-8.425128936767578,-3.208775281906128,11.341979026794434
1789022016288399400,1.7143994140625,-3.620340585708618,-3.6227335929870605,9.829715728759766
1789022016302095400,1.728095458984375,12.772887229919434,-7.680960655212402,10.102497100830078
1789022016312018700,1.738018798828125,3.6993038654327393,-6.135197162628174,7.436892986297607
1789022016321944600,1.747944580078125,-4.742574691772461,-6.049055576324463,5.881557941436768
1789022016331870200,1.7578701171875,-5.517848968505859,-4.9052863121032715,5.642275810241699
1789022016341795800,1.7677958984375,-3.799802303314209,-1.703689694404602,7.36032247543335
1789022016351721700,1.7777216796875,-1.129412293434143,-2.837887763977051,9.073583602905273
1789022016361647400,1.7876474609375,2.9144580364227295,-3.1585259437561035,11.758330345153809
1789022016371573200,1.7975732421875,-5.335994720458984,-0.46899324655532837,10.60977554321289
1789022016381499000,1.807498779296875,-5.97727108001709,-0.22013968229293823,9.265008926391602
1789022016391424800,1.8174248046875,-2.9240293502807617,-0.6508477330207825,7.140182971954346
1789022016401350400,1.827350341796875,-0.8997012972831726,-1.0528420209884644,6.776473522186279
1789022016411275800,1.83727587890625,-4.1347975730896,1.3495519161224365,8.350951194763184
1789022016421201400,1.847201416015625,-1.8855443000793457,1.9621145725250244,8.82951545715332
1789022016431127300,1.857127197265625,-0.22971096634864807,1.2969099283218384,7.11146879196167
1789022016441053000,1.867052978515625,0.9475577473640442,1.0480563640594482,6.183053493499756
1789022016450978800,1.876978759765625,1.0863415002822876,0.8422735929489136,5.986842155456543
1789022016460904400,1.886904541015625,-0.550349235534668,0.27756741642951965,5.982056617736816
1789022016470830300,1.896830322265625,-0.23449662327766418,0.7178468108177185,7.039684295654297
1789022016480756000,1.906755859375,-1.373480200767517,-0.16271193325519562,6.546762943267822
1789022016490681900,1.916681884765625,-0.6508477330207825,-0.019142581149935722,7.910671710968018
1789022016500607500,1.926607421875,0.20578274130821228,-0.03349951654672623,9.317651748657227
1789022016510533400,1.936533447265625,-0.4211367964744568,-0.6556333899497986,9.05444049835205
1789022016520459000,1.946458984375,0.5120640397071838,-0.5694918036460876,10.03549861907959
1789022016530385000,1.956385009765625,2.1678972244262695,0.09571290761232376,12.466606140136719
1789022016540310800,1.966310791015625,2.3401806354522705,-0.3732803463935852,10.04985523223877
1789022016550236400,1.976236328125,3.2350962162017822,-1.0528420209884644,8.97787094116211
1789022016560162300,1.986162353515625,1.6701902151107788,1.5409778356552124,11.95454216003418
1789022016570088000,1.996087890625,-5.699703693389893,-0.8614161610603333,6.843472957611084
1789022016580013800,2.006013916015625,-2.699103832244873,-0.46899324655532837,6.278766632080078
1789022016589939500,2.015939453125,-4.278367042541504,-0.5407779216766357,5.149354457855225
1789022016599865300,2.025865234375,-3.617947816848755,4.264009952545166,8.518448829650879
1789022016609791000,2.035791015625,1.9764715433120728,1.7563318014144897,5.972485542297363
1789022016619716900,2.045716796875,-8.015955924987793,-6.484549522399902,-3.8572301864624023
1789022016629642500,2.055642578125,-5.431707382202148,2.589034080505371,6.015556335449219
1789022016639568400,2.065568359375,-4.967499732971191,-3.383451223373413,3.651447296142578
1789022016649494300,2.075494384765625,-8.303094863891602,1.6223337650299072,4.4650068283081055
1789022016659420000,2.085419921875,-7.915457248687744,-2.2540390491485596,6.7621169090271
1789022016669345800,2.095345703125,-1.770688772201538,2.282752752304077,10.930414199829102
1789022016679271400,2.105271484375,6.9104719161987305,-11.475976943969727,5.891129493713379
1789022016689197300,2.115197265625,-4.168296813964844,-6.197410583496094,10.279565811157227
1789022016699123200,2.125123291015625,-5.034498691558838,-7.221538543701172,15.519847869873047
1789022016709048800,2.135048828125,-5.225924491882324,-9.714859962463379,15.969697952270508
1789022016718974700,2.144974609375,-0.019142581149935722,-10.533205032348633,17.635103225708008
1789022016728900400,2.154900390625,-0.5886343717575073,-13.25145149230957,13.2897367477417
1789022016738826200,2.164826171875,-2.943171739578247,-8.752944946289062,11.887542724609375
1789022016748752000,2.174751953125,0.1866401731967926,-14.888142585754395,9.06401252746582
1789022016758677800,2.184677734375,-1.4739787578582764,-13.95972728729248,11.093125343322754
1789022016768603600,2.194603759765625,-3.421736478805542,-10.17428207397461,13.686945915222168
1789022016778529300,2.204529296875,-3.1585259437561035,-10.77248764038086,13.246665954589844
1789022016788455200,2.214455078125,-2.4646072387695312,-10.389636039733887,13.34716510772705
1789022016798381000,2.224381103515625,-1.852044701576233,-10.193424224853516,12.56710433959961
1789022016808306700,2.234306640625,-0.885344386100769,-10.595418930053711,11.3180513381958
1789022016818232600,2.244232666015625,-2.3641088008880615,-10.140782356262207,9.987641334533691
1789022016828158200,2.254158203125,-2.9383862018585205,-9.724431037902832,10.336994171142578
1789022016838084000,2.264083984375,-2.0338993072509766,-8.772088050842285,11.040483474731445
1789022016848010000,2.274010009765625,-2.4885356426239014,-8.250452041625977,11.140982627868652
1789022016857935600,2.283935546875,-0.062213387340307236,-8.60459041595459,10.801201820373535
1789022016867861500,2.293861572265625,-0.8231309652328491,-5.383851051330566,13.203595161437988
1789022016877787400,2.303787353515625,-2.555534601211548,-5.9198431968688965,12.112467765808105
1789022016887713000,2.313713134765625,-1.6223337650299072,-6.436692714691162,8.834300994873047
1789022016897639000,2.323638916015625,4.024727821350098,-12.222537994384766,6.632904529571533
1789022016907564800,2.333564697265625,-6.125626087188721,-0.2392822653055191,8.95394229888916
1789022016917490400,2.343490478515625,-5.924628734588623,-0.32542386651039124,12.466606140136719
1789022016927416300,2.353416259765625,-5.752345561981201,-2.7086751461029053,5.37906551361084
1789022016937342200,2.36334228515625,-1.9764715433120728,-0.5312066078186035,3.972085475921631
1789022016947267800,2.373267822265625,-7.6666035652160645,3.201596736907959,6.10169792175293
1789022016957193700,2.38319384765625,-3.6370904445648193,6.125626087188721,3.081955671310425
1789022016967119600,2.39311962890625,-4.153940200805664,8.925228118896484,5.312066078186035
1789022016977045200,2.403045166015625,-1.679761528968811,7.934599876403809,3.4121651649475098
1789022016986971100,2.41297119140625,-2.7326035499572754,11.959327697753906,4.240081787109375
1789022016996896800,2.422896728515625,-5.087141036987305,12.031112670898438,4.60857629776001
1789022017006822700,2.43282275390625,-3.8524444103240967,10.241280555725098,1.9860427379608154
1789022017016748500,2.44274853515625,-5.259424209594727,10.600204467773438,2.258824586868286
1789022017026674400,2.45267431640625,-2.2779672145843506,8.207381248474121,2.2157537937164307
1789022017036600000,2.46260009765625,-9.174081802368164,10.600204467773438,4.287938117980957
1789022017046526000,2.47252587890625,-4.632504463195801,5.000999450683594,8.087740898132324
1789022017056451800,2.482451904296875,-10.29870891571045,4.091726779937744,3.9625144004821777
1789022017066377500,2.49237744140625,-6.187839508056641,2.8187451362609863,9.480362892150879
1789022017076303400,2.502303466796875,-2.9144580364227295,-4.019941806793213,9.164510726928711
1789022017086229200,2.512229248046875,-1.5649060010910034,-12.758530616760254,18.151952743530273
1789022017096155000,2.52215478515625,-10.179067611694336,-10.547562599182129,18.616159439086914
1789022017106080800,2.532080810546875,-7.685746192932129,-13.12702465057373,11.648261070251465
1789022017116006700,2.542006591796875,4.934000492095947,-18.324235916137695,11.887542724609375
1789022017125932300,2.551932373046875,1.703689694404602,-18.324235916137695,16.831113815307617
1789022017135858200,2.561858154296875,-0.11964113265275955,-18.352949142456055,17.30967903137207
1789022017145784000,2.5717841796875,-1.454836130142212,-18.123239517211914,14.041083335876465
1789022017155710000,2.5817099609375,-3.177668571472168,-16.792829513549805,11.763115882873535
1789022017165635600,2.591635498046875,-4.627718925476074,-14.304293632507324,8.781659126281738
1789022017175561500,2.6015615234375,-1.9046868085861206,-13.73480224609375,6.8865437507629395
1789022017185487400,2.6114873046875,-1.588834285736084,-14.323436737060547,4.512863636016846
1789022017195413000,2.6214130859375,-3.2303106784820557,-16.271194458007812,0.22971096634864807
1789022017205339000,2.6313388671875,-2.3258235454559326,-17.9222412109375,-5.742774486541748
1789022017215264800,2.6412646484375,1.6031911373138428,-19.25265121459961,-7.786244869232178
1789022017225190700,2.651190673828125,7.5565338134765625,-18.70708656311035,-7.015756130218506
1789022017235116300,2.6611162109375,10.920842170715332,-21.401405334472656,-13.931013107299805
1789022017245042200,2.671042236328125,11.643474578857422,-19.329221725463867,-3.2207393646240234
1789022017254968000,2.680968017578125,10.901700019836426,-17.28096580505371,3.84765887260437
1789022017264893700,2.690893798828125,1.277767300605774,24.277578353881836,80.06863403320312
1789022017274819600,2.700819580078125,-15.672987937927246,13.481163024902344,45.84648132324219
1789022017284745500,2.710745361328125,-6.168696880340576,-3.129812002182007,16.295122146606445
1789022017294671400,2.72067138671875,1.3256237506866455,3.651447296142578,16.429121017456055
1789022017304597000,2.730596923828125,-5.020142078399658,6.604190349578857,18.635303497314453
1789022017314523000,2.74052294921875,-7.609176158905029,5.843272686004639,14.328222274780273
1789022017324448800,2.75044873046875,-9.221938133239746,6.331408500671387,12.648460388183594
1789022017334374700,2.760374755859375,-8.786444664001465,6.613761901855469,10.102497100830078
1789022017344300500,2.770300537109375,-8.508877754211426,5.8337016105651855,7.9728851318359375
1789022017354226200,2.78022607421875,-7.350750923156738,0.32542386651039124,4.7712883949279785
1789022017364152000,2.790152099609375,-3.1968109607696533,9.90149974822998,9.595218658447266
1789022017374077700,2.80007763671875,-8.714659690856934,8.657232284545898,8.00638484954834
1789022017384003600,2.810003662109375,-7.4847493171691895,0.33020952343940735,8.537590980529785
1789022017393929500,2.819929443359375,0.1818545162677765,-5.283352375030518,2.612962245941162
1789022017403855400,2.82985546875,1.5984054803848267,-6.417550563812256,9.365508079528809
1789022017413781200,2.83978125,-2.641676187515259,-13.270594596862793,8.059026718139648
1789022017423707000,2.849706787109375,-0.3732803463935852,-12.495320320129395,4.2209391593933105
1789022017433632800,2.8596328125,-3.933800458908081,13.63908863067627,11.624332427978516
1789022017443558700,2.86955859375,-7.17368221282959,-24.38764762878418,19.812570571899414
1789022017453484500,2.879484619140625,15.893128395080566,-28.354948043823242,-3.3643085956573486
1789022017463410400,2.889410400390625,-7.661818027496338,-17.635103225708008,-3.895515203475952
1789022017473336000,2.899336181640625,-5.3216376304626465,-18.865013122558594,1.947757601737976
1789022017483262000,2.909261962890625,-6.20219612121582,-20.7840576171875,-1.4644074440002441
1789022017493187800,2.919187744140625,-5.125426292419434,-19.755144119262695,-1.9286150932312012
1789022017503113700,2.92911376953125,-4.488935470581055,-17.51067543029785,1.947757601737976
1789022017513039400,2.939039306640625,-3.373879909515381,-13.390235900878906,5.570491313934326
1789022017522965200,2.94896533203125,-2.8905298709869385,-12.959527015686035,7.221538543701172
1789022017532891100,2.95889111328125,-3.0245277881622314,-11.20798110961914,8.757730484008789
1789022017542817000,2.968817138671875,-4.187439441680908,-8.011170387268066,4.512863636016846
1789022017552742700,2.97874267578125,-5.245067119598389,-8.958727836608887,7.858029365539551
1789022017562668500,2.98866845703125,-6.10169792175293,-6.829115867614746,5.139782905578613
1789022017572594400,2.998594482421875,-0.6747759580612183,0.5407779216766357,3.8811583518981934
1789022017582520300,3.008520263671875,-3.78544545173645,-0.6317051649093628,8.236095428466797
1789022017592446200,3.0184462890625,-10.145567893981934,-1.8855443000793457,11.662617683410645
1789022017602371800,3.028371826171875,-9.17886734008789,-2.5986053943634033,9.78664493560791
1789022017612297700,3.038297607421875,-5.848058700561523,-6.680760860443115,6.733402729034424
1789022017622223600,3.0482236328125,-2.9623143672943115,-3.10109806060791,8.973084449768066
1789022017632149500,3.0581494140625,-2.770888566970825,-2.029113531112671,10.63370418548584
1789022017642075400,3.068075439453125,-3.9194436073303223,-7.6043901443481445,7.561319351196289
1789022017652001000,3.0780009765625,-4.254438877105713,-7.69531774520874,6.675975322723389
1789022017661927000,3.087927001953125,-2.2444677352905273,-3.239881753921509,10.743773460388184
1789022017671852800,3.097852783203125,-1.7276179790496826,-2.124826431274414,9.322437286376953
1789022017681778700,3.10777880859375,-2.139183521270752,-3.421736478805542,7.561319351196289
1789022017691704300,3.117704345703125,-9.265008926391602,-7.197610378265381,7.010970115661621
1789022017701630200,3.127630126953125,-7.403393268585205,-5.139782905578613,5.934200286865234
1789022017711556000,3.13755615234375,-7.278966426849365,-1.062413215637207,3.043670415878296
1789022017721482000,3.14748193359375,-3.1585259437561035,11.710474014282227,-2.8522446155548096
1789022017731408000,3.157407958984375,-1.1820544004440308,23.004596710205078,-0.09092725813388824
1789022017741333500,3.16733349609375,-7.8819580078125,21.592830657958984,2.431107759475708
1789022017751259400,3.17725927734375,-12.20339584350586,19.745573043823242,1.828116536140442
1789022017761185300,3.187185302734375,0.22492532432079315,9.255437850952148,-1.1868400573730469
1789022017771111200,3.197111083984375,-4.589433670043945,1.6558332443237305,-0.35413774847984314
1789022017781037000,3.207037109375,3.8907296657562256,2.555534601211548,-0.7082754969596863
1789022017790963000,3.216962890625,0.6604190468788147,-8.327022552490234,-3.900300979614258
1789022017800888600,3.226888671875,-1.8711873292922974,-8.767302513122559,2.6799614429473877
1789022017810814500,3.236814453125,-8.260024070739746,-37.08396530151367,11.341979026794434
1789022017820740400,3.246740234375,2.8809585571289062,-39.9027099609375,22.9423828125
1789022017830666200,3.256666259765625,-11.198410034179688,-38.67279815673828,24.062225341796875
1789022017840592000,3.266591796875,-1.5936198234558105,-9.475577354431152,17.35274887084961
1789022017850517800,3.276517822265625,0.062213387340307236,-20.17149543762207,17.3814640045166
1789022017860443600,3.286443603515625,-5.536991596221924,-24.354148864746094,7.322037220001221
1789022017870369500,3.29636962890625,-9.016156196594238,-16.338193893432617,7.03489875793457
1789022017880295400,3.30629541015625,-4.843072891235352,-10.389636039733887,8.499305725097656
1789022017890221300,3.31622119140625,-2.172683000564575,-8.685946464538574,9.308079719543457
1789022017900147000,3.32614697265625,-2.100898265838623,-9.509077072143555,9.77707290649414
1789022017910072800,3.33607275390625,-3.10109806060791,-7.465606689453125,8.312665939331055
1789022017919998700,3.345998779296875,-3.680161237716675,-6.130411624908447,7.255038261413574
1789022017929924600,3.355924560546875,-3.7902309894561768,-6.403193473815918,6.9822564125061035
1789022017939850500,3.3658505859375,-4.618147850036621,-4.742574691772461,6.69990348815918
1789022017949776100,3.375776123046875,-4.7473602294921875,-3.493520975112915,6.900900363922119
1789022017959702000,3.385701904296875,-3.6705899238586426,-2.282752752304077,6.216553211212158
1789022017969628000,3.3956279296875,-1.9381862878799438,-2.909672260284424,6.197410583496094
1789022017979553800,3.4055537109375,-2.56510591506958,-4.082155227661133,6.364908218383789
1789022017989479700,3.415479736328125,-4.273581027984619,-5.31685209274292,6.5419769287109375
1789022017999405300,3.4254052734375,-4.235296249389648,-6.0777692794799805,7.274180889129639
1789022018009331200,3.435331298828125,-2.2444677352905273,-6.503692150115967,7.336394309997559
1789022018019257000,3.445257080078125,-1.0193424224853516,-7.121040344238281,5.718846321105957
1789022018029183000,3.455182861328125,-2.8666014671325684,-7.197610378265381,5.182853698730469
1789022018039108900,3.46510888671875,-4.455435752868652,-7.4464640617370605,5.355136871337891
1789022018049034800,3.47503466796875,-4.1491546630859375,-7.6474609375,6.613761901855469
1789022018058960400,3.48496044921875,-2.2205393314361572,-7.594819068908691,7.025327205657959
1789022018068886300,3.49488623046875,-1.0911271572113037,-6.939185619354248,6.484549522399902
1789022018078812200,3.504812255859375,-2.857030153274536,-6.269195556640625,6.364908218383789
1789022018088738000,3.514738037109375,-3.4265220165252686,-5.886343479156494,7.609176158905029
1789022018098664000,3.524663818359375,-2.823530673980713,-6.072983741760254,8.044670104980469
1789022018108589800,3.53458984375,-2.957528829574585,-6.197410583496094,8.35573673248291
1789022018118515500,3.544515380859375,-3.211168050765991,-6.398407936096191,8.417949676513672
1789022018128441300,3.55444140625,-4.292723655700684,-6.647261142730713,8.556734085083008
1789022018138367200,3.5643671875,-4.718646049499512,-6.508477687835693,8.93958568572998
1789022018148293000,3.574293212890625,-4.34536600112915,-6.455835342407227,8.719446182250977
1789022018158218800,3.58421875,-4.575077056884766,-5.934200286865234,8.499305725097656
1789022018168144600,3.59414453125,-3.7902309894561768,-6.273981094360352,7.575676441192627
1789022018178070500,3.604070556640625,-4.474578380584717,-6.719046115875244,7.17368221282959
1789022018187996400,3.613996337890625,-5.06799840927124,-6.38883638381958,7.877171993255615
1789022018197922300,3.62392236328125,-5.024927616119385,-6.9104719161987305,8.063812255859375
1789022018207848200,3.63384814453125,-5.402993679046631,-7.494320392608643,8.350951194763184
1789022018217774000,3.643774169921875,-5.589633464813232,-8.413164138793945,8.441878318786621
1789022018227699700,3.65369970703125,-7.17368221282959,-8.408378601074219,9.422935485839844
1789022018237625600,3.66362548828125,-7.4225358963012695,-7.963313579559326,9.767501831054688
1789022018247551500,3.673551513671875,-5.800201892852783,-7.130611419677734,9.805787086486816
1789022018257477400,3.683477294921875,-4.048655986785889,-6.436692714691162,9.738788604736328
1789022018267403300,3.6934033203125,-2.526820659637451,-5.589633464813232,9.580862045288086
1789022018277329200,3.7033291015625,-1.397408366203308,-4.986642360687256,9.41336441040039
1789022018287254800,3.7132548828125,-1.1150553226470947,-4.7952165603637695,8.925228118896484
1789022018297180700,3.7231806640625,-1.698904037475586,-4.780859470367432,9.011369705200195
1789022018307106600,3.7331064453125,-1.7994025945663452,-4.369294166564941,8.858229637145996
1789022018317032400,3.743032470703125,-3.297309637069702,-4.235296249389648,8.767302513122559
1789022018326958300,3.752958251953125,-5.26899528503418,-5.063212871551514,8.595019340515137
1789022018336884200,3.76288427734375,-7.082755088806152,-6.116054534912109,8.819944381713867
1789022018346810000,3.77281005859375,-7.23589563369751,-6.537191390991211,9.126225471496582
1789022018356735700,3.78273583984375,-6.580262184143066,-5.795416355133057,9.896714210510254
1789022018366661600,3.79266162109375,-6.355337142944336,-4.503292083740234,11.33240795135498
1789022018376587500,3.80258740234375,-5.8959150314331055,-3.555734395980835,11.887542724609375
1789022018386513400,3.812513427734375,-4.890929698944092,-3.0723843574523926,11.978469848632812
1789022018396439300,3.822439208984375,-2.7900311946868896,-3.1202406883239746,11.68175983428955
1789022018406365200,3.832365234375,0.9092726111412048,-3.728017568588257,10.930414199829102
1789022018416291000,3.842291015625,1.2729816436767578,-3.7806596755981445,9.992427825927734
1789022018426216700,3.852216796875,-1.435693621635437,-3.005385160446167,9.93978500366211
1789022018436142600,3.862142578125,-5.460421085357666,-2.4406790733337402,9.949356079101562
1789022018446068500,3.872068359375,-10.418350219726562,-3.1345977783203125,9.059226989746094
1789022018455994400,3.881994384765625,-12.80160140991211,-3.7950167655944824,9.265008926391602
1789022018465920300,3.891920166015625,-9.265008926391602,-4.402793884277344,10.03549861907959
1789022018475846100,3.90184619140625,-2.9527430534362793,-5.527420520782471,9.69093132019043
1789022018485772000,3.91177197265625,0.2919243574142456,-5.513063430786133,9.011369705200195
1789022018495697700,3.92169775390625,-0.0526420995593071,-5.077569484710693,8.135597229003906
1789022018505623600,3.93162353515625,-2.6464617252349854,-4.752145767211914,7.968099594116211
1789022018515549400,3.941549560546875,-5.742774486541748,-4.436293125152588,8.561519622802734
1789022018525475300,3.951475341796875,-7.63310432434082,-5.355136871337891,8.49452018737793
1789022018535401200,3.961401123046875,-6.929614543914795,-5.216353416442871,8.810373306274414
1789022018545327000,3.9713271484375,-3.8285162448883057,-4.785645484924316,8.6907320022583
1789022018555253000,3.9812529296875,-1.0815558433532715,-4.474578380584717,7.637889862060547
1789022018565179000,3.991178955078125,-0.97148597240448,-4.230510234832764,6.69990348815918
1789022018575104500,4.0011044921875,-3.1106693744659424,-4.153940200805664,6.412764549255371
1789022018585030400,4.011030517578125,-6.015556335449219,-2.833101987838745,7.207181930541992
1789022018594956300,4.020956298828125,-6.331408500671387,-2.3976082801818848,7.010970115661621
1789022018604882200,4.030882080078125,-4.139583110809326,-3.589233875274658,6.168696880340576
1789022018614808000,4.04080810546875,-1.6701902151107788,-3.838087558746338,5.953342914581299
1789022018624734000,4.05073388671875,-0.9284151792526245,-4.359723091125488,4.651647090911865
1789022018634659800,4.060659912109375,-3.1441688537597656,-2.273181438446045,6.063412666320801
1789022018644585500,4.07058544921875,-4.589433670043945,0.28235307335853577,8.073383331298828
1789022018654511400,4.080511474609375,-4.086941242218018,-1.6893328428268433,5.8097734451293945
1789022018664437200,4.090437255859375,-2.3545374870300293,-2.5459632873535156,5.446064472198486
1789022018674363100,4.100363037109375,-1.6271194219589233,-2.579462766647339,4.584648132324219
1789022018684289000,4.1102890625,-3.0484559535980225,-1.4979069232940674,4.46979284286499
1789022018694215000,4.12021484375,-3.9768712520599365,-0.9092726111412048,4.838287353515625
1789022018704140800,4.130140869140625,-1.9860427379608154,-1.8233308792114258,3.6370904445648193
1789022018714066700,4.140066650390625,-1.4404792785644531,-2.2396819591522217,2.9048867225646973
1789022018723992600,4.14999267578125,-2.541177749633789,-2.2779672145843506,3.0484559535980225
1789022018733918200,4.159918212890625,-4.627718925476074,-0.7800601720809937,4.9052863121032715
1789022018743844000,4.169843994140625,-4.651647090911865,-0.12442677468061447,4.527220249176025
1789022018753770000,4.17977001953125,-3.6610186100006104,0.15314064919948578,4.000799655914307
1789022018763695900,4.18969580078125,-2.163111686706543,-0.4163511395454407,3.3643085956573486
1789022018773621800,4.199621826171875,-3.0005996227264404,-0.9667003750801086,3.94815731048584
1789022018783547600,4.209547607421875,-4.728217601776123,-1.1581261157989502,5.934200286865234
1789022018793473500,4.2194736328125,-5.642275810241699,-1.3112667798995972,6.857829570770264
1789022018803399400,4.2293994140625,-6.3840508460998535,-1.129412293434143,7.618747234344482
1789022018813325000,4.239324951171875,-5.513063430786133,-1.0193424224853516,8.164310455322266
1789022018823251000,4.2492509765625,-3.4743785858154297,-1.703689694404602,7.250252723693848
1789022018833176800,4.2591767578125,-2.919243574142456,-2.723032236099243,6.403193473815918
1789022018843102700,4.269102783203125,-3.541377544403076,-3.0484559535980225,6.695117950439453
1789022018853028600,4.279028564453125,-4.493721008300781,-2.4598217010498047,6.872186660766602
1789022018862954500,4.28895458984375,-5.3312087059021,-1.6845471858978271,7.302894592285156
1789022018872880400,4.29888037109375,-4.555934429168701,-1.2490534782409668,7.685746192932129
1789022018882806300,4.30880615234375,-3.728017568588257,-1.3351950645446777,7.09711217880249
1789022018892732200,4.318732177734375,-4.785645484924316,-1.1581261157989502,7.1162543296813965
1789022018902658000,4.328657958984375,-4.828716278076172,-2.139183521270752,7.058826923370361
1789022018912583700,4.338583740234375,-3.689732551574707,-4.297509670257568,7.929814338684082
1789022018922509600,4.348509521484375,-5.517848968505859,-5.307280540466309,11.164910316467285
1789022018932435500,4.358435546875,-6.920042991638184,-4.4650068283081055,13.433306694030762
1789022018942361300,4.368361328125,-7.848458290100098,-4.163511276245117,12.457035064697266
1789022018952287200,4.378287353515625,-6.829115867614746,-4.436293125152588,11.408978462219238
1789022018962213000,4.388213134765625,-4.67078971862793,-5.3934221267700195,9.145368576049805
1789022018972139000,4.398138916015625,-4.369294166564941,-5.3216376304626465,8.159524917602539
1789022018982065000,4.40806494140625,-5.8719868659973145,-3.981656789779663,8.662017822265625
1789022018991990500,4.417990478515625,-5.632704734802246,-2.737389087677002,8.930013656616211
1789022019001916400,4.42791650390625,-3.5461630821228027,-3.0340991020202637,7.814958572387695
1789022019011842300,4.43784228515625,-1.8616160154342651,-3.565305709838867,6.943971157073975
1789022019021768200,4.447768310546875,-1.5601203441619873,-4.192225456237793,6.537191390991211
1789022019031694000,4.457694091796875,-3.9194436073303223,-3.6849467754364014,7.503891944885254
1789022019041620000,4.467619873046875,-4.962714195251465,-3.5270206928253174,7.877171993255615
1789022019051545900,4.4775458984375,-5.551348686218262,-4.876572608947754,7.680960655212402
1789022019061471700,4.4874716796875,-5.814558982849121,-5.824130535125732,8.250452041625977
1789022019071397600,4.497397705078125,-3.775874137878418,-6.680760860443115,8.417949676513672
1789022019081323500,4.507323486328125,-2.6799614429473877,-7.465606689453125,8.154739379882812
1789022019091249400,4.51724951171875,-3.9529430866241455,-7.843672752380371,7.886743545532227
1789022019101175000,4.527175048828125,-4.130012035369873,-7.77188777923584,7.6043901443481445
1789022019111101000,4.537100830078125,-4.73300313949585,-7.599604606628418,7.183253765106201
1789022019121026800,4.54702685546875,-6.302694797515869,-6.608976364135742,8.360522270202637
1789022019130952700,4.55695263671875,-5.522634506225586,-6.623332977294922,9.226723670959473
1789022019140878600,4.566878662109375,-4.910071849822998,-6.9583282470703125,10.365707397460938
1789022019150804500,4.576804443359375,-4.613361835479736,-7.121040344238281,11.093125343322754
1789022019160730400,4.58673046875,-3.799802303314209,-6.97268533706665,9.868000984191895
1789022019170656300,4.59665625,-4.766502857208252,-5.431707382202148,8.547162055969238
1789022019180582000,4.606581787109375,-3.728017568588257,-4.3310089111328125,7.125825881958008
1789022019190507800,4.6165078125,-4.1491546630859375,-3.9146578311920166,7.149754047393799
1789022019200433700,4.62643359375,-5.20678186416626,-4.120440483093262,7.929814338684082
1789022019210359600,4.636359619140625,-4.201796531677246,-5.508277893066406,7.671389579772949
1789022019220285400,4.646285400390625,-3.862015724182129,-7.1162543296813965,6.9104719161987305
1789022019230211300,4.65621142578125,-3.9768712520599365,-7.728816986083984,6.3840508460998535
1789022019240137200,4.66613720703125,-3.838087558746338,-8.082955360412598,5.886343479156494
1789022019250063000,4.67606298828125,-4.359723091125488,-8.523234367370605,5.996413707733154
1789022019259989000,4.685989013671875,-6.293123722076416,-7.944170951843262,7.125825881958008
1789022019269914600,4.69591455078125,-5.881557941436768,-7.810173034667969,7.441678524017334
1789022019279840500,4.705840576171875,-5.3455657958984375,-7.824530124664307,7.283751964569092
1789022019289766400,4.715766357421875,-5.058426856994629,-7.786244869232178,7.365108013153076
1789022019299692300,4.7256923828125,-3.5030922889709473,-7.1162543296813965,7.3746795654296875
1789022019309618200,4.7356181640625,-3.2303106784820557,-5.489135265350342,8.374878883361816
1789022019319544000,4.7455439453125,-2.9527430534362793,-4.479363918304443,8.762516975402832
1789022019329470000,4.755469970703125,-1.5840486288070679,-4.192225456237793,8.327022552490234
1789022019339395800,4.765395751953125,-1.0528420209884644,-4.139583110809326,7.714460372924805
1789022019349321700,4.77532177734375,-2.234896421432495,-4.517649173736572,7.479963779449463
1789022019359247400,4.785247314453125,-2.919243574142456,-4.412364959716797,7.987242221832275
1789022019369173200,4.79517333984375,-4.3310089111328125,-4.350151538848877,8.786444664001465
1789022019379099100,4.80509912109375,-5.37906551361084,-4.579862594604492,10.073782920837402
1789022019389025000,4.81502490234375,-4.603790760040283,-5.225924491882324,9.968499183654785
1789022019398951000,4.824950927734375,-3.6370904445648193,-5.532206058502197,9.41336441040039
1789022019408876800,4.834876708984375,-3.4121651649475098,-5.656632900238037,9.241081237792969
1789022019418802700,4.844802734375,-3.211168050765991,-5.335994720458984,9.4660062789917
1789022019428728600,4.854728515625,-4.043870449066162,-5.632704734802246,9.025727272033691
1789022019438654200,4.864654296875,-4.503292083740234,-4.900500774383545,9.456435203552246
1789022019448580000,4.874580078125,-4.6372904777526855,-4.627718925476074,9.198010444641113
1789022019458506000,4.884506103515625,-6.0538411140441895,-4.742574691772461,9.145368576049805
1789022019468432000,4.894431884765625,-5.60399055480957,-4.646861553192139,9.044869422912598
1789022019478357800,4.904357666015625,-3.4504501819610596,-4.986642360687256,9.126225471496582
1789022019488283600,4.91428369140625,-1.8711873292922974,-5.120640277862549,8.901300430297852
1789022019498209500,4.92420947265625,-1.9046868085861206,-5.158925533294678,8.197810173034668
1789022019508135400,4.934135498046875,-3.0723843574523926,-4.910071849822998,7.671389579772949
1789022019518061300,4.944061279296875,-5.680561065673828,-5.144568920135498,7.211967468261719
1789022019527987000,4.953987060546875,-7.379465103149414,-5.254638671875,7.288537979125977
1789022019537912800,4.963912841796875,-6.058627128601074,-6.355337142944336,8.00638484954834
1789022019547838700,4.973838623046875,-4.1730828285217285,-6.623332977294922,8.915657043457031
1789022019557764600,4.9837646484375,-3.3164522647857666,-5.661418437957764,9.705288887023926
1789022019567690500,4.9936904296875,-3.5748770236968994,-5.958128452301025,11.724830627441406
1789022019577616400,5.003616455078125,-4.7952165603637695,-5.867201328277588,10.461421012878418
1789022019587542300,5.013542236328125,-4.800002098083496,-5.13021183013916,9.757930755615234
1789022019597468200,5.02346826171875,-5.254638671875,-4.474578380584717,8.733802795410156
1789022019607393800,5.033393798828125,-4.393222332000732,-4.158725738525391,8.307880401611328
1789022019617319700,5.043319580078125,-2.9862427711486816,-4.512863636016846,8.547162055969238
1789022019627245600,5.05324560546875,-3.263810157775879,-5.460421085357666,8.025527000427246
1789022019637171500,5.06317138671875,-3.5126636028289795,-5.594419479370117,7.317251682281494
1789022019647097300,5.073097412109375,-3.321237802505493,-4.350151538848877,6.905686378479004
1789022019657023200,5.083023193359375,-2.550748825073242,-2.4981069564819336,5.627918720245361
1789022019666949000,5.09294921875,-1.6271194219589233,-1.0528420209884644,3.421736478805542
1789022019676874800,5.102874755859375,-2.0673987865448,1.3112667798995972,3.2685956954956055
1789022019686800600,5.112800537109375,-1.6079767942428589,1.2203395366668701,3.1489546298980713
1789022019696726500,5.1227265625,-2.0099709033966064,-0.17228323221206665,3.570091485977173
1789022019706652400,5.13265234375,-1.2299108505249023,-2.5220351219177246,3.359523057937622
1789022019716578300,5.142578369140625,-1.0863415002822876,-3.8428730964660645,3.263810157775879
1789022019726504200,5.152504150390625,-2.3018953800201416,-3.957728624343872,3.5461630821228027
1789022019736430000,5.16243017578125,-5.053641319274902,-1.8185452222824097,4.40757942199707
1789022019746356000,5.17235595703125,-5.388636589050293,-1.4644074440002441,3.445664644241333
1789022019756281600,5.182281494140625,-4.7234320640563965,-1.5314065217971802,4.110869407653809
1789022019766207500,5.19220751953125,-3.139383316040039,-1.9908283948898315,4.847858905792236
1789022019776133400,5.20213330078125,-1.7802600860595703,-2.871387243270874,4.8574299812316895
1789022019786059300,5.212059326171875,-2.8809585571289062,-3.94815731048584,5.5034918785095215
1789022019795985200,5.221985107421875,-5.560919761657715,-3.594019651412964,7.585247993469238
1789022019805911000,5.2319111328125,-6.1399827003479,-3.9529430866241455,8.011170387268066
1789022019815837000,5.2418369140625,-4.512863636016846,-4.4650068283081055,6.829115867614746
1789022019825762600,5.251762451171875,-4.077369689941406,-4.589433670043945,5.637490272521973
1789022019835688400,5.2616884765625,-4.73300313949585,-4.436293125152588,5.996413707733154
1789022019845614300,5.2716142578125,-4.527220249176025,-4.264009952545166,5.953342914581299
1789022019855540200,5.281540283203125,-5.31685209274292,-3.8045880794525146,5.862415313720703
1789022019865466000,5.291466064453125,-5.00578498840332,-3.2542388439178467,6.345765590667725
1789022019875392000,5.30139208984375,-3.665804386138916,-2.9862427711486816,6.843472957611084
1789022019885318000,5.31131787109375,-4.335794448852539,-2.909672260284424,7.814958572387695
1789022019895243800,5.321243896484375,-4.3549370765686035,-2.6560330390930176,8.848658561706543
1789022019905169400,5.33116943359375,-4.675575256347656,-3.22552490234375,9.734002113342285
1789022019915095300,5.34109521484375,-5.398207664489746,-3.900300979614258,10.6624174118042
1789022019925021200,5.351021240234375,-5.465207099914551,-4.890929698944092,10.681560516357422
1789022019934947000,5.360947021484375,-4.646861553192139,-5.364708423614502,9.518648147583008
1789022019944873000,5.370873046875,-4.847858905792236,-5.31685209274292,8.738588333129883
1789022019954798800,5.380798828125,-4.082155227661133,-4.766502857208252,8.508877754211426
1789022019964724700,5.390724853515625,-3.603590965270996,-4.249652862548828,7.75753116607666
1789022019974650600,5.400650634765625,-3.507878065109253,-3.6993038654327393,6.98704195022583
1789022019984576300,5.410576171875,-4.077369689941406,-3.0340991020202637,7.575676441192627
1789022019994502100,5.420502197265625,-4.2831525802612305,-2.713460922241211,9.001798629760742
1789022020004428000,5.430427978515625,-3.713660717010498,-3.397808074951172,9.255437850952148
1789022020014354000,5.44035400390625,-3.34995174407959,-4.718646049499512,9.284152030944824
1789022020024279800,5.45027978515625,-2.2444677352905273,-5.465207099914551,9.547362327575684
1789022020034205700,5.460205810546875,-4.063013076782227,-6.254838466644287,9.915857315063477
1789022020044131600,5.470131591796875,-4.871787071228027,-6.589833736419678,10.279565811157227
1789022020054057500,5.480057373046875,-4.067798614501953,-6.9344000816345215,9.705288887023926
1789022020063983400,5.4899833984375,-4.005585193634033,-6.891329288482666,8.638090133666992
1789022020073909200,5.4999091796875,-2.9623143672943115,-6.747759819030762,7.6043901443481445
1789022020083835100,5.509835205078125,-2.5076780319213867,-6.867401123046875,6.369693756103516
1789022020093760800,5.5197607421875,-3.7950167655944824,-6.733402729034424,6.608976364135742
1789022020103686700,5.529686767578125,-2.8809585571289062,-6.704689025878906,6.872186660766602
1789022020113612500,5.539612548828125,-4.3070807456970215,-7.1162543296813965,7.063612461090088
1789022020123538400,5.549538330078125,-5.364708423614502,-6.489335060119629,8.336593627929688
1789022020133464300,5.55946435546875,-4.216153621673584,-6.254838466644287,9.657432556152344
1789022020143390200,5.56939013671875,-4.359723091125488,-6.786045074462891,10.494919776916504
1789022020153316000,5.579316162109375,-5.848058700561523,-7.29810905456543,11.715259552001953
1789022020163242000,5.589241943359375,-5.2354960441589355,-7.202396392822266,11.47119140625
1789022020173167900,5.59916796875,-4.460221290588379,-6.661618232727051,10.451848983764648
1789022020183093800,5.60909375,-4.704289436340332,-5.85284423828125,9.351150512695312
1789022020193019600,5.61901953125,-4.2592244148254395,-5.31685209274292,8.00638484954834
1789022020202945500,5.628945556640625,-3.053241729736328,-5.508277893066406,6.675975322723389
1789022020212871400,5.638871337890625,-2.7421748638153076,-5.670989513397217,6.221338748931885
1789022020222797300,5.64879736328125,-4.46979284286499,-5.8097734451293945,6.833901405334473
1789022020232723200,5.65872314453125,-6.197410583496094,-5.8959150314331055,7.805387496948242
1789022020242648800,5.66864892578125,-5.723631858825684,-6.905686378479004,7.968099594116211
1789022020252574700,5.67857470703125,-4.737788677215576,-7.518248558044434,8.528019905090332
1789022020262500600,5.68850048828125,-5.115854740142822,-7.891529083251953,9.164510726928711
1789022020272426500,5.698426513671875,-5.436492919921875,-8.37009334564209,9.896714210510254
1789022020282352400,5.708352294921875,-3.483949661254883,-9.183652877807617,9.231510162353516
1789022020292278300,5.7182783203125,-1.3112667798995972,-8.772088050842285,8.178668022155762
1789022020302204200,5.7282041015625,-0.8422735929489136,-7.920242786407471,8.044670104980469
1789022020312130000,5.738130126953125,-1.5744773149490356,-7.456035137176514,8.044670104980469
1789022020322056000,5.748055908203125,-2.6177480220794678,-7.121040344238281,7.81974458694458
1789022020331981800,5.75798193359375,-3.9385859966278076,-6.240481376647949,8.307880401611328
1789022020341907700,5.76790771484375,-4.555934429168701,-5.31685209274292,9.499505996704102
1789022020351833600,5.77783349609375,-3.5030922889709473,-5.450850009918213,8.872586250305176
1789022020361759500,5.787759521484375,-1.4261223077774048,-6.403193473815918,6.771687984466553
1789022020371685400,5.797685302734375,-2.8139593601226807,-6.63769006729126,8.2695951461792
1789022020381611300,5.807611328125,-4.417150497436523,-6.221338748931885,10.820343971252441
1789022020391537200,5.817537109375,-6.589833736419678,-6.427121639251709,11.873186111450195
1789022020401463000,5.827463134765625,-5.709274768829346,-5.493920803070068,12.026326179504395
1789022020411389000,5.837388916015625,-3.88594388961792,-4.522434711456299,11.858829498291016
1789022020421314800,5.847314697265625,-2.287538528442383,-4.9531426429748535,10.810772895812988
1789022020431240700,5.85724072265625,-1.1150553226470947,-4.843072891235352,9.078369140625
1789022020441166600,5.86716650390625,-1.3495519161224365,-4.01037073135376,7.877171993255615
1789022020451092500,5.877092529296875,-2.7517459392547607,-3.249453067779541,7.465606689453125
1789022020461018400,5.887018310546875,-4.938786029815674,-2.6799614429473877,7.020541667938232
1789022020470944000,5.896944091796875,-6.484549522399902,-2.675175666809082,6.412764549255371
1789022020480870000,5.906869873046875,-6.364908218383789,-3.555734395980835,5.958128452301025
1789022020490795800,5.916795654296875,-3.9912281036376953,-4.005585193634033,5.91505765914917
1789022020500721700,5.9267216796875,-1.0336993932724,-4.2592244148254395,7.015756130218506
1789022020510647600,5.9366474609375,-0.10049854964017868,-4.297509670257568,8.934800148010254
1789022020520573400,5.946573486328125,-1.5696916580200195,-4.364508628845215,10.710273742675781
1789022020530499300,5.956499267578125,-3.675375461578369,-6.044270038604736,10.494919776916504
1789022020540425200,5.96642529296875,-4.809573650360107,-7.700103282928467,8.910871505737305
1789022020550351000,5.97635107421875,-5.010570526123047,-7.733603000640869,8.087740898132324
1789022020560277000,5.986277099609375,-4.886143684387207,-6.355337142944336,8.327022552490234
1789022020570203000,5.996202880859375,-4.216153621673584,-4.417150497436523,9.078369140625
1789022020580128800,6.006128662109375,-2.799602508544922,-3.814159393310547,8.590232849121094
1789022020590054700,6.0160546875,-2.0865414142608643,-3.6323046684265137,7.824530124664307
1789022020599980500,6.02598046875,-1.3543375730514526,-3.617947816848755,6.747759819030762
1789022020609906400,6.035906494140625,-0.9044869542121887,-3.029313564300537,6.489335060119629
1789022020619832300,6.045832275390625,-3.5126636028289795,-0.7226324677467346,8.12123966217041
1789022020629758200,6.05575830078125,-5.843272686004639,-0.11006984114646912,7.867600917816162
1789022020639684000,6.06568408203125,-3.713660717010498,-1.4165509939193726,5.426921844482422
1789022020649610000,6.07560986328125,-0.27756741642951965,-1.4644074440002441,2.526820659637451
1789022020659536000,6.085535888671875,1.550549030303955,-2.794816732406616,-1.9046868085861206
1789022020669461800,6.095461669921875,0.8757730722427368,-3.656233072280884,-3.775874137878418
1789022020679387600,6.1053876953125,-2.6177480220794678,-0.30628129839897156,-0.5742774605751038
1789022020689313500,6.1153134765625,-3.8189449310302734,0.7896314859390259,0.9188438653945923
1789022020699239400,6.125239501953125,-2.4406790733337402,-0.19621145725250244,1.8472590446472168
1789022020709165300,6.135165283203125,-1.4404792785644531,-1.397408366203308,4.005585193634033
1789022020719091200,6.14509130859375,-2.794816732406616,-2.6225335597991943,6.116054534912109
1789022020729017000,6.15501708984375,-3.311666488647461,-4.780859470367432,6.216553211212158
1789022020738943000,6.16494287109375,-2.699103832244873,-6.489335060119629,4.364508628845215
1789022020748868900,6.174868896484375,-5.058426856994629,-5.694917678833008,3.996013879776001
1789022020758794800,6.184794677734375,-7.278966426849365,-4.541577339172363,5.120640277862549
1789022020768720600,6.194720703125,-7.685746192932129,-3.6323046684265137,7.36032247543335
1789022020778646500,6.204646484375,-5.929414749145508,-3.16331148147583,8.848658561706543
1789022020788572400,6.214572509765625,-3.9290146827697754,-3.594019651412964,8.647661209106445
1789022020798498300,6.224498291015625,-2.9240293502807617,-4.59421968460083,7.858029365539551
1789022020808424200,6.234424072265625,-3.651447296142578,-4.632504463195801,8.193024635314941
1789022020818350000,6.24435009765625,-4.460221290588379,-4.005585193634033,8.63330364227295
1789022020828276000,6.25427587890625,-5.340780258178711,-3.761517286300659,8.796015739440918
1789022020838201900,6.264201904296875,-6.685546398162842,-3.0101709365844727,10.600204467773438
1789022020848127700,6.274127685546875,-7.350750923156738,-2.9001009464263916,13.304094314575195
1789022020858053600,6.2840537109375,-5.972485542297363,-4.689932346343994,13.73480224609375
1789022020867979500,6.2939794921875,-3.761517286300659,-6.130411624908447,11.552547454833984
1789022020877905400,6.303905517578125,-3.579662561416626,-5.938985824584961,9.820143699645996
1789022020887831300,6.313831298828125,-3.3690943717956543,-5.446064472198486,8.6907320022583
1789022020897757200,6.323757080078125,-2.794816732406616,-4.890929698944092,7.154539585113525
1789022020907683000,6.33368310546875,-2.8809585571289062,-4.278367042541504,5.958128452301025
1789022020917608700,6.343608642578125,-3.1680972576141357,-3.617947816848755,6.307480335235596
1789022020927534600,6.35353466796875,-2.392822742462158,-2.6368906497955322,7.786244869232178
1789022020937460500,6.36346044921875,-2.455035924911499,-2.6799614429473877,7.9489569664001465
1789022020947386400,6.373386474609375,-2.9766714572906494,-3.16331148147583,7.733603000640869
1789022020957312300,6.383312255859375,-2.7517459392547607,-4.168296813964844,7.623532772064209
1789022020967238100,6.393238037109375,-1.9764715433120728,-4.910071849822998,7.661818027496338
1789022020977164000,6.4031640625,-1.3830515146255493,-5.819344520568848,7.527820110321045
1789022020987090000,6.41308984375,-1.2634103298187256,-6.460621356964111,7.537391185760498
1789022020997015800,6.423015869140625,-2.8187451362609863,-7.4225358963012695,8.082955360412598
1789022021006941700,6.432941650390625,-4.6372904777526855,-7.518248558044434,10.045069694519043
1789022021016867600,6.44286767578125,-6.876972198486328,-7.934599876403809,10.557133674621582
1789022021026793500,6.45279345703125,-3.972085475921631,-8.37009334564209,8.834300994873047
1789022021036719400,6.46271923828125,-2.6703901290893555,-7.953742504119873,7.628318786621094
1789022021046645200,6.472645263671875,-3.5270206928253174,-7.015756130218506,7.920242786407471
1789022021056571100,6.482571044921875,-2.8187451362609863,-6.16391134262085,7.293323516845703
1789022021066497000,6.4924970703125,-3.10109806060791,-5.245067119598389,7.75753116607666
1789022021076423000,6.5024228515625,-3.88594388961792,-4.3788652420043945,8.772088050842285
1789022021086348800,6.512348876953125,-5.13021183013916,-4.680361270904541,10.092926025390625
1789022021096274700,6.522274658203125,-6.38883638381958,-4.704289436340332,11.949756622314453
1789022021106200600,6.53220068359375,-4.584648132324219,-4.560719966888428,12.351750373840332
1789022021116126500,6.54212646484375,-2.2444677352905273,-4.838287353515625,10.581061363220215
1789022021126052400,6.55205224609375,-0.5312066078186035,-5.37906551361084,8.312665939331055
1789022021135978200,6.561978271484375,-1.153340458869934,-5.934200286865234,7.4464640617370605
1789022021145904000,6.571904052734375,-2.6368906497955322,-6.173482418060303,7.345965385437012
1789022021155829800,6.581829833984375,-4.60857629776001,-6.398407936096191,7.987242221832275
1789022021165755600,6.591755615234375,-5.383851051330566,-6.991827964782715,8.322237014770508
1789022021175681500,6.601681640625,-4.666004180908203,-7.226324558258057,8.714659690856934
1789022021185607400,6.611607421875,-3.737588882446289,-8.073383331298828,8.528019905090332
1789022021195533300,6.621533203125,-4.369294166564941,-8.451449394226074,8.408378601074219
1789022021205459200,6.631459228515625,-1.7084753513336182,-8.93958568572998,6.647261142730713
1789022021215385000,6.641385009765625,-1.2729816436767578,-9.518648147583008,6.340980052947998
1789022021225311000,6.65131103515625,-2.038684844970703,-9.126225471496582,6.843472957611084
1789022021235236900,6.66123681640625,-2.2205393314361572,-8.599804878234863,7.0923261642456055
1789022021245162800,6.671162841796875,-3.397808074951172,-8.374878883361816,7.384250640869141
1789022021255088600,6.681088623046875,-5.015356063842773,-8.173882484436035,9.131011009216309
1789022021265014500,6.6910146484375,-5.54177713394165,-8.48016357421875,10.906485557556152
1789022021274940400,6.7009404296875,-5.9916276931762695,-8.891729354858398,12.074183464050293
1789022021284866300,6.7108662109375,-6.503692150115967,-9.322437286376953,13.069597244262695
1789022021294792200,6.720792236328125,-6.618547439575195,-8.810373306274414,15.208780288696289
1789022021304717800,6.7307177734375,-5.312066078186035,-9.025727272033691,15.294921875
1789022021314643700,6.740643798828125,-3.321237802505493,-8.877371788024902,14.825928688049316
1789022021324569600,6.750569580078125,-2.641676187515259,-8.671588897705078,13.093525886535645
1789022021334495500,6.76049560546875,-3.3164522647857666,-7.944170951843262,9.944570541381836
1789022021344421400,6.77042138671875,-4.570291042327881,-5.082355499267578,8.293522834777832
1789022021354347300,6.78034716796875,-6.0538411140441895,-3.1680972576141357,6.781259536743164
1789022021364273200,6.790273193359375,-5.259424209594727,-2.421536445617676,5.656632900238037
1789022021374199000,6.800198974609375,-3.297309637069702,-2.187039852142334,5.149354457855225
1789022021384125000,6.810125,-1.4835500717163086,-2.4119651317596436,6.206982135772705
1789022021394050800,6.82005078125,-1.1581261157989502,-3.187239646911621,7.001399040222168
1789022021403976700,6.829976806640625,-1.2490534782409668,-4.110869407653809,6.967899322509766
1789022021413902600,6.839902587890625,-1.856830358505249,-4.579862594604492,5.7619171142578125
1789022021423828200,6.849828125,-2.431107759475708,-4.3549370765686035,4.833501815795898
1789022021433754000,6.859754150390625,-2.091326951980591,-3.7902309894561768,4.015156269073486
1789022021443680000,6.869679931640625,-2.225325107574463,-3.139383316040039,3.8428730964660645
1789022021453606000,6.87960595703125,-2.431107759475708,-2.7565317153930664,4.3788652420043945
1789022021463531800,6.88953173828125,-2.5938198566436768,-2.9001009464263916,5.8097734451293945
1789022021473457700,6.899457763671875,-4.063013076782227,-3.814159393310547,6.876972198486328
1789022021483383600,6.909383544921875,-4.622933387756348,-4.369294166564941,7.83410120010376
1789022021493309400,6.919309326171875,-2.933600664138794,-3.3690943717956543,8.193024635314941
1789022021503235300,6.9292353515625,-0.5934200286865234,-2.2540390491485596,7.3746795654296875
1789022021513161200,6.9391611328125,-0.4163511395454407,-1.0001999139785767,6.393621921539307
1789022021523087000,6.949087158203125,-0.607776939868927,-0.6221339106559753,4.871787071228027
1789022021533013000,6.959012939453125,-2.287538528442383,-0.8662018179893494,4.225724697113037
1789022021542938600,6.968938720703125,-2.445464849472046,-2.5076780319213867,2.761317253112793
1789022021552864500,6.978864501953125,-1.3351950645446777,-3.84765887260437,0.9810572862625122
1789022021562790400,6.988790283203125,-0.914058268070221,-3.4408788681030273,0.48813581466674805
1789022021572716300,6.99871630859375,-3.1680972576141357,-0.7226324677467346,1.1341979503631592
1789022021582642200,7.00864208984375,-4.833501815795898,-0.30149564146995544,1.3878371715545654
1789022021592568000,7.018568115234375,-4.053441524505615,-0.9379864931106567,2.368894338607788
1789022021602494000,7.028493896484375,-2.3018953800201416,-1.8233308792114258,3.957728624343872
1789022021612419800,7.038419921875,-1.9716858863830566,-3.3308091163635254,5.517848968505859
1789022021622345500,7.048345458984375,-2.3545374870300293,-5.264209747314453,6.063412666320801
1789022021632271400,7.058271240234375,-3.4504501819610596,-5.517848968505859,5.72841739654541
1789022021642197200,7.068197265625,-6.154339790344238,-5.245067119598389,6.254838466644287
1789022021652123100,7.078123046875,-6.3601226806640625,-5.3694939613342285,7.523034572601318
1789022021662049000,7.088049072265625,-6.096911907196045,-6.106483459472656,8.810373306274414
1789022021671975000,7.097974853515625,-5.938985824584961,-6.4941205978393555,9.882357597351074
1789022021681900800,7.10790087890625,-5.158925533294678,-6.747759819030762,10.088140487670898
1789022021691826700,7.11782666015625,-4.4410786628723145,-6.8004021644592285,9.748359680175781
1789022021701752600,7.127752685546875,-4.374079704284668,-6.364908218383789,9.193224906921387
1789022021711678500,7.137678466796875,-4.632504463195801,-5.402993679046631,9.140582084655762
1789022021721604000,7.14760400390625,-4.776073932647705,-4.139583110809326,9.016156196594238
1789022021731530000,7.157530029296875,-3.651447296142578,-3.397808074951172,7.417750358581543
1789022021741456000,7.167455810546875,-2.6847469806671143,-3.053241729736328,5.72841739654541
1789022021751381800,7.1773818359375,-2.5603201389312744,-2.7517459392547607,5.536991596221924
1789022021761307600,7.1873076171875,-1.789831280708313,-2.4358935356140137,6.068198204040527
1789022021771233500,7.197233642578125,-1.4213366508483887,-2.5124638080596924,6.776473522186279
1789022021781159200,7.2071591796875,-1.9381862878799438,-3.067598581314087,7.776673793792725
1789022021791085000,7.2170849609375,-1.8616160154342651,-3.7232320308685303,8.920442581176758
1789022021801011000,7.227010986328125,-2.1296122074127197,-4.752145767211914,8.695517539978027
1789022021810936800,7.236936767578125,-2.895315408706665,-5.469992637634277,8.35573673248291
1789022021820862700,7.24686279296875,-3.0484559535980225,-5.886343479156494,8.681160926818848
1789022021830788600,7.25678857421875,-2.9527430534362793,-5.670989513397217,9.705288887023926
1789022021840714500,7.266714599609375,-3.7328033447265625,-5.556134223937988,10.710273742675781
1789022021850640400,7.276640380859375,-2.3258235454559326,-5.828916072845459,10.935199737548828
1789022021860566000,7.28656591796875,-2.038684844970703,-6.4079790115356445,10.557133674621582
1789022021870492000,7.296491943359375,-4.3070807456970215,-6.230910301208496,10.930414199829102
1789022021880417800,7.306417724609375,-4.230510234832764,-5.958128452301025,10.470992088317871
1789022021890343700,7.31634375,-3.483949661254883,-6.254838466644287,10.145567893981934
1789022021900269600,7.32626953125,-5.053641319274902,-6.427121639251709,10.518848419189453
1789022021910195500,7.336195556640625,-4.551148891448975,-6.709474563598633,11.13619613647461
1789022021920121000,7.34612109375,-2.675175666809082,-7.077969551086426,11.825329780578613
1789022021930047000,7.356046875,-2.909672260284424,-7.125825881958008,12.52881908416748
1789022021939972900,7.365972900390625,-0.9523434042930603,-7.0061845779418945,11.006983757019043
1789022021949898800,7.375898681640625,-1.5840486288070679,-6.283552169799805,9.69093132019043
1789022021959824600,7.38582470703125,-2.3401806354522705,-5.254638671875,8.111668586730957
1789022021969750500,7.39575048828125,-2.9383862018585205,-4.335794448852539,7.0923261642456055
1789022021979676400,7.405676513671875,-3.6227335929870605,-3.996013879776001,6.867401123046875
1789022021989602000,7.41560205078125,-3.8907296657562256,-3.9672999382019043,6.9344000816345215
1789022021999528000,7.42552783203125,-2.225325107574463,-4.871787071228027,6.474977970123291
1789022022009453800,7.435453857421875,-1.2394821643829346,-5.20678186416626,6.900900363922119
1789022022019379700,7.445379638671875,-3.359523057937622,-6.259624004364014,7.412964344024658
1789022022029305600,7.4553056640625,-7.953742504119873,-7.824530124664307,7.0923261642456055
1789022022039231500,7.4652314453125,-6.096911907196045,-9.226723670959473,5.91505765914917
1789022022049157400,7.475157470703125,-3.005385160446167,-10.87298583984375,4.488935470581055
1789022022059083000,7.4850830078125,-2.0673987865448,-12.586247444152832,4.9052863121032715
1789022022069009000,7.4950087890625,-3.201596736907959,-11.686545372009277,6.833901405334473
1789022022078934800,7.504934814453125,-2.68953275680542,-8.738588333129883,9.212367057800293
1789022022088860700,7.514860595703125,-2.5076780319213867,-6.63769006729126,10.777273178100586
1789022022098786600,7.52478662109375,-3.3643085956573486,-5.766702651977539,11.174481391906738
1789022022108712200,7.534712158203125,-3.704089403152466,-5.661418437957764,11.078768730163574
1789022022118638000,7.54463818359375,-3.201596736907959,-5.623133182525635,11.169695854187012
1789022022128564000,7.55456396484375,-3.139383316040039,-5.934200286865234,11.662617683410645
1789022022138489900,7.56448974609375,-3.957728624343872,-6.350551128387451,12.500105857849121
1789022022148415700,7.574415771484375,-3.996013879776001,-7.149754047393799,13.811372756958008
1789022022158341600,7.584341552734375,-3.436093330383301,-8.087740898132324,14.112868309020996
1789022022168267300,7.594267333984375,-2.531606435775757,-8.437092781066895,12.739387512207031
1789022022178193200,7.604193115234375,-1.947757601737976,-9.097511291503906,8.37966537475586
1789022022188119000,7.614119140625,-2.3401806354522705,-8.504091262817383,6.398407936096191
1789022022198045000,7.624044921875,-3.924229145050049,-6.728617191314697,7.336394309997559
1789022022207970800,7.633970703125,-5.312066078186035,-4.54636287689209,8.944371223449707
1789022022217896400,7.643896484375,-5.867201328277588,-3.445664644241333,10.068997383117676
1789022022227822300,7.653822265625,-4.273581027984619,-3.273381471633911,10.380064964294434
1789022022237748200,7.663748291015625,-1.5840486288070679,-3.507878065109253,10.159924507141113
1789022022247674000,7.673674072265625,-1.3208380937576294,-3.407379388809204,9.671789169311523
1789022022257600000,7.68360009765625,-2.3497519493103027,-2.6464617252349854,9.265008926391602
1789022022267525600,7.693525634765625,-2.287538528442383,-2.7804598808288574,9.121439933776855
1789022022277451500,7.703451416015625,-1.703689694404602,-4.182653903961182,8.432307243347168
1789022022287377400,7.71337744140625,-2.053041934967041,-5.517848968505859,7.499105930328369
1789022022297303300,7.72330322265625,-2.7086751461029053,-5.733202934265137,6.632904529571533
1789022022307229200,7.733229248046875,-2.50289249420166,-6.551548480987549,5.819344520568848
1789022022317154800,7.74315478515625,-1.1676974296569824,-6.173482418060303,5.522634506225586
1789022022327080700,7.753080810546875,-1.210768222808838,-4.9531426429748535,5.422136306762695
1789022022337006600,7.763006591796875,-1.0145567655563354,-3.211168050765991,5.283352375030518
1789022022346932500,7.772932373046875,-2.234896421432495,-1.2921242713928223,4.9052863121032715
1789022022356858400,7.7828583984375,-1.9812572002410889,-0.9092726111412048,4.039084434509277
1789022022366784000,7.792783935546875,-0.004785645287483931,-1.7467604875564575,3.105883836746216
1789022022376710000,7.8027099609375,1.6079767942428589,-1.9908283948898315,1.1437692642211914
1789022022386635800,7.8126357421875,1.062413215637207,-0.33020952343940735,-0.5551348328590393
1789022022396561700,7.822561767578125,-0.8614161610603333,1.1629117727279663,-1.4979069232940674
1789022022406487300,7.8324873046875,-1.5026925802230835,0.4019941985607147,-0.7417750358581543
1789022022416413200,7.8424130859375,-1.8472590446472168,-0.5264210104942322,1.7180466651916504
1789022022426339000,7.852339111328125,-1.100698471069336,-1.5601203441619873,3.507878065109253
1789022022436265000,7.862264892578125,-2.770888566970825,-1.8759729862213135,4.833501815795898
1789022022446190800,7.87219091796875,-3.603590965270996,-3.373879909515381,5.26899528503418
1789022022456116700,7.88211669921875,-2.6608188152313232,-4.8191447257995605,5.532206058502197
1789022022466042400,7.89204248046875,-2.7900311946868896,-5.307280540466309,5.460421085357666
1789022022475968300,7.90196826171875,-3.0628130435943604,-5.891129493713379,4.8574299812316895
1789022022485894100,7.91189404296875,-3.603590965270996,-5.398207664489746,4.622933387756348
1789022022495820000,7.921820068359375,-4.67078971862793,-4.182653903961182,5.383851051330566
1789022022505746000,7.931745849609375,-4.48414945602417,-3.9194436073303223,6.398407936096191
1789022022515671600,7.941671630859375,-2.943171739578247,-5.31685209274292,7.269395351409912
1789022022525597400,7.951597412109375,-3.297309637069702,-6.197410583496094,9.193224906921387
1789022022535523300,7.9615234375,-5.091926574707031,-6.661618232727051,11.13619613647461
1789022022545449000,7.971448974609375,-5.862415313720703,-7.312466144561768,12.418749809265137
1789022022555374800,7.981374755859375,-5.2977094650268555,-8.188239097595215,12.275179862976074
1789022022565300700,7.99130078125,-4.814359188079834,-8.331808090209961,11.22233772277832
1789022022575226600,8.0012265625,-4.890929698944092,-7.700103282928467,11.188838958740234
1789022022585152500,8.011152587890624,-3.7328033447265625,-6.876972198486328,10.796415328979492
1789022022595078100,8.021078125,-2.9048867225646973,-6.135197162628174,9.542576789855957
1789022022605004000,8.031004150390626,-2.5938198566436768,-5.962913990020752,8.571090698242188
1789022022614930000,8.040929931640624,-2.50289249420166,-5.647061347961426,8.394021987915039
1789022022624855800,8.050855712890625,-3.0005996227264404,-5.3934221267700195,8.930013656616211
1789022022634781700,8.06078173828125,-2.172683000564575,-6.379265308380127,9.633503913879395
1789022022644707300,8.070707275390625,-1.8472590446472168,-7.523034572601318,10.222138404846191
1789022022654633200,8.08063330078125,-1.7180466651916504,-8.422736167907715,10.1216402053833
1789022022664559000,8.09055908203125,-1.1389836072921753,-9.068798065185547,9.245866775512695
1789022022674484700,8.100484619140625,-0.7561319470405579,-8.96829891204834,7.982456207275391
1789022022684410600,8.11041064453125,-1.3351950645446777,-7.704888820648193,7.700103282928467
1789022022694336500,8.12033642578125,-1.5649060010910034,-5.2737812995910645,8.264809608459473
1789022022704262400,8.130262451171875,-1.6558332443237305,-3.460021495819092,8.398807525634766
1789022022714188000,8.14018798828125,-1.828116536140442,-2.847458839416504,8.417949676513672
1789022022724114000,8.150114013671875,-1.521835207939148,-2.66560435295105,8.365307807922363
1789022022734039800,8.160039794921875,-1.5026925802230835,-2.9527430534362793,8.642875671386719
1789022022743965700,8.169965576171874,-2.9383862018585205,-3.651447296142578,9.17886734008789
1789022022753891600,8.1798916015625,-5.115854740142822,-4.493721008300781,10.112068176269531
1789022022763817200,8.189817138671875,-4.2209391593933105,-5.996413707733154,10.514062881469727
1789022022773743000,8.1997431640625,-2.249253273010254,-7.044469833374023,10.949556350708008
1789022022783669000,8.2096689453125,-1.5122638940811157,-7.149754047393799,11.069197654724121
1789022022793594600,8.2195947265625,-1.8233308792114258,-6.015556335449219,10.829915046691895
1789022022803520500,8.2295205078125,-3.1968109607696533,-4.603790760040283,10.595418930053711
1789022022813446400,8.2394462890625,-4.914857864379883,-4.067798614501953,10.403992652893066
1789022022823372300,8.249372314453124,-4.790431022644043,-3.6131622791290283,10.356136322021484
1789022022833298200,8.259298095703125,-2.737389087677002,-3.4791641235351562,10.375279426574707
1789022022843223800,8.269223876953125,-1.765903115272522,-4.522434711456299,9.657432556152344
1789022022853149700,8.279149658203124,-2.3784656524658203,-5.881557941436768,9.772287368774414
1789022022863075600,8.28907568359375,-3.8572301864624023,-6.628118515014648,10.533205032348633
1789022022873001500,8.29900146484375,-1.923829436302185,-7.513463020324707,10.308279991149902
1789022022882927000,8.308927001953125,-1.7132610082626343,-9.274580955505371,8.671588897705078
1789022022892853000,8.31885302734375,-2.8043880462646484,-11.447263717651367,5.594419479370117
1789022022902779000,8.32877880859375,-4.689932346343994,-12.562318801879883,4.603790760040283
1789022022912704800,8.338704833984375,-4.40757942199707,-11.964113235473633,6.087340831756592
1789022022922630400,8.34863037109375,-2.857030153274536,-11.279766082763672,7.599604606628418
1789022022932556300,8.358556396484374,-3.1680972576141357,-10.839486122131348,8.63330364227295
1789022022942482200,8.368482177734375,-4.254438877105713,-9.710074424743652,10.403992652893066
1789022022952407800,8.37840771484375,-5.355136871337891,-8.264809608459473,12.385250091552734
1789022022962333700,8.388333740234375,-6.379265308380127,-7.192824840545654,14.08415412902832
1789022022972259600,8.398259521484375,-3.4743785858154297,-6.671189308166504,13.744373321533203
1789022022982185500,8.408185546875,-1.191625714302063,-6.436692714691162,13.308879852294922
1789022022992111000,8.418111083984375,-1.789831280708313,-6.8865437507629395,13.1365966796875
1789022023002037000,8.428037109375,-1.7180466651916504,-7.082755088806152,14.055439949035645
1789022023011963000,8.437962890625,-2.043470621109009,-7.140182971954346,14.055439949035645
1789022023021888800,8.447888671875,-2.9048867225646973,-7.4225358963012695,11.399407386779785
1789022023031814400,8.457814453125,-4.350151538848877,-7.384250640869141,8.566305160522461
1789022023041740300,8.467740234375,-4.450650215148926,-6.422336101531982,7.728816986083984
1789022023051666200,8.477666259765625,-3.603590965270996,-5.402993679046631,8.193024635314941
1789022023061592000,8.487592041015626,-2.7804598808288574,-3.7471601963043213,9.4660062789917
1789022023071517700,8.497517578125,-3.6083765029907227,-2.7900311946868896,9.686145782470703
1789022023081443600,8.507443603515625,-3.1824541091918945,-3.3643085956573486,8.484949111938477
1789022023091369500,8.517369384765624,-1.8089739084243774,-4.3788652420043945,6.7621169090271
1789022023101295000,8.527295166015625,-0.9954141974449158,-4.4410786628723145,5.814558982849121
1789022023111221000,8.537220947265626,-0.28235307335853577,-4.584648132324219,4.54636287689209
1789022023121147000,8.54714697265625,0.4163511395454407,-4.144368648529053,3.5461630821228027
1789022023131072800,8.55707275390625,0.6795616149902344,-3.4983067512512207,2.885744094848633
1789022023140998400,8.566998291015626,0.5359922647476196,-3.1106693744659424,2.1583259105682373
1789022023150924300,8.57692431640625,-0.19142581522464752,-2.3306093215942383,2.2540390491485596
1789022023160850200,8.58685009765625,-0.9954141974449158,-1.7276179790496826,3.579662561416626
1789022023170776000,8.596776123046874,-1.0241280794143677,-2.445464849472046,4.8191447257995605
1789022023180702000,8.606701904296875,-1.1581261157989502,-3.4265220165252686,5.498706340789795
1789022023190627600,8.616627685546876,-0.4785645306110382,-3.737588882446289,5.278566837310791
1789022023200553500,8.626553466796874,-0.8374879360198975,-2.746960401535034,4.374079704284668
1789022023210479400,8.636479248046875,-2.0099709033966064,-1.7228323221206665,2.5363919734954834
1789022023220405000,8.646405029296876,-1.4261223077774048,-1.0719845294952393,0.46420758962631226
1789022023230331000,8.656330810546875,-0.9667003750801086,-0.27756741642951965,-1.5026925802230835
1789022023240256800,8.6662568359375,-2.062613010406494,1.2921242713928223,-0.9667003750801086
1789022023250182700,8.6761826171875,-1.5026925802230835,1.3926228284835815,0.009571290574967861
1789022023260108300,8.6861083984375,0.6891329288482666,-0.2584248483181,0.5886343717575073
1789022023270034200,8.6960341796875,1.277767300605774,-1.9764715433120728,2.043470621109009
1789022023279960000,8.7059599609375,0.22013968229293823,-3.517449378967285,3.8333017826080322
1789022023289886000,8.715885986328125,-1.8089739084243774,-4.54636287689209,5.024927616119385
1789022023299811800,8.725811767578126,-4.168296813964844,-4.9435715675354,5.9198431968688965
1789022023309737500,8.735737548828125,-5.584847927093506,-5.139782905578613,6.570691108703613
1789022023319663400,8.745663330078125,-5.747560024261475,-5.154139995574951,8.135597229003906
1789022023329589200,8.75558935546875,-5.79063081741333,-5.79063081741333,11.002198219299316
1789022023339515000,8.765514892578125,-4.359723091125488,-7.015756130218506,12.815958023071289
1789022023349440800,8.775440673828125,-3.187239646911621,-8.575876235961914,12.600604057312012
1789022023359366700,8.78536669921875,-3.005385160446167,-9.389435768127441,11.935399055480957
1789022023369292500,8.79529248046875,-3.4791641235351562,-9.336793899536133,12.720245361328125
1789022023379218400,8.805218505859376,-4.541577339172363,-9.695717811584473,13.98365592956543
1789022023389144000,8.81514404296875,-4.479363918304443,-9.528220176696777,13.969298362731934
1789022023399070000,8.825070068359375,-4.9531426429748535,-9.044869422912598,13.060026168823242
1789022023408995800,8.834995849609374,-5.3694939613342285,-8.360522270202637,12.53839111328125
1789022023418921700,8.844921630859375,-3.737588882446289,-7.987242221832275,10.657631874084473
1789022023428847600,8.85484765625,-2.909672260284424,-7.479963779449463,9.236295700073242
1789022023438773200,8.864773193359374,-1.9286150932312012,-6.685546398162842,8.796015739440918
1789022023448699100,8.87469921875,-1.124626636505127,-5.924628734588623,8.781659126281738
1789022023458625000,8.884625,-0.49292147159576416,-5.54177713394165,7.149754047393799
1789022023468551000,8.894551025390625,-0.04785645380616188,-5.3934221267700195,6.025127410888672
1789022023478476800,8.904476806640625,0.20099709928035736,-5.795416355133057,5.000999450683594
1789022023488402400,8.91440234375,-2.014756679534912,-5.087141036987305,6.570691108703613
1789022023498328300,8.924328369140625,-3.531806230545044,-3.809373617172241,10.423135757446289
1789022023508254200,8.934254150390625,-5.125426292419434,-4.46979284286499,11.45683479309082
1789022023518180000,8.94418017578125,-2.713460922241211,-4.833501815795898,9.580862045288086
1789022023528105700,8.954105712890625,0.30628129839897156,-4.1730828285217285,7.460821151733398
1789022023538031600,8.964031494140626,0.8997012972831726,-3.7328033447265625,7.302894592285156
1789022023547957500,8.97395751953125,-0.550349235534668,-3.9194436073303223,7.427321434020996
1789022023557883400,8.98388330078125,-2.775674343109131,-4.192225456237793,8.303094863891602
1789022023567809300,8.993809326171874,-3.704089403152466,-4.503292083740234,8.432307243347168
1789022023577735000,9.00373486328125,-3.541377544403076,-4.063013076782227,9.020941734313965
1789022023587660800,9.013660888671875,-1.526620864868164,-4.091726779937744,9.308079719543457
1789022023597586700,9.023586669921874,0.3397808074951172,-4.316651821136475,9.355937004089355
1789022023607512600,9.0335126953125,-0.24406790733337402,-4.278367042541504,9.719645500183105
1789022023617438500,9.0434384765625,-2.043470621109009,-4.039084434509277,10.303494453430176
1789022023627364000,9.053364013671874,-3.6705899238586426,-4.082155227661133,10.380064964294434
1789022023637290000,9.0632900390625,-3.507878065109253,-4.541577339172363,10.001998901367188
1789022023647215900,9.0732158203125,-2.3976082801818848,-5.259424209594727,9.255437850952148
1789022023657141800,9.083141845703125,-3.6370904445648193,-6.230910301208496,8.757730484008789
1789022023667067400,9.0930673828125,-4.934000492095947,-6.843472957611084,8.595019340515137
1789022023676993300,9.1029931640625,-4.59421968460083,-7.178467750549316,9.193224906921387
1789022023686919200,9.112919189453125,-3.2829527854919434,-6.551548480987549,9.738788604736328
1789022023696845000,9.122844970703126,-1.8759729862213135,-6.5419769287109375,9.7005033493042
1789022023706771000,9.13277099609375,0.30628129839897156,-8.724231719970703,7.058826923370361
1789022023716696800,9.14269677734375,-1.28255295753479,-10.767702102661133,5.096712112426758
1789022023726622500,9.15262255859375,-3.7232320308685303,-12.844672203063965,4.163511276245117
1789022023736548400,9.16254833984375,-6.455835342407227,-13.26102352142334,6.991827964782715
1789022023746474200,9.17247412109375,-6.049055576324463,-12.629318237304688,11.715259552001953
1789022023756400000,9.182400146484374,-4.555934429168701,-12.452248573303223,14.021940231323242
1789022023766326000,9.192325927734375,-3.9768712520599365,-11.351551055908203,13.686945915222168
1789022023776251600,9.202251708984376,-2.770888566970825,-9.432506561279297,13.567304611206055
1789022023786177500,9.212177490234374,-1.7132610082626343,-7.987242221832275,13.442877769470215
1789022023796103400,9.222103515625,-2.124826431274414,-7.259823799133301,12.059825897216797
1789022023806029300,9.232029296875,-2.737389087677002,-6.752545356750488,10.98305606842041
1789022023815955000,9.241954833984375,-2.9527430534362793,-6.3361945152282715,10.145567893981934
1789022023825880800,9.251880859375,-2.7182464599609375,-6.221338748931885,9.001798629760742
1789022023835806700,9.261806640625,-2.9001009464263916,-5.867201328277588,8.571090698242188
1789022023845732600,9.271732666015625,-3.321237802505493,-5.436492919921875,8.350951194763184
1789022023855658500,9.281658447265626,-3.153740167617798,-4.694717884063721,9.255437850952148
1789022023865584000,9.291584228515624,-3.483949661254883,-3.579662561416626,10.475777626037598
1789022023875510000,9.301510009765625,-3.8189449310302734,-3.9768712520599365,9.829715728759766
1789022023885436000,9.311435791015626,-2.4119651317596436,-5.335994720458984,7.412964344024658
1789022023895361800,9.32136181640625,-1.2346965074539185,-5.335994720458984,5.79063081741333
1789022023905287400,9.331287353515625,-1.7419748306274414,-4.54636287689209,4.709074974060059
1789022023915213600,9.341213623046874,-2.1918256282806396,-3.3164522647857666,4.024727821350098
1789022023925139200,9.35113916015625,-0.9236295223236084,-2.383251428604126,4.886143684387207
1789022023935065000,9.361065185546876,-0.12921242415905,-2.785245656967163,6.3122663497924805
1789022023944991000,9.370990966796874,-1.2681959867477417,-3.570091485977173,6.829115867614746
1789022023954916900,9.380916748046875,-2.0099709033966064,-4.211368083953857,6.4510498046875
1789022023964842500,9.390842529296876,-2.053041934967041,-3.4408788681030273,6.331408500671387
1789022023974768400,9.400768310546875,-0.46420758962631226,-2.895315408706665,5.752345561981201
1789022023984694300,9.4106943359375,0.6029912829399109,-2.3736801147460938,4.680361270904541
1789022023994620200,9.4206201171875,0.3445664644241333,-1.8137595653533936,3.0245277881622314
1789022024004546000,9.430546142578125,-1.0528420209884644,-0.8997012972831726,1.679761528968811
1789022024014471700,9.4404716796875,-1.3351950645446777,-0.7417750358581543,0.31106695532798767
1789022024024397600,9.4503974609375,-0.35892340540885925,-1.3112667798995972,-1.2394821643829346
1789022024034323500,9.460323486328125,1.0193424224853516,-1.4739787578582764,-3.067598581314087
1789022024044249300,9.470249267578126,0.4546363055706024,-0.41156548261642456,-3.177668571472168
1789022024054175200,9.48017529296875,-2.526820659637451,1.588834285736084,0.851844847202301
1789022024064100900,9.490100830078125,-2.1296122074127197,-0.7465606927871704,2.8761727809906006
1789022024074026800,9.50002685546875,-1.4644074440002441,-3.2303106784820557,6.001199245452881
1789022024083952600,9.50995263671875,-1.3304094076156616,-5.642275810241699,8.073383331298828
1789022024093878500,9.51987841796875,-2.5124638080596924,-6.283552169799805,8.714659690856934
1789022024103804200,9.52980419921875,-4.809573650360107,-5.694917678833008,8.011170387268066
1789022024113730000,9.53972998046875,-6.144768714904785,-5.546562671661377,7.9489569664001465
1789022024123656000,9.549656005859376,-5.752345561981201,-5.867201328277588,8.695517539978027
1789022024133581800,9.559581787109375,-3.1202406883239746,-8.0350980758667,8.039883613586426
1789022024143507500,9.569507568359375,-1.9573289155960083,-9.059226989746094,7.81974458694458
1789022024153433300,9.579433349609374,-2.6368906497955322,-8.317451477050781,8.149953842163086
1789022024163359200,9.589359130859375,-4.015156269073486,-7.054041385650635,8.685946464538574
1789022024173285000,9.59928515625,-4.383651256561279,-6.5180487632751465,8.762516975402832
1789022024183211000,9.6092109375,-4.1491546630859375,-6.087340831756592,8.542376518249512
1789022024193136600,9.61913671875,-3.5365917682647705,-5.867201328277588,8.513663291931152
1789022024203062500,9.6290625,-3.249453067779541,-5.661418437957764,9.312865257263184
1789022024212988400,9.638988525390625,-2.4598217010498047,-5.532206058502197,9.365508079528809
1789022024222914300,9.648914306640625,-2.0482561588287354,-5.326423168182373,8.906085968017578
1789022024232840000,9.65883984375,-2.053041934967041,-5.350351333618164,8.513663291931152
1789022024242765800,9.668765869140625,-1.6366907358169556,-5.589633464813232,8.551948547363281
1789022024252691700,9.678691650390626,-0.8374879360198975,-5.814558982849121,8.647661209106445
1789022024262617600,9.68861767578125,-1.6606189012527466,-6.197410583496094,8.834300994873047
1789022024272543500,9.69854345703125,-1.4213366508483887,-6.652047157287598,9.470791816711426
1789022024282469000,9.70846923828125,-2.1583259105682373,-7.389036178588867,10.581061363220215
1789022024292395000,9.71839501953125,-3.7328033447265625,-7.3986077308654785,12.79202938079834
1789022024302321000,9.72832080078125,-3.2207393646240234,-8.10688304901123,13.409378051757812
1789022024312246500,9.73824658203125,-2.2444677352905273,-8.695517539978027,13.232309341430664
1789022024322172400,9.74817236328125,-1.5744773149490356,-8.671588897705078,12.53839111328125
1789022024332098300,9.758098388671876,-1.5601203441619873,-8.279166221618652,10.99741268157959
1789022024342024200,9.768024169921874,-1.2729816436767578,-7.255038261413574,9.001798629760742
1789022024351950000,9.7779501953125,-1.612762451171875,-5.355136871337891,8.738588333129883
1789022024361876000,9.7878759765625,-2.1056840419769287,-3.34995174407959,8.805587768554688
1789022024371801600,9.797801513671875,-2.837887763977051,-1.6319050788879395,9.212367057800293
1789022024381727500,9.8077275390625,-1.8855443000793457,-1.0001999139785767,9.590433120727539
1789022024391653400,9.8176533203125,-1.7467604875564575,-1.7419748306274414,9.422935485839844
1789022024401579000,9.8275791015625,-2.699103832244873,-3.373879909515381,9.169296264648438
1789022024411505000,9.8375048828125,-3.2925238609313965,-5.31685209274292,9.284152030944824
1789022024421430800,9.8474306640625,-2.785245656967163,-6.460621356964111,9.509077072143555
1789022024431356700,9.857356689453125,-2.4885356426239014,-6.628118515014648,9.686145782470703
1789022024441282300,9.8672822265625,-1.923829436302185,-6.738188743591309,9.41336441040039
1789022024451208200,9.877208251953125,-2.053041934967041,-6.317051887512207,8.791230201721191
1789022024461134000,9.887134033203125,-2.3258235454559326,-6.522834300994873,8.997013092041016
1789022024471060000,9.89706005859375,-1.7276179790496826,-7.197610378265381,9.068798065185547
1789022024480985600,9.906985595703125,-2.282752752304077,-7.417750358581543,9.710074424743652
1789022024490911500,9.916911376953125,-2.895315408706665,-6.814758777618408,10.332208633422852
1789022024500837400,9.92683740234375,-1.4883357286453247,-6.752545356750488,10.17428207397461
1789022024510763000,9.936762939453125,0.10049854964017868,-7.274180889129639,9.365508079528809
1789022024520689000,9.94668896484375,1.2059825658798218,-8.662017822265625,8.063812255859375
1789022024530614800,9.95661474609375,0.32542386651039124,-9.848857879638672,7.613961696624756
1789022024540540700,9.966540771484375,-1.8759729862213135,-10.475777626037598,7.369893550872803
1789022024550466300,9.97646630859375,-3.421736478805542,-10.73420238494873,7.307680130004883
1789022024560392200,9.98639208984375,-4.460221290588379,-10.423135757446289,7.676175117492676
1789022024570318000,9.996318115234375,-4.8191447257995605,-9.41336441040039,8.260024070739746
1789022024580244000,10.006243896484374,-3.9529430866241455,-7.963313579559326,9.604789733886719
1789022024590169600,10.016169677734375,-3.728017568588257,-6.805187702178955,10.916056632995605
1789022024600095500,10.026095458984376,-3.436093330383301,-6.130411624908447,11.93061351776123
1789022024610021400,10.036021484375,-2.3497519493103027,-5.627918720245361,12.557533264160156
1789022024619947300,10.045947265625,-1.2681959867477417,-5.182853698730469,13.739587783813477
1789022024629873000,10.055872802734376,-1.5409778356552124,-5.149354457855225,14.323436737060547
1789022024639798800,10.065798828125,-2.306680917739868,-5.594419479370117,14.653645515441895
1789022024649724700,10.075724609375,-3.139383316040039,-6.321837425231934,13.404592514038086
1789022024659650300,10.085650390625,-2.4885356426239014,-7.188039302825928,8.86780071258545
1789022024669576200,10.095576171875,-1.7084753513336182,-6.843472957611084,7.355536937713623
1789022024679502000,10.105502197265626,-2.8809585571289062,-5.848058700561523,8.283951759338379
1789022024689428000,10.115427978515624,-3.972085475921631,-5.608776092529297,8.126026153564453
1789022024699353600,10.125353515625,-3.177668571472168,-5.9916276931762695,6.829115867614746
1789022024709279500,10.135279541015626,-2.2636101245880127,-5.97727108001709,5.039284706115723
1789022024719205400,10.145205322265625,-1.7850457429885864,-4.622933387756348,4.340580463409424
1789022024729131000,10.155131103515625,-0.8231309652328491,-3.177668571472168,3.6466617584228516
1789022024739057000,10.165056884765624,0.349352091550827,-2.3641088008880615,3.273381471633911
1789022024748982800,10.174982666015625,1.3543375730514526,-2.1343977451324463,3.5461630821228027
1789022024758908700,10.18490869140625,2.4263222217559814,-2.8426733016967773,4.335794448852539
1789022024768834300,10.194834228515624,1.7802600860595703,-2.6847469806671143,5.556134223937988
1789022024778760200,10.20476025390625,-0.12921242415905,-2.857030153274536,6.297909259796143
1789022024788685800,10.214685791015626,-2.0338993072509766,-3.263810157775879,5.623133182525635
1789022024798611700,10.22461181640625,-1.8089739084243774,-3.5270206928253174,3.8572301864624023
1789022024808537600,10.23453759765625,-1.9094724655151367,-2.6799614429473877,2.287538528442383
1789022024818463200,10.244463134765626,-2.139183521270752,-2.7421748638153076,1.5792629718780518
1789022024828389000,10.25438916015625,-2.2923240661621094,-3.22552490234375,0.9667003750801086
1789022024838315000,10.26431494140625,-2.8283164501190186,-1.8999011516571045,1.3782658576965332
1789022024848241000,10.274240966796874,-2.9718856811523438,-0.6029912829399109,2.249253273010254
1789022024858166500,10.28416650390625,-2.713460922241211,-0.38285163044929504,3.751945972442627
1789022024868092400,10.294092529296876,-2.4981069564819336,-0.03349951654672623,5.8097734451293945
1789022024878018300,10.304018310546875,-2.0243279933929443,-0.4019941985607147,7.178467750549316
1789022024887944000,10.31394384765625,-0.02871387079358101,-2.9048867225646973,5.699703693389893
1789022024897869800,10.323869873046876,0.5312066078186035,-5.31685209274292,4.058227062225342
1789022024907795700,10.333795654296875,-3.7950167655944824,-4.321437835693359,6.570691108703613
1789022024917721300,10.343721435546875,-5.489135265350342,-4.709074974060059,8.044670104980469
1789022024927647200,10.353647216796874,-5.178068161010742,-5.450850009918213,8.72901725769043
1789022024937573000,10.363572998046875,-3.8428730964660645,-7.087540626525879,8.752944946289062
1789022024947498800,10.373498779296876,-4.015156269073486,-7.63310432434082,10.48534870147705
1789022024957424600,10.383424560546874,-4.7234320640563965,-6.900900363922119,11.992827415466309
1789022024967350500,10.3933505859375,-5.302495002746582,-6.4319071769714355,12.729816436767578
1789022024977276200,10.403276123046876,-4.536791801452637,-6.230910301208496,12.480962753295898
1789022024987202000,10.4132021484375,-3.177668571472168,-6.125626087188721,11.23190975189209
1789022024997128000,10.4231279296875,-1.770688772201538,-6.489335060119629,9.035298347473145
1789022025007053600,10.433053466796874,0.5168496966362,-7.982456207275391,6.254838466644287
1789022025016979500,10.4429794921875,-0.7130611538887024,-6.029912948608398,6.953542709350586
1789022025026905300,10.4529052734375,-3.2159535884857178,-4.254438877105713,8.164310455322266
1789022025036831000,10.4628310546875,-3.4743785858154297,-4.106083869934082,9.159725189208984
1789022025046756900,10.4727568359375,-3.10109806060791,-4.436293125152588,8.551948547363281
1789022025056682500,10.4826826171875,-2.4023938179016113,-4.579862594604492,7.575676441192627
1789022025066608400,10.4926083984375,-1.679761528968811,-4.512863636016846,6.063412666320801
1789022025076534300,10.5025341796875,-1.3399807214736938,-4.211368083953857,4.168296813964844
1789022025086460000,10.5124599609375,0.2967100143432617,-4.120440483093262,2.541177749633789
1789022025096385800,10.5223857421875,2.0865414142608643,-3.4504501819610596,2.68953275680542
1789022025106311700,10.532311767578125,2.919243574142456,-2.6464617252349854,4.015156269073486
1789022025116237300,10.5422373046875,1.856830358505249,-2.7565317153930664,5.077569484710693
1789022025126163200,10.5521630859375,-1.5649060010910034,-4.07258415222168,7.384250640869141
1789022025136089000,10.562089111328126,-4.685146808624268,-5.589633464813232,9.585647583007812
1789022025146014700,10.5720146484375,-2.8761727809906006,-7.719245910644531,9.590433120727539
1789022025155940600,10.581940673828125,-2.5076780319213867,-9.671789169311523,10.198209762573242
1789022025165866200,10.5918662109375,-4.374079704284668,-10.628918647766113,13.308879852294922
1789022025175792000,10.601792236328125,-4.972285270690918,-11.461620330810547,15.601203918457031
1789022025185718000,10.611718017578125,-3.014956474304199,-11.241480827331543,15.247065544128418
1789022025195643600,10.6216435546875,-1.9046868085861206,-9.93978500366211,14.658431053161621
1789022025205569500,10.631569580078125,0.6508477330207825,-8.676374435424805,12.557533264160156
1789022025215495400,10.641495361328126,0.2967100143432617,-7.130611419677734,11.988041877746582
1789022025225421000,10.651421142578124,-2.306680917739868,-5.934200286865234,11.959327697753906
1789022025235347000,10.661346923828125,-6.671189308166504,-4.264009952545166,13.232309341430664
1789022025245272600,10.6712724609375,-4.800002098083496,-3.34995174407959,12.0933256149292
1789022025255198500,10.681198486328125,-0.9571290612220764,-3.311666488647461,7.800601959228516
1789022025265124400,10.691124267578125,2.5603201389312744,-5.350351333618164,2.091326951980591
1789022025275050000,10.701050048828124,2.1104695796966553,-7.661818027496338,-1.0289137363433838
1789022025284975900,10.710975830078125,1.3160524368286133,-8.504091262817383,-3.8428730964660645
1789022025294901500,10.720901611328125,-0.698704183101654,-10.140782356262207,-5.929414749145508
1789022025304827400,10.730827392578124,-3.0723843574523926,-10.155138969421387,-1.5074782371520996
1789022025314753300,10.740753173828125,-9.839286804199219,-9.269794464111328,7.877171993255615
1789022025324679000,10.750678955078126,-12.064611434936523,-10.2747802734375,11.7056884765625
1789022025334604800,10.760604736328125,-6.647261142730713,-10.145567893981934,14.419149398803711
1789022025344530400,10.770530517578125,-0.13878370821475983,-8.068597793579102,17.23789405822754
1789022025354456300,10.780456298828126,1.7276179790496826,-6.192625045776367,15.897913932800293
1789022025364382200,10.79038232421875,1.4165509939193726,-6.623332977294922,12.76331615447998
1789022025374307800,10.800307861328125,-1.828116536140442,-7.8388872146606445,11.959327697753906
1789022025384233700,10.810233642578124,-3.5988051891326904,-9.05444049835205,12.452248573303223
1789022025394159400,10.820159423828125,-5.197210788726807,-10.088140487670898,12.882957458496094
1789022025404085200,10.830085205078126,-4.163511276245117,-8.920442581176758,12.902099609375
1789022025414011000,10.840010986328124,-1.6845471858978271,-7.982456207275391,10.96869945526123
1789022025423936800,10.849936767578125,1.0001999139785767,-7.867600917816162,7.384250640869141
1789022025433862700,10.859862548828126,2.383251428604126,-7.886743545532227,4.048655986785889
1789022025443788300,10.869788330078125,1.459621787071228,-6.168696880340576,2.2923240661621094
1789022025453714200,10.879714111328125,-1.550549030303955,-3.9864425659179688,2.053041934967041
1789022025463639800,10.889639892578124,-4.551148891448975,-2.871387243270874,1.7084753513336182
1789022025473565700,10.899565673828125,-5.599205017089844,-2.5842485427856445,1.2442678213119507
1789022025483491300,10.9094912109375,-4.206582069396973,-1.9286150932312012,2.258824586868286
1789022025493417200,10.919417236328124,-1.852044701576233,-1.5601203441619873,4.374079704284668
1789022025503343000,10.929343017578125,-0.09571290761232376,-2.469393014907837,6.379265308380127
1789022025513268700,10.939268798828126,0.6891329288482666,-4.1347975730896,8.049455642700195
1789022025523194600,10.949194580078125,-0.46899324655532837,-5.469992637634277,10.313065528869629
1789022025533120300,10.959120361328125,-0.9667003750801086,-6.661618232727051,11.461620330810547
1789022025543046100,10.969046142578126,0.4259224236011505,-6.929614543914795,10.528419494628906
1789022025552971800,10.9789716796875,0.45942193269729614,-7.121040344238281,8.566305160522461
1789022025562897700,10.988897705078125,-0.8901300430297852,-6.690331935882568,7.69531774520874
1789022025572823300,10.9988232421875,-3.4791641235351562,-5.240281581878662,8.762516975402832
1789022025582749200,11.008749267578125,-5.240281581878662,-4.3788652420043945,10.183853149414062
1789022025592675000,11.018675048828126,-6.240481376647949,-4.541577339172363,11.810972213745117
1789022025602600700,11.0286005859375,-5.374279499053955,-4.622933387756348,14.060225486755371
1789022025612526300,11.0385263671875,-2.9527430534362793,-6.068198204040527,13.969298362731934
1789022025622452200,11.0484521484375,-1.6558332443237305,-7.417750358581543,13.663017272949219
1789022025632378000,11.058378173828125,-1.7563318014144897,-8.140382766723633,12.098111152648926
1789022025642303700,11.0683037109375,-2.00518536567688,-8.149953842163086,9.174081802368164
1789022025652229600,11.078229736328124,-1.8424733877182007,-7.6474609375,6.8482584953308105
1789022025662155300,11.0881552734375,-1.8233308792114258,-6.656832695007324,5.388636589050293
1789022025672081200,11.0980810546875,-2.3162522315979004,-4.977071285247803,5.087141036987305
1789022025682006800,11.1080068359375,-3.239881753921509,-3.589233875274658,5.374279499053955
1789022025691932700,11.1179326171875,-3.091526746749878,-3.3403804302215576,5.087141036987305
1789022025701858300,11.1278583984375,-2.1822543144226074,-3.7232320308685303,5.814558982849121
1789022025711784200,11.1377841796875,-1.6319050788879395,-4.3310089111328125,7.211967468261719
1789022025721709800,11.147709716796875,-1.919043779373169,-4.776073932647705,8.212167739868164
1789022025731635700,11.1576357421875,-2.043470621109009,-5.350351333618164,7.9585280418396
1789022025741561300,11.167561279296875,-1.832902193069458,-5.254638671875,6.8004021644592285
1789022025751487200,11.1774873046875,-2.1104695796966553,-4.321437835693359,6.484549522399902
1789022025761412900,11.187412841796874,-3.0245277881622314,-3.5844483375549316,7.8819580078125
1789022025771338800,11.1973388671875,-2.2061824798583984,-4.206582069396973,7.762316703796387
1789022025781264400,11.207264404296875,-0.9236295223236084,-4.412364959716797,6.680760860443115
1789022025791190300,11.217190185546874,-1.588834285736084,-3.627519130706787,5.618347644805908
1789022025801116200,11.2271162109375,-2.775674343109131,-2.5986053943634033,5.254638671875
1789022025811041800,11.237041748046876,-3.6227335929870605,-2.517249345779419,6.183053493499756
1789022025820967700,11.2469677734375,-2.833101987838745,-2.857030153274536,6.072983741760254
1789022025830893300,11.256893310546875,-1.4213366508483887,-3.10109806060791,3.9146578311920166
1789022025840819200,11.266819091796876,-1.5074782371520996,-3.4552359580993652,2.2301106452941895
1789022025850744800,11.276744873046875,-1.2969099283218384,-3.713660717010498,2.2157537937164307
1789022025860670500,11.28667041015625,-1.8711873292922974,-3.129812002182007,3.517449378967285
1789022025870596400,11.296596435546874,-3.0388846397399902,-2.6847469806671143,5.388636589050293
1789022025880522000,11.30652197265625,-3.3020951747894287,-2.675175666809082,6.790830612182617
1789022025890448000,11.31644775390625,-2.7278177738189697,-2.9958138465881348,6.8243303298950195
1789022025900373500,11.32637353515625,-2.431107759475708,-3.397808074951172,6.652047157287598
1789022025910299400,11.33629931640625,-1.5649060010910034,-3.6466617584228516,7.044469833374023
1789022025920225000,11.34622509765625,-1.4644074440002441,-3.799802303314209,7.977670669555664
1789022025930151000,11.35615087890625,-1.8424733877182007,-4.445864677429199,9.17886734008789
1789022025940076500,11.36607666015625,-2.201396942138672,-4.7473602294921875,9.087940216064453
1789022025950002400,11.37600244140625,-2.8426733016967773,-4.8191447257995605,8.37009334564209
1789022025959928000,11.385927978515625,-2.9527430534362793,-4.54636287689209,7.489534854888916
1789022025969854000,11.39585400390625,-2.5220351219177246,-4.024727821350098,6.675975322723389
1789022025979779600,11.405779541015624,-1.8664016723632812,-3.2781670093536377,6.527620315551758
1789022025989705500,11.41570556640625,-1.0001999139785767,-2.5986053943634033,6.522834300994873
1789022025999631000,11.425631103515625,-0.5599204897880554,-2.4885356426239014,6.460621356964111
1789022026009557000,11.435556884765624,-0.3684946894645691,-2.699103832244873,6.833901405334473
1789022026019482600,11.445482666015625,-0.7082754969596863,-3.1202406883239746,7.365108013153076
1789022026029408500,11.455408447265626,-0.9906286001205444,-4.335794448852539,7.5708909034729
1789022026039334100,11.465334228515625,-1.3351950645446777,-5.091926574707031,8.470592498779297
1789022026049260000,11.475260009765625,-1.8951154947280884,-5.694917678833008,8.638090133666992
1789022026059185700,11.485185546875,-2.7517459392547607,-6.465406894683838,8.030312538146973
1789022026069111300,11.495111328125,-2.2301106452941895,-7.384250640869141,8.09252643585205
1789022026079037200,11.505037109375,-2.053041934967041,-7.680960655212402,8.949156761169434
1789022026088962800,11.514962890625,-2.861815929412842,-7.939385414123535,10.619346618652344
1789022026098888700,11.524888671875,-1.9908283948898315,-8.10688304901123,12.614960670471191
1789022026108814300,11.534814453125,-1.0671988725662231,-8.647661209106445,13.241880416870117
1789022026118740200,11.544740234375,-1.191625714302063,-8.949156761169434,12.88774299621582
1789022026128665900,11.554665771484375,-4.125226020812988,-9.126225471496582,12.5144624710083
1789022026138591700,11.564591796875,-6.51326322555542,-8.757730484008789,12.954741477966309
1789022026148517400,11.574517333984375,-3.5509488582611084,-8.451449394226074,12.007184028625488
1789022026158443300,11.584443359375,1.9286150932312012,-9.083154678344727,8.590232849121094
1789022026168369000,11.594368896484376,1.4787644147872925,-7.594819068908691,6.656832695007324
1789022026178294500,11.60429443359375,-1.5649060010910034,-5.532206058502197,5.8959150314331055
1789022026188220400,11.614220458984375,-1.674975872039795,-4.666004180908203,3.8572301864624023
1789022026198146000,11.62414599609375,-1.8951154947280884,-4.42193603515625,2.723032236099243
1789022026208072000,11.634072021484375,-2.981456995010376,-3.8572301864624023,4.412364959716797
1789022026217997600,11.64399755859375,-2.8522446155548096,-3.5748770236968994,7.23589563369751
1789022026227923500,11.65392333984375,-1.9764715433120728,-4.158725738525391,9.111868858337402
1789022026237849000,11.66384912109375,-1.7084753513336182,-5.283352375030518,9.714859962463379
1789022026247775000,11.67377490234375,-1.7611174583435059,-6.498906135559082,10.083354949951172
1789022026257700600,11.68370068359375,-1.9381862878799438,-8.417949676513672,10.222138404846191
1789022026267626200,11.693626220703125,-2.809173822402954,-8.197810173034668,10.667202949523926
1789022026277552000,11.70355224609375,-1.210768222808838,-7.6666035652160645,8.848658561706543
1789022026287477800,11.713477783203125,-0.9092726111412048,-7.661818027496338,7.159325122833252
1789022026297403600,11.723403564453125,-1.8424733877182007,-7.637889862060547,6.843472957611084
1789022026307329300,11.733329345703124,-5.575276851654053,-7.073183536529541,8.484949111938477
1789022026317255200,11.743255126953125,-3.656233072280884,-6.685546398162842,8.178668022155762
1789022026327180800,11.753180908203126,-1.8999011516571045,-7.307680130004883,7.719245910644531
1789022026337106400,11.7631064453125,-1.1198409795761108,-7.432106971740723,7.661818027496338
1789022026347032300,11.7730322265625,-1.1485549211502075,-7.365108013153076,7.992027759552002
1789022026356958000,11.7829580078125,-3.345165967941284,-7.250252723693848,9.154939651489258
1789022026366883800,11.7928837890625,-1.588834285736084,-6.273981094360352,9.643074989318848
1789022026376809500,11.8028095703125,1.1437692642211914,-8.030312538146973,7.877171993255615
1789022026386735000,11.812735107421876,-1.3926228284835815,-8.872586250305176,8.800801277160645
1789022026396661000,11.822660888671875,-2.517249345779419,-10.145567893981934,8.461020469665527
1789022026406586600,11.832586669921875,-4.632504463195801,-10.8969144821167,8.786444664001465
1789022026416512500,11.842512451171874,-4.862215518951416,-9.954142570495605,9.753145217895508
1789022026426438100,11.852438232421875,-2.0673987865448,-8.532805442810059,10.193424224853516
1789022026436364000,11.862364013671876,-1.5936198234558105,-7.03489875793457,10.284351348876953
1789022026446289700,11.87228955078125,-2.139183521270752,-5.800201892852783,9.954142570495605
1789022026456215300,11.88221533203125,-1.3208380937576294,-4.704289436340332,9.753145217895508
1789022026466141200,11.89214111328125,-0.8183453679084778,-4.383651256561279,8.623732566833496
1789022026476066800,11.90206689453125,-0.05742774158716202,-4.675575256347656,7.221538543701172
1789022026485992400,11.911992431640625,0.397208571434021,-4.756931304931641,7.121040344238281
1789022026495918300,11.92191845703125,-1.1676974296569824,-4.737788677215576,7.5326056480407715
1789022026505844000,11.931843994140625,-3.1345977783203125,-4.287938117980957,8.283951759338379
1789022026515769900,11.941769775390625,-4.1491546630859375,-4.115654945373535,9.078369140625
1789022026525695500,11.951695556640624,-3.249453067779541,-4.584648132324219,8.839086532592773
1789022026535621400,11.961621337890625,-1.5649060010910034,-4.833501815795898,8.571090698242188
1789022026545547000,11.971547119140626,-0.7226324677467346,-5.139782905578613,8.283951759338379
1789022026555472600,11.98147265625,-1.2729816436767578,-5.359922885894775,9.757930755615234
1789022026565398500,11.9913984375,-2.6560330390930176,-5.814558982849121,10.825129508972168
1789022026575324200,12.00132421875,-3.029313564300537,-6.561119556427002,10.279565811157227
1789022026585249800,12.011249755859374,-2.9001009464263916,-6.020341873168945,9.360722541809082
1789022026595175700,12.02117578125,-3.4648072719573975,-4.938786029815674,10.786844253540039
1789022026605101300,12.031101318359376,-3.8045880794525146,-5.225924491882324,13.083953857421875
1789022026615027200,12.041027099609375,-3.2303106784820557,-6.269195556640625,14.280365943908691
1789022026624952800,12.050952880859375,-1.7754744291305542,-8.087740898132324,12.351750373840332
1789022026634878500,12.06087841796875,-1.0097711086273193,-9.078369140625,9.767501831054688
1789022026644804400,12.070804443359375,-1.196411371231079,-8.23130989074707,7.566105365753174
1789022026654730000,12.08072998046875,-1.1437692642211914,-7.312466144561768,5.2115678787231445
1789022026664655600,12.090655517578124,-1.6414763927459717,-5.498706340789795,3.651447296142578
1789022026674581500,12.10058154296875,-2.3736801147460938,-3.469592809677124,3.153740167617798
1789022026684507100,12.110507080078126,-2.2636101245880127,-3.005385160446167,2.7900311946868896
1789022026694432800,12.120432861328124,-1.4883357286453247,-3.0723843574523926,3.589233875274658
1789022026704358700,12.130358642578125,-0.5934200286865234,-3.326023578643799,4.474578380584717
1789022026714284300,12.1402841796875,-0.32542386651039124,-3.359523057937622,3.8668015003204346
1789022026724210200,12.150210205078125,-0.8327022790908813,-1.6606189012527466,3.5126636028289795
1789022026734135800,12.1601357421875,-2.210968017578125,0.02392822690308094,4.60857629776001
1789022026744061400,12.1700615234375,-2.5076780319213867,-1.0815558433532715,6.187839508056641
1789022026753987300,12.1799873046875,-0.6364908218383789,-3.239881753921509,7.341179847717285
1789022026763913000,12.189912841796875,-0.2871387302875519,-4.843072891235352,6.498906135559082
1789022026773838600,12.199838623046874,-2.234896421432495,-6.226124286651611,5.704489231109619
1789022026783764500,12.209764404296875,-4.9292144775390625,-6.733402729034424,6.565905570983887
1789022026793690000,12.219690185546876,-4.527220249176025,-5.60399055480957,6.288337707519531
1789022026803615700,12.22961572265625,-2.68953275680542,-6.288337707519531,3.651447296142578
1789022026813541600,12.239541748046875,-2.335394859313965,-5.934200286865234,2.5842485427856445
1789022026823467300,12.24946728515625,-2.431107759475708,-3.6705899238586426,2.7517459392547607
1789022026833393200,12.25939306640625,-3.1489546298980713,-2.2636101245880127,3.5844483375549316
1789022026843318800,12.26931884765625,-2.344966173171997,-1.9956140518188477,4.488935470581055
1789022026853244400,12.279244384765626,-1.3208380937576294,-2.2205393314361572,5.422136306762695
1789022026863170000,12.289170166015625,-1.2729816436767578,-2.9623143672943115,6.580262184143066
1789022026873096000,12.299095947265625,-1.6845471858978271,-3.9146578311920166,7.288537979125977
1789022026883021600,12.309021484375,-2.287538528442383,-4.383651256561279,7.652246952056885
1789022026892947200,12.318947265625,-3.0628130435943604,-4.900500774383545,7.197610378265381
1789022026902873000,12.328873046875,-3.7663028240203857,-5.163711071014404,6.685546398162842
1789022026912798700,12.338798828125,-3.972085475921631,-4.986642360687256,7.0683979988098145
1789022026922724600,12.348724609375,-3.4408788681030273,-4.6995038986206055,7.11146879196167
1789022026932650200,12.358650146484376,-2.7278177738189697,-4.3549370765686035,7.130611419677734
1789022026942575900,12.368575927734375,-1.8999011516571045,-3.94815731048584,7.197610378265381
1789022026952501500,12.37850146484375,-0.6604190468788147,-3.799802303314209,6.733402729034424
1789022026962427400,12.388427490234376,-0.10049854964017868,-3.8189449310302734,6.709474563598633
1789022026972353000,12.39835302734375,-0.4977070987224579,-4.029513359069824,8.298309326171875
1789022026982278700,12.408278564453125,-1.435693621635437,-4.335794448852539,10.877771377563477
1789022026992204500,12.41820458984375,-2.8761727809906006,-5.627918720245361,12.600604057312012
1789022027002130200,12.428130126953125,-2.9479575157165527,-7.436892986297607,12.370893478393555
1789022027012055800,12.438055908203125,-2.1104695796966553,-8.800801277160645,11.490334510803223
1789022027021981700,12.447981689453124,-1.1437692642211914,-9.547362327575684,11.011770248413086
1789022027031907300,12.4579072265625,-1.4644074440002441,-9.403793334960938,12.088540077209473
1789022027041833000,12.4678330078125,-1.856830358505249,-8.74337387084961,12.409177780151367
1789022027051758800,12.4777587890625,-2.2301106452941895,-8.154739379882812,10.85862922668457
1789022027061684500,12.4876845703125,-2.2683959007263184,-7.704888820648193,8.987442016601562
1789022027071610000,12.497610107421876,-2.282752752304077,-7.082755088806152,8.02074146270752
1789022027081536000,12.507535888671875,-2.4741785526275635,-6.4319071769714355,8.011170387268066
1789022027091461600,12.517461669921875,-2.837887763977051,-5.982056617736816,9.087940216064453
1789022027101387300,12.52738720703125,-1.368694543838501,-6.197410583496094,8.628518104553223
1789022027111313200,12.537313232421875,0.4833501875400543,-6.355337142944336,6.522834300994873
1789022027121238800,12.54723876953125,-0.009571290574967861,-6.4079790115356445,4.742574691772461
1789022027131164400,12.557164306640624,-1.0719845294952393,-6.005984783172607,4.163511276245117
1789022027141090000,12.567090087890625,-0.7848458290100098,-5.096712112426758,4.9052863121032715
1789022027151016000,12.577015869140626,-1.6893328428268433,-3.9768712520599365,5.651846885681152
1789022027160941600,12.586941650390624,-0.6652047038078308,-3.8524444103240967,5.326423168182373
1789022027170867200,12.5968671875,-0.5838487148284912,-3.996013879776001,4.8574299812316895
1789022027180793000,12.60679296875,-3.3308091163635254,-4.106083869934082,6.116054534912109
1789022027190718700,12.61671875,-5.781059741973877,-4.335794448852539,8.762516975402832
1789022027200644400,12.626644287109375,-4.957928657531738,-5.355136871337891,11.24626636505127
1789022027210570200,12.6365703125,-1.4931213855743408,-6.221338748931885,12.131610870361328
1789022027220496000,12.646495849609375,1.0911271572113037,-7.082755088806152,11.361122131347656
1789022027230421500,12.65642138671875,1.1676974296569824,-7.389036178588867,10.767702102661133
1789022027240347100,12.66634716796875,-1.4261223077774048,-7.130611419677734,10.954341888427734
1789022027250273000,12.67627294921875,-4.1970109939575195,-6.417550563812256,11.925827980041504
1789022027260198700,12.68619873046875,-1.94297194480896,-6.187839508056641,10.715060234069824
1789022027270124300,12.696124267578124,-0.49292147159576416,-7.211967468261719,8.877371788024902
1789022027280050200,12.70605029296875,-1.8137595653533936,-8.86780071258545,7.8628153800964355
1789022027289975800,12.715975830078126,-3.1920254230499268,-9.772287368774414,7.240681171417236
1789022027299901400,12.7259013671875,-4.967499732971191,-8.365307807922363,8.95394229888916
1789022027309827000,12.7358271484375,-5.670989513397217,-5.814558982849121,10.681560516357422
1789022027319753000,12.7457529296875,-2.4023938179016113,-5.685346603393555,9.432506561279297
1789022027329678600,12.7556787109375,-0.41156548261642456,-6.393621921539307,7.901100158691406
1789022027339604200,12.765604248046875,1.5792629718780518,-7.5086774826049805,5.627918720245361
1789022027349530000,12.775530029296876,2.3784656524658203,-9.418149948120117,3.5461630821228027
1789022027359455700,12.785455810546875,-1.5074782371520996,-10.068997383117676,3.0388846397399902
1789022027369381400,12.79538134765625,-3.6466617584228516,-9.312865257263184,4.005585193634033
1789022027379307000,12.80530712890625,-3.5988051891326904,-8.992227554321289,4.843072891235352
1789022027389233000,12.81523291015625,-3.651447296142578,-8.015955924987793,6.20219612121582
1789022027399158500,12.825158447265625,-2.187039852142334,-7.183253765106201,7.03489875793457
1789022027409084200,12.835084228515624,-2.455035924911499,-6.0777692794799805,8.973084449768066
1789022027419009800,12.845009765625,-1.6845471858978271,-5.517848968505859,11.097911834716797
1789022027428935700,12.854935791015626,-0.32542386651039124,-5.240281581878662,12.547962188720703
1789022027438861300,12.864861328125,-0.07657032459974289,-5.704489231109619,12.892528533935547
1789022027448787000,12.874786865234375,-1.4117653369903564,-7.369893550872803,11.964113235473633
1789022027458712800,12.884712890625,-4.2209391593933105,-8.049455642700195,13.739587783813477
