time,seconds_elapsed,z,y,x
1789454203152372500,0.07137255859375,0.6522147852092981,-0.4758277062118053,0.208808900783211
1789454203162312700,0.081312744140625,0.5216495461881161,-0.3761310681849718,0.12103095634803175
1789454203172252700,0.091252685546875,0.1201280161589384,-0.1030719596788287,0.0591533229753375
1789454203182192600,0.101192626953125,-0.4778805470883846,-0.10383242265731096,-0.12622545625120402
1789454203192132600,0.111132568359375,-0.4640957673639059,-0.13641396504938602,-0.41411812288239597
1789454203202072600,0.121072509765625,0.25250878016948697,-0.19147505027502773,-0.46957960560247297
1789454203212012500,0.131012451171875,1.1007014800310135,-0.5340528084263205,-0.2986465542271733
1789454203221952800,0.140952880859375,1.203514788773656,-1.1796747712418436,-0.07049421667903662
1789454203231892500,0.150892578125,1.6117296789616344,-1.3147773614317178,-0.574087151042372
1789454203241833700,0.160833740234375,-0.04373042065501213,-1.137381689913571,-0.8140314870625733
1789454203251773700,0.170773681640625,-3.3146845202028747,-0.9207312818497418,-0.9726062843851745
1789454203261713700,0.180713623046875,-3.540965218660235,-0.34634792433977124,-1.077680962188542
1789454203271653600,0.190653564453125,-3.1062370000779627,-0.1092941951945424,0.3133960873305797
1789454203281593600,0.200593505859375,-1.420291745826602,0.3106970575049519,1.3744929944649338
1789454203291533800,0.210533935546875,-0.16705927868187426,1.578494348835945,1.1161290585264563
1789454203301473500,0.2204736328125,-1.37359546110332,1.0631553009688854,-0.22135814736336468
1789454203311413500,0.23041357421875,-1.0833996320962904,-0.2705100085452199,-0.9422872070323676
1789454203321353700,0.240353759765625,0.25513036084473134,-0.5035778829246759,-0.4435582985088229
1789454203331293700,0.250293701171875,-0.3237719353944063,-0.5507330173313617,-0.231270542633906
1789454203341233700,0.260233642578125,-1.3409604349583386,-0.7141822888225317,-0.6297432795517146
1789454203351173600,0.270173583984375,-1.1356044511079788,-0.6871452288150787,-1.2441440285429357
1789454203361113600,0.280113525390625,0.07897942869067191,-0.7604799296170472,-1.2545686841845511
1789454203371053600,0.290053466796875,-0.026065000104904174,-0.45911271825432776,-0.3647315030965954
1789454203380993500,0.29999365234375,0.058931496918201445,-0.09053893358111381,0.031058862869441508
1789454203390933800,0.309933837890625,0.5191220735371113,0.11141279478371142,0.09982026440650224
1789454203400873700,0.319873779296875,0.932161607402563,0.052072717064619065,0.3373777783554047
1789454203410813700,0.329813720703125,1.5182839180231094,-0.09208908563256263,0.5275483949683606
1789454203420753700,0.339753662109375,1.1616922475665807,-0.24751345610022543,0.3083473525736481
1789454203430693600,0.349693603515625,-0.22927111244499682,-0.22727497019171713,-0.07845671999081968
1789454203440634600,0.359634521484375,-1.2321095996171236,-0.13685761716365813,-0.6094236912310123
1789454203450574600,0.36957470703125,-1.7713094155430793,-0.5420505291819572,-1.2389321391135453
1789454203460514600,0.3795146484375,-1.3696248039066792,-1.2125304544001816,-1.6260329296022653
1789454203470454800,0.389454833984375,-0.7318570617228746,-1.5716437522888183,-1.7465113666340708
1789454203480394500,0.39939453125,-0.2565630239963531,-1.3508429465472698,-0.7932804485220462
1789454203490334700,0.409334716796875,-0.22523849592804907,-1.1485387514829635,0.44101226728782056
1789454203500274700,0.419274658203125,-0.42589609282910823,-0.3236117763966322,1.546075011268258
1789454203510214700,0.429214599609375,-1.375253165182471,0.6529255638271569,1.8925471465095876
1789454203520154600,0.439154541015625,-2.437176294007897,1.0339765527576208,1.7765286114960908
1789454203530094600,0.449094482421875,-2.9586048909217117,0.7384674197733402,1.9241326636016367
1789454203540034600,0.45903466796875,-2.722811683231592,-0.003134206372499466,1.2608086014874278
1789454203549974800,0.468974853515625,-2.3403443977624176,-0.5597445913046598,0.5197815968917683
1789454203559914500,0.47891455078125,-1.4241852461338043,-0.6132143156856298,0.6237937234975397
1789454203569854700,0.488854736328125,0.6442185257583857,-0.3947708867251873,0.759917692624405
1789454203579794700,0.498794677734375,1.2313128962814808,-0.8180337084412574,1.1203734911631793
1789454203589734700,0.508734619140625,1.305500414520502,-0.7055003851950168,0.47813890576362605
1789454203599675600,0.518675537109375,0.6585457417964935,-0.6499836651563644,0.06658179247565567
1789454203609615600,0.52861572265625,-0.2691191387087107,-0.8354547988414764,0.08847937070280312
1789454203619555600,0.5385556640625,-1.0302473031014203,-0.8773352077156304,-0.3352745955310762
1789454203629495600,0.54849560546875,-1.3564619554728268,-1.2259697816878556,-0.7235981327477842
1789454203639435500,0.558435546875,-1.2307681218802928,-1.479291047284007,-0.9511294157881289
1789454203649375500,0.56837548828125,-0.7422627204030752,-1.1074193901091813,-0.456858363456279
1789454203659315700,0.578315673828125,-0.5133925899744034,-0.518164042159915,0.4001742070734501
1789454203669255400,0.58825537109375,-0.28173019847869873,-0.31997020502388474,0.6648445496797561
1789454203679195400,0.5981953125,0.10987959386706352,-0.18640695323050022,0.7232248424559832
1789454203689135600,0.608135498046875,0.471563034504652,0.12218962486386298,0.6748023184619844
1789454203699075600,0.61807568359375,0.5307978982836008,0.014167057040333747,0.353331938008219
1789454203709015600,0.628015625,0.2892594249397516,-0.9540814705267548,-0.6148866328120232
1789454203718955500,0.63795556640625,-0.6101748018592595,-1.5872984175384044,-1.7215622188165782
1789454203728895500,0.6478955078125,-1.8031722882717847,-1.5090651310399175,-2.0916402705729005
1789454203738835500,0.65783544921875,-2.1017682813555,-1.8050576636269688,-2.2587802132755517
1789454203748775400,0.667775390625,-1.8050977033764122,-3.0467104598760604,-2.8825854810804126
1789454203758716700,0.677716552734375,-1.1307675324708222,-4.490533887937665,-3.160785751867294
1789454203768656400,0.687656494140625,-0.6184095462411642,-5.079741889613866,-2.779304554826021
1789454203778596400,0.697596435546875,-0.6149719730079174,-5.070356806153058,-1.8317890186861157
1789454203788536600,0.70753662109375,-1.0074439351409674,-4.785846621567011,-1.0223905982516706
1789454203798476500,0.7174765625,-2.644917711690068,-4.4815535858854645,0.592782937553525
1789454203808416500,0.72741650390625,-3.5192110674917694,-4.371217188161611,1.5905904448211192
1789454203818356500,0.7373564453125,-3.2870272824704645,-5.076411868408322,0.490077911490947
1789454203828296400,0.74729638671875,-5.540974084240198,-4.395358818988502,0.30590529318377374
1789454203838236700,0.757236572265625,-6.202386905905604,-3.9728924083471298,-0.5742649918273091
1789454203848176400,0.76717626953125,-3.7791479518353936,-4.294211689892411,-0.8079144654870033
1789454203858116600,0.77711669921875,-0.6342097574412823,-5.471878920704126,-0.2391819733455777
1789454203868056600,0.787056640625,-1.849920010921359,-7.197994272780418,0.8862456594020127
1789454203877996500,0.79699658203125,-0.9654799396365881,-8.071525412037968,2.265048333759606
1789454203887937500,0.8069375,2.156427507781982,-5.8804357561975715,3.8832919246599076
1789454203897877500,0.81687744140625,0.643583734986186,-4.612765598377585,4.988788530012965
1789454203907817700,0.826817626953125,0.0049777884125709534,-4.5058612209290265,5.409934213444591
1789454203917757400,0.83675732421875,0.28488895477056503,-4.310408791455626,5.6440346457421775
1789454203927697400,0.846697509765625,0.5852583872675895,-3.7909821820139884,4.947970781934261
1789454203937637600,0.8566376953125,0.7621803037941456,-3.7527331153795123,3.1024346851855515
1789454203947577600,0.86657763671875,0.17160510541796684,-4.754528230978548,0.7153057398945093
1789454203957517600,0.876517578125,0.4565566040307283,-5.141325362345576,-1.137010226252675
1789454203967457500,0.88645751953125,0.7113993801057338,-4.389055334930122,-1.7668670491814613
1789454203977397500,0.8963974609375,-0.9588321721851825,-3.317741861946881,-0.630153760048747
1789454203987337500,0.90633740234375,-0.6959411142110824,-4.3564051112160085,-1.4253677339166402
1789454203997277400,0.91627734375,-0.5578986711770296,-3.75400503501147,-0.07342763978242874
1789454204007217400,0.926217529296875,-1.9769535686850546,-3.5288939648553725,0.44665889487266536
1789454204017158400,0.936158447265625,-2.861891068097949,-3.7844255999773737,0.6926993558108806
1789454204027098400,0.946098388671875,-3.768117439255118,-5.619948252233862,1.2570207535117863
1789454204037038600,0.95603857421875,-1.6546405999273062,-6.389862365150451,2.7024779202550646
1789454204046978600,0.965978515625,5.467809479308128,-4.874979195481538,5.618808434548973
1789454204056918500,0.97591845703125,16.784507483905553,0.07583703901171684,7.371504919558763
1789454204066858500,0.9858583984375,18.334896851241588,0.4759650688558817,11.19434471360445
1789454204076798500,0.995798583984375,20.121934581792353,1.050052658289671,12.561817307913303
1789454204086738700,1.00573876953125,17.731197967398167,2.0527555363833905,11.992850714755058
1789454204096678400,1.015678466796875,15.07150646494627,1.097632155588269,11.55859888151288
1789454204106618400,1.025618408203125,13.008978891611099,1.5750024150669575,11.082298881614207
1789454204116558600,1.03555859375,10.119310758793354,2.341881105810404,9.880271701049804
1789454204126498600,1.04549853515625,0.8596461140289903,4.499467135977745,10.775213292604684
1789454204136439600,1.055439453125,-10.360589704418182,6.872448897972703,8.887303450506925
1789454204146379500,1.065379638671875,-7.855363956534862,9.238256822815536,9.47305517424941
1789454204156319700,1.07531982421875,-7.29814040814042,7.659846645131707,7.4286571318447585
1789454204166259500,1.085259521484375,-3.226719236502051,6.623205841600894,5.8542784016340965
1789454204176199400,1.095199462890625,-0.6779682351469993,5.6657338518530125,5.8946472369015215
1789454204186139600,1.1051396484375,0.45488311786055563,3.418964394366741,3.6662151078775524
1789454204196079600,1.11507958984375,1.292270053808391,2.519278238633275,3.5741803827807304
1789454204206019300,1.125019287109375,-1.344421389067173,0.9188222333580255,3.6275571681812404
1789454204215959600,1.13495947265625,-4.421613496446609,-0.7321335405766963,1.4201891622349618
1789454204225899500,1.1448994140625,-4.076461503893137,-2.768912924671173,-0.3814429108574986
1789454204235839500,1.154839599609375,-4.0068639437928795,-0.6831880156219006,1.5906947819784283
1789454204245780500,1.164780517578125,-4.157204142864048,1.8158154967457054,3.2485797706544397
1789454204255720700,1.174720703125,-2.0887983251452447,1.0204536388397216,2.65208482684046
1789454204265660400,1.184660400390625,-1.0679603631630539,-0.901679959899187,1.3260630178168415
1789454204275600400,1.194600341796875,0.12493629322350025,-3.126163935819268,-0.6299363179057836
1789454204285540600,1.20454052734375,10.918008483123778,-8.076933993083237,-4.2047102826654905
1789454204295480600,1.21448046875,33.94876948719025,-11.757173826920985,-3.6488211977452036
1789454204305420300,1.224420166015625,-24.423382068157196,3.1312516143471,3.5747003150016066
1789454204315360500,1.234360595703125,-29.49035215448141,8.409823885434866,-2.555546945105493
1789454204325300500,1.244300537109375,1.4668974296569823,4.294706195411086,3.2385844463407993
1789454204335240700,1.25424072265625,2.8220255061775443,0.6836252379953861,4.700238714647293
1789454204345180400,1.264180419921875,7.065798217687011,-2.1041192283958194,1.2640259560987352
1789454204355120400,1.274120361328125,1.2971814989864825,1.0320055449455976,0.7479559636086225
1789454204365061600,1.2840615234375,-3.6864836966633794,3.5417876409590243,1.0513327612280845
1789454204375001300,1.29400146484375,-0.5283993127092719,4.203414982157946,2.555055946718156
1789454204384941600,1.303941650390625,0.8381681494534016,4.065110088795423,3.140813223418593
1789454204394881500,1.313881591796875,-0.3692331253647804,4.093917665606737,1.378230135166645
1789454204404821500,1.323821533203125,-1.243149464547634,4.568267115959525,0.3640612756848335
1789454204414761500,1.333761474609375,-2.379893148818612,6.492098166266083,0.39669454826414585
1789454204424701400,1.343701416015625,-3.7403131942674515,7.557969740456342,-1.2768442288786173
1789454204434641700,1.3536416015625,-4.836147360523045,7.54695091831386,-2.757726344746351
1789454204444581600,1.36358154296875,-5.026578454703092,3.5698014370441435,-6.555126577109098
1789454204454521300,1.373521240234375,-3.966266852727532,1.5638567516744135,-7.1942030638039105
1789454204464462600,1.383462646484375,-3.409596554301679,3.825785199847817,-1.65075411388278
1789454204474402300,1.39340234375,-5.432356473132968,9.690455816158652,2.7631308341383933
1789454204484342500,1.403342529296875,-3.1467978507861494,13.577967696601151,7.3025102937877175
1789454204494282500,1.413282470703125,11.40919391746521,13.221807987821101,13.901601100307703
1789454204504222700,1.42322265625,7.508769363957643,15.011174453580379,15.319273603546618
1789454204514162400,1.433162353515625,3.2336323768913746,4.7874154783189296,11.145558178603649
1789454204524102400,1.443102294921875,8.081859174525738,-8.648071500539778,-0.05688216317296028
1789454204534042600,1.453042724609375,5.172652813023329,-13.164132043921947,-5.316003883859515
1789454204543982600,1.462982666015625,6.612767449694871,-23.541775758993623,-15.158130270910263
1789454204553922300,1.47292236328125,-1.258527212551981,-24.762112503230572,-13.783912293994426
1789454204563863600,1.482863525390625,-5.567853907859325,-14.55118729057908,-1.1158762528091668
1789454204573803500,1.492803466796875,-5.657482740858197,-9.761226219430565,5.3574388870537275
1789454204583743500,1.502743408203125,-1.5820700153656302,-8.182665819621086,3.291479585704207
1789454204593683500,1.512683349609375,1.9856753659315407,-4.547594330286979,2.1227929492056368
1789454204603623700,1.522623779296875,2.6860622075051066,-1.3812941989123821,3.2244378475666045
1789454204613563600,1.532563720703125,0.5817109239190816,-1.7011515912115573,2.564136786535382
1789454204623503400,1.54250341796875,-0.20345979484021662,-2.209180023804307,2.6002888808906075
1789454204633443600,1.552443603515625,0.37124329614341256,-2.151432183712721,2.029452986729145
1789454204643383000,1.562383056640625,-0.5318786792576313,-1.9978449655443429,0.8177098833143711
1789454204653323000,1.572322998046875,-1.841651510400325,-2.200660032740235,-0.4234656508117914
1789454204663263000,1.582262939453125,-5.157192209041118,0.6695107879251241,-2.866787023445964
1789454204673204000,1.592203857421875,-3.0753152075916526,1.807391951793432,-3.0737025116980075
1789454204683144200,1.602144287109375,6.653347297364473,0.8237906645327806,0.947585386505723
1789454204693084000,1.612083984375,2.265564758849144,-1.148767299541831,0.4521171602785587
1789454204703023900,1.62202392578125,-4.0743841130971905,0.7219681203931569,-0.13965923058092594
1789454204712964000,1.631964111328125,-1.2892455914206802,1.463186884701252,0.22227613899111748
1789454204722904000,1.641904052734375,0.7000935577154159,0.19968962865173814,0.11976502806544304
1789454204732844000,1.651843994140625,-0.6726445559062063,-0.8084194923996925,-0.9495470419675112
1789454204742784000,1.661783935546875,-2.9308243190705774,-3.2216409103244543,-3.4848376732468602
1789454204752724000,1.671723876953125,-1.2308688057757913,-5.194117625856399,-3.4156741206496952
1789454204762665000,1.6816650390625,0.5612928436599671,-4.496895824185014,-1.552358037060499
1789454204772605000,1.69160498046875,0.3082755294464528,0.4149608573168516,1.1998656186163426
1789454204782545200,1.701545166015625,-1.500899067980051,0.5910457384973764,-1.5232926860958338
1789454204792485000,1.711485107421875,-0.8080329773001372,-0.029973697981238362,-1.263629357996583
1789454204802424800,1.7214248046875,-0.27599413904473186,6.64261021477282,4.220117695155739
1789454204812365000,1.731364990234375,-6.498758793199062,22.735790215742586,4.438018687802553
1789454204822305000,1.741304931640625,9.706113404017687,14.966284341496229,-2.646879951673746
1789454204832245000,1.751244873046875,1.3590268375247716,4.664086620292068,-8.145083400201797
1789454204842185000,1.76118505859375,-3.740081431338191,2.697044789290428,-5.850632154086232
1789454204852125000,1.771125,-1.791447948208451,5.970268587335944,0.7229150458544492
1789454204862066000,1.78106591796875,-2.520553080874681,2.8223540074795483,4.517765593734383
1789454204872006000,1.791005859375,-0.8721522521197795,-1.3911363784909248,3.305029095368087
1789454204881946000,1.800946044921875,1.6534475907504558,-4.740033549419045,4.012042807735503
1789454204891886000,1.810885986328125,0.6345172159552573,-5.9464960820823904,2.49540548787564
1789454204901825800,1.82082568359375,0.26302319645378736,-1.5738456462472676,0.5743848188146948
1789454204911766000,1.83076611328125,0.6639490621447562,2.47182324449718,0.8796732952743768
1789454204921706000,1.8407060546875,-1.1814181077778338,5.781843864542245,0.7720587237298489
1789454204931646200,1.850646240234375,-0.06761866124272346,10.721334402900933,-0.18742840523272752
1789454204941587000,1.8605869140625,5.517233143168688,15.735672969233988,0.8911103428289294
1789454204951527200,1.870527099609375,6.40793578197956,11.135106927216052,5.058042098981142
1789454204961467100,1.880467041015625,-5.73185321444869,7.261439447730779,-8.556941030806302
1789454204971406800,1.89040673828125,-4.0806238842695945,4.865148121818899,-13.908936850023268
1789454204981347000,1.90034716796875,2.0805343546688557,-10.033547369050979,-1.4089885537847875
1789454204991287000,1.910287109375,-7.349230543908476,-28.17947296953201,-2.612463595069945
1789454205001227000,1.92022705078125,0.6325438700556755,-32.14829476743936,3.1132588615387675
1789454205011167000,1.9301669921875,0.5059469866761938,-17.761266942447424,8.779673096871376
1789454205021107000,1.94010693359375,1.2695792063117026,-14.190828376543521,6.2763908842712635
1789454205031048000,1.9500478515625,1.3109049039125442,-7.720771361693739,1.3664039421640335
1789454205040988000,1.95998779296875,0.010015198057889937,3.1324662508338688,-4.013623939447105
1789454205050928000,1.96992822265625,4.040830218541622,6.501696015694737,-0.6708133949562907
1789454205060868000,1.9798681640625,3.906072204005718,20.78260096900463,5.980356266108155
1789454205070807800,1.989807861328125,-8.029311825686692,16.691474979943035,3.803434836351871
1789454205080748000,1.999748046875,-4.4513574773252005,7.24066144811809,-1.0716768994681536
1789454205090688000,2.00968798828125,6.825712281239032,-1.0373802237212657,-6.389308238399028
1789454205100628000,2.0196279296875,3.8922073447823524,-10.446431420093774,-6.762550599405169
1789454205110568000,2.02956787109375,-1.1812451623637228,-12.489958524882793,-1.6936852008536456
1789454205120509000,2.039509033203125,0.14960026742406188,-7.550573784986138,2.478314944604039
1789454205130449200,2.04944921875,-0.4680324492257088,-3.1154233460962772,0.9745869368083775
1789454205140388900,2.059388916015625,-2.494225045919418,-3.282136587819457,-1.2641304393865167
1789454205150329000,2.0693291015625,-2.507617611455917,-4.72993534925282,-1.2762914173014461
1789454205160269000,2.07926904296875,-1.70064305716753,-2.9492800132155415,-0.553771508244425
1789454205170209000,2.089208984375,-0.17863916877321898,1.5877210268646478,1.6753906886197625
1789454205180149000,2.09914892578125,-0.17619944747090338,3.224330880060792,3.0578482322230935
1789454205190089000,2.1090888671875,-0.8634966519773006,2.7477643381804224,3.0113813723415133
1789454205200029000,2.11902880859375,-0.34281047092862427,4.198971446752548,2.294861580482125
1789454205209970000,2.128969970703125,-1.389806006669998,4.299587537711859,1.1086151757650076
1789454205219910000,2.138909912109375,-0.3519967073490843,1.7965747897028923,0.7416271989785135
1789454205229850000,2.14885009765625,4.7141935902416705,7.800987054181099,1.626512822073698
1789454205239790000,2.1587900390625,-4.438160142099857,1.0461252557128666,-0.06335618149265647
1789454205249730000,2.16872998046875,-1.52259067530632,-6.384913802832365,-0.6095369423471391
1789454205259670000,2.178669921875,1.480454830366373,-1.9740449877619741,2.098958923023194
1789454205269610000,2.18860986328125,-1.6224316902399063,-0.10365034408867359,0.4986730136178434
1789454205279550000,2.198550048828125,0.2955646990964189,0.9257283594846725,0.41545886996686454
1789454205289491000,2.208490966796875,0.1549498117584735,-0.42109132289588447,0.17802885485514996
1789454205299431200,2.21843115234375,-0.16542429789118468,-0.9031447717547416,-0.24800080122575163
1789454205309371000,2.228370849609375,-0.4462812571993097,-0.6526385635793208,0.015292700069397687
1789454205319310800,2.238310791015625,-0.8783248032748698,-0.2064846956193447,-0.16087079930528997
1789454205329251000,2.2482509765625,-0.9913584772586822,8.363652501368522,0.8012916863463818
1789454205339191000,2.25819091796875,-1.7578981453061102,29.847181725347042,4.846732175162434
1789454205349131000,2.268131103515625,1.087561427950859,16.994710907787084,2.564625739096105
1789454205359071000,2.278071044921875,-0.8193371922552585,-1.230219255825877,-0.7068298071678727
1789454205369012200,2.28801220703125,0.6666577365815639,-11.324012711524963,-1.9312652919605373
1789454205378952000,2.297951904296875,1.7230150479733943,-15.449109943771361,-3.894584010785818
1789454205388892000,2.307891845703125,0.14864389828098937,-5.316538721388578,-0.6572257452391088
1789454205398832000,2.31783203125,-0.39362288573384285,-0.07663783400058746,0.8343274022467434
1789454205408772000,2.327772216796875,0.08062193520069122,-4.463582752647996,-2.4575641252592204
1789454205418711800,2.3377119140625,0.4158545912861824,-5.384266688224673,-2.0708640245258807
1789454205428652000,2.347652099609375,-0.20068214682042598,-1.704383997261524,-1.2876857947580516
1789454205438592000,2.357592041015625,-0.5680675984919071,3.0303198815673587,-2.1831974412858486
1789454205448533000,2.367532958984375,1.1225157638888805,5.084198869022726,-1.2739148974284529
1789454205458473000,2.377472900390625,-0.4344628456443548,2.589647075366974,-0.5513806675851345
1789454205468413200,2.3874130859375,0.9247148715931922,-0.687417031493783,0.6037187575876712
1789454205478353000,2.397352783203125,-0.2552887662768364,-2.637961901202798,0.2928716240875423
1789454205488292900,2.40729296875,-0.055780996998026966,-5.123508550626039,-2.448217620243132
1789454205498233000,2.417233154296875,1.3901257401436566,-4.560922598415613,-2.480516254040599
1789454205508173000,2.427173095703125,0.5534837773442268,-3.898901289463043,-2.5522078638106582
1789454205518113000,2.437113037109375,0.15959208460636437,-5.173001188069581,-3.7589831156849858
1789454205528054000,2.447053955078125,-0.6678162589669228,-5.379678775912523,-5.740723918646574
1789454205537994000,2.456993896484375,-0.8914736231833695,-1.5232295577317476,-4.711253152875602
1789454205547934000,2.466933837890625,-0.5725251624226569,-0.9903653745681047,-3.984339100512862
1789454205557874000,2.4768740234375,3.0303228041768073,-1.021530912682414,-3.3577649525165554
1789454205567814100,2.486814208984375,3.1662533696234223,-0.014281623330712317,-0.35951815236248075
1789454205577754000,2.496754150390625,-0.11892273202240466,2.0968086131215093,2.6646505861639973
1789454205587693800,2.50669384765625,0.08769581910967826,6.779118287846446,3.628007250036299
1789454205597634000,2.516634033203125,-0.1874351272344589,9.548187864384055,2.4715590406030414
1789454205607575000,2.526574951171875,-1.2733973032951353,4.500602862009406,1.5791250479549168
1789454205617515000,2.536514892578125,1.1340087063491344,1.7793308094352482,3.8435754158213733
1789454205627455000,2.546455078125,-0.16979659469127653,0.5453489862054586,3.1748531479254365
1789454205637395500,2.5563955078125,-1.9373557177901266,-2.600903797918558,-0.11840170382298529
1789454205647335200,2.566335205078125,-0.4291641547143459,-2.63616683447957,-0.4084355837339535
1789454205657275400,2.576275390625,-0.2662286779642105,-2.509266547706723,0.13445347863137722
1789454205667215400,2.58621533203125,-0.16983634217977522,-0.4287818773984909,1.5310470996148884
1789454205677155600,2.596155517578125,-0.45785015097260473,0.4630488886594772,1.2505378212332725
1789454205687096300,2.606096435546875,-0.3262988235235214,0.40579496956467626,0.31081871112324294
1789454205697036500,2.61603662109375,-0.35755788514018055,0.09123042297661305,0.21026162034217266
1789454205706976500,2.6259765625,-0.35247838991880415,0.15924363649487494,0.4168948941193521
1789454205716916200,2.635916259765625,-0.611841273766756,0.3483019810169935,0.5578495348056778
1789454205726856400,2.6458564453125,-0.6811304985702037,0.688239453792572,0.8401611499015241
1789454205736796400,2.65579638671875,-0.8026853326618671,0.8127847018718719,0.8498246849775314
1789454205746736400,2.665736328125,-0.7775158200919627,0.6503419770747423,1.156248741338402
1789454205756677400,2.675677490234375,-0.8741746978580951,0.4463707255810499,1.3489697000212966
1789454205766617300,2.685617431640625,-0.9443570721089839,0.4278086484521627,1.2723565620705484
1789454205776557600,2.6955576171875,-1.0789210253775119,0.39424072537124155,0.9992242421977221
1789454205786497300,2.705497314453125,-0.924451763677597,0.3890852423042059,0.8449255147591233
1789454205796437500,2.7154375,-0.7838941229522228,0.15665245095789432,0.5824271824296563
1789454205806377500,2.72537744140625,-0.9463947154164314,-0.09993804556727409,0.407723563007079
1789454205816317400,2.7353173828125,-0.7975672589957714,-0.022456746479868887,0.7102828702311963
1789454205826258400,2.745258544921875,-0.9462988538265228,-0.06931845089793205,0.38059634049814195
1789454205836198400,2.755198486328125,-0.5579658911943436,0.08190262266099453,0.5654327564762905
1789454205846138400,2.765138427734375,-0.5115852482914924,0.2785597517490387,0.676522566383332
1789454205856078300,2.775078369140625,-0.5071475581049919,0.46940907134115695,0.5994217545134947
1789454205866018300,2.785018310546875,-0.4490577727079391,0.48788931540548797,0.6089744861587881
1789454205875958500,2.79495849609375,-0.318089798104763,0.2064981396228075,0.6363575100596994
1789454205885898200,2.804898193359375,-0.2853331914067268,-0.047347442108392715,0.5864447109753266
1789454205895839500,2.814839599609375,-0.36817280265688895,-0.18804536808729172,0.5208185021914541
1789454205905779500,2.824779541015625,-0.9490683185398578,-0.20227789157927034,0.39830801134277133
1789454205915719200,2.83471923828125,-0.8971136748969555,-0.1122638586550951,0.41271413783598687
1789454205925659400,2.844659423828125,-0.4077192156255245,0.0395662867128849,0.35727545146960765
1789454205935599400,2.854599365234375,-0.5800421139240265,0.06100128892958164,-0.16235194124113767
1789454205945539600,2.86453955078125,-0.7191162380933761,0.18909341583549974,-0.3461387751011178
1789454205955479300,2.874479248046875,-0.676031129604578,0.2753378670930862,-0.3755930888507515
1789454205965420500,2.884420654296875,-0.6014660102248192,0.22352467774748802,-0.48501211600136007
1789454205975360500,2.894360595703125,-0.9300620047748088,-0.027234043884277342,-0.8199506479784846
1789454205985300200,2.90430029296875,-0.9297206439912319,-0.3639478784382343,-1.115024750546366
1789454205995240400,2.914240478515625,-0.9164040663003921,-0.35708500693142414,-1.260185208892077
1789454206005180400,2.924180419921875,-0.8735667950928211,-0.20272212821543215,-1.2418357516005634
1789454206015120400,2.934120361328125,-1.1119961965054272,0.05236030183434486,-1.1660728738036006
1789454206025060400,2.944060302734375,-1.2174094586133957,0.18108663499057293,-1.0306836486920714
1789454206035001300,2.95400146484375,-1.0939894151717424,0.2976993365049362,-0.6459912345193326
1789454206044941300,2.96394140625,-1.36236854916811,0.3817939162522554,-0.2941659382143989
1789454206054881300,2.97388134765625,-1.0999684895813464,0.5419131665378809,-0.12035882924012839
1789454206064821500,2.983821533203125,-1.2033920391768216,0.33629999305605884,-0.0522113583503291
1789454206074761500,2.993761474609375,-0.949535936051607,0.16023381657600402,-0.11150949662383645
1789454206084701200,3.003701171875,-0.8533756554573774,0.10917173785865306,0.1809946458581835
1789454206094641400,3.013641357421875,-1.0858294895917178,0.19074352113008497,0.5602483395757153
1789454206104582400,3.02358251953125,-1.2504518965154885,0.05958557691276073,0.5497643549622967
1789454206114522400,3.0335224609375,-0.2525713240116835,0.3874123406559229,0.5746075216546654
1789454206124462300,3.04346240234375,-0.7313532038539647,0.642529842019081,0.7226081718623638
1789454206134402300,3.05340234375,-0.8439356269389391,0.46200084091126914,0.5119796179039403
1789454206144342500,3.063342529296875,-0.9233394185215235,0.31714637977480886,0.4728455120632425
1789454206154282200,3.0732822265625,-1.1235527787864208,0.2878781997144222,0.4295460667040199
1789454206164223500,3.083223388671875,-1.0415157160907984,0.3007663228601217,0.4088236697360873
1789454206174163500,3.09316357421875,-1.000616719469428,0.35423312463164325,0.7335653269454836
1789454206184103400,3.103103515625,-1.217449790623784,0.39485914953053,1.0051909685824065
1789454206194043400,3.11304345703125,-1.1965297521919012,0.2384440144598484,0.9890857100211083
1789454206203983400,3.1229833984375,-1.029727663141489,0.4038736461132765,1.183578719877824
1789454206213923300,3.13292333984375,-1.2944593805462121,0.5997492694348097,1.2663373017810284
1789454206223863300,3.14286328125,-1.4952029021650552,0.6114490595787764,1.275161536488682
1789454206233804500,3.152804443359375,-1.5139181240290402,0.5937053130954504,1.2623568538427352
1789454206243744300,3.162744140625,-1.4560171392023562,0.47979894793033595,1.1422915276564658
1789454206253684200,3.172684326171875,-1.5962328346222638,0.41315351563394065,1.0193958734150976
1789454206263624400,3.18262451171875,-1.7072627675682306,0.4793664017319679,1.0847701897971331
1789454206273564400,3.192564453125,-1.7178583958625793,0.5685130041718482,1.1052170577593148
1789454206283504400,3.20250439453125,-1.7135200743973253,0.5680161605656147,0.9982291667457669
1789454206293445400,3.2124453125,-1.6810761869102715,0.4335737878501415,0.950368002961576
1789454206303385600,3.222385498046875,-1.5410715038925409,0.39749651229679583,1.0676757740680127
1789454206313325300,3.2323251953125,-1.726187832790613,0.3951110784649849,1.0593509402498602
1789454206323265300,3.242265380859375,-1.838563919648528,0.27306758407354353,0.9039123220611364
1789454206333205500,3.25220556640625,-1.7304712091982364,0.22954116155803203,0.9240212633058428
1789454206343145500,3.2621455078125,-1.632846116748452,0.2639320914596319,1.0004692738227545
1789454206353085200,3.272085205078125,-1.5792746855586766,0.18885902255773543,1.0026651764318346
1789454206363026400,3.2820263671875,-1.6794250587023793,0.10045651648342609,1.0822091071374713
1789454206372966400,3.29196630859375,-1.7317565728336572,0.12478782466351986,1.1953753214597702
1789454206382906400,3.30190625,-1.9554069227874278,0.17820961824953555,1.1639217601843177
1789454206392846300,3.311846435546875,-1.8394395334392786,0.13868775520026683,1.139678787874803
1789454206402786600,3.32178662109375,-1.7220669534683226,-0.0656733723938465,1.229994653289765
1789454206412726500,3.3317265625,-1.8351270770676433,-0.23624445858895776,1.3699771244756878
1789454206422667500,3.34166748046875,-1.8058201724320648,-0.18157412624657154,1.7590848708726465
1789454206432607500,3.351607421875,-1.8805946967788039,-0.13610299940407275,1.9770169893100857
1789454206442547200,3.361547119140625,-2.246739062348008,-0.1890963384449482,2.0622810512281955
1789454206452487400,3.3714873046875,-1.873814096727967,-0.014478607207536697,2.436362493406981
1789454206462427400,3.381427490234375,-1.7130787603706121,0.6004752456218004,2.641741419741511
1789454206472367400,3.391367431640625,-2.1664469436235723,1.401758894792199,2.7467256427824496
1789454206482308400,3.401308349609375,-1.4173399102836846,1.9694599980592726,2.765964303998649
1789454206492248300,3.411248291015625,-1.3136042259991167,1.9013041611999273,2.255056078185886
1789454206502188500,3.4211884765625,-1.4633499663084744,1.1833774251520632,1.7702141676522791
1789454206512128300,3.431128173828125,-2.018799490767717,0.3103998281240463,1.7766252037383614
1789454206522068500,3.441068359375,-2.071656051686406,-0.46231531368792056,2.265048479890078
1789454206532008400,3.451008544921875,-1.8015888184726236,-1.2561287731081248,2.5907623431324955
1789454206541949200,3.46094921875,-1.9342109900236129,-1.8973072005182503,2.62564836307466
1789454206551889400,3.470889404296875,-2.6518957340091465,-2.272985264238715,2.6696117157027124
1789454206561829400,3.480829345703125,-2.873435375419259,-2.2304455146729945,3.2129864792257545
1789454206571769600,3.49076953125,-3.0340882941901683,-1.8703741854071616,3.8794893175065517
1789454206581709300,3.500709228515625,-2.8652783724486826,-1.7231921581059693,4.121240556818247
1789454206591649300,3.510649169921875,-2.5496985113382338,-1.954215082654357,4.132172869721055
1789454206601590300,3.52059033203125,-2.597470900860429,-2.526178519541025,3.8769270658031103
1789454206611530200,3.5305302734375,-2.1474290855512024,-3.970716233351826,3.6910853452399373
1789454206621470500,3.540470458984375,-1.7500369104117155,-5.140531581619381,4.212347645676136
1789454206631410400,3.550410400390625,-1.7525310653150081,-6.062759239506721,4.536600058063865
1789454206641350700,3.5603505859375,-1.879562284991145,-6.869509337389469,4.198163929761946
1789454206651290600,3.57029052734375,-1.9425132466837762,-7.35349346204996,3.6536879269987343
1789454206661231900,3.58023193359375,-2.263172895276546,-7.484605813559889,3.070786331990361
1789454206671171600,3.590171630859375,-2.7003943919792768,-7.249495327436923,2.550417473262548
1789454206681111800,3.60011181640625,-2.8370778216198085,-6.768487003716826,1.534961496579647
1789454206691051800,3.6100517578125,-2.70501386847347,-6.432977868777513,0.0767035927131772
1789454206700991700,3.61999169921875,-2.694297536408901,-5.916642795610428,-1.1371356061980127
1789454206710931700,3.629931640625,-2.9209996751487255,-4.635881101027131,-1.7851695985913276
1789454206720873000,3.639873046875,-3.1660423572212455,-2.6358272272616623,-1.9636451743006704
1789454206730812700,3.649812744140625,-3.0782232039928434,-1.0905839906424284,-1.5637676120862365
1789454206740752600,3.659752685546875,-2.5248750357270238,-0.38554888487160205,-0.8755129607245326
1789454206750692900,3.66969287109375,-2.0680054202243685,-0.07418225754201412,0.05434504591077566
1789454206760632800,3.6796328125,-1.0916399294361472,-0.09626724810004234,0.9599678982168436
1789454206770572500,3.689572509765625,0.28758126259446143,-0.593694791701436,1.305069329626858
1789454206780513800,3.699513671875,1.461759336116165,-1.57352415920794,1.1201850559189914
1789454206790453800,3.709453857421875,1.5885088162414729,-2.9427877285867927,0.5362453500345349
1789454206800393700,3.719393798828125,0.9579150573402643,-3.74362655659914,-0.07698927778676151
1789454206810333700,3.729333740234375,0.7327071026809513,-4.104311633849144,-0.8950538197576999
1789454206820274000,3.73927392578125,0.4213163638234138,-3.649658233091235,-1.3924660196594894
1789454206830214000,3.7492138671875,-0.06685819826424122,-2.76509541220963,-1.3173532032690942
1789454206840154600,3.759154541015625,-1.1440263155598194,-2.143574455949664,-1.117025568974763
1789454206850094800,3.7690947265625,-2.059710762348771,-2.22948397616446,-1.2950858418814837
1789454206860034800,3.779034912109375,-1.9047160154700278,-2.707179229813814,-1.4723630015864968
1789454206869974800,3.788974853515625,-1.103387942636013,-3.126057552835345,-1.5697677292838692
1789454206879914800,3.798914794921875,-0.168195589235425,-3.1291379831939934,-1.2373024920850992
1789454206889854700,3.808854736328125,0.4616998121380806,-2.683717105683684,-0.6930198930021375
1789454206899795700,3.818795654296875,0.7243371876120567,-2.0576918237417936,-0.1842069224355742
1789454206909735700,3.828735595703125,0.5701812296450137,-1.8628373601615429,0.027409747511055318
1789454206919676000,3.838676025390625,0.031274186120554805,-1.6928016960173844,0.1837311764162965
1789454206929615600,3.84861572265625,-0.7906909434854984,-1.6981950794935226,0.10966841706810518
1789454206939555600,3.8585556640625,-1.3915269852437078,-2.081389510193467,-0.4503856603108346
1789454206949495800,3.868495849609375,-1.0780547639369964,-2.3007038767695427,-1.2802207195743918
1789454206959436500,3.8784365234375,0.06398527317643166,-2.176726783967018,-2.3005624224722383
1789454206969376800,3.888376708984375,1.1771288861513136,-1.7686211993724106,-3.136582453981042
1789454206979316700,3.898316650390625,1.9090005609214304,-1.2933049498140812,-3.603426058748364
1789454206989257000,3.908257080078125,2.3350945144101978,-1.0514946737915276,-3.765159758493304
1789454206999196700,3.91819677734375,2.635527659793198,-0.7539420522809028,-2.9023715470463034
1789454207009138000,3.928137939453125,2.157425871169567,-0.5909317567288875,-1.3094842234596609
1789454207019078000,3.938077880859375,1.0059010896131395,-1.0103431637138127,-0.33171602626666424
1789454207029017600,3.948017578125,0.4484364259392023,-1.5285913770258426,-0.32486060741394757
1789454207038957800,3.957957763671875,0.4684253210008144,-1.017718660917878,-1.3738346766866742
1789454207048897800,3.967897705078125,0.5066974762499332,2.6663404389470813,-4.221675445991754
1789454207058837800,3.977837646484375,2.562310740152001,3.512712353122234,-5.329654223549365
1789454207068778800,3.98777880859375,3.294169555440545,4.836135377824307,-5.417428368592262
1789454207078718700,3.99771875,2.875367804786563,1.9025030155956744,-3.2934967707455156
1789454207088658700,4.00765869140625,2.3262451452612876,-1.1198679527938364,-2.4587761313974856
1789454207098598700,4.0175986328125,2.193762089920044,-1.3619699052393435,-0.8776131478741764
1789454207108539000,4.027538818359375,0.5149070861905813,1.7223410942345856,-1.2775552997574209
1789454207118479600,4.037479736328125,1.7096119610428808,2.5668770251542328,-1.4749327059440314
1789454207128419800,4.047419921875,3.012607114744186,1.4119465268075466,-1.8960580772399902
1789454207138359800,4.05735986328125,4.152060057973862,1.045278283494711,-1.3106744561575352
1789454207148299800,4.0672998046875,4.008405620276927,0.8111088776141404,-1.1413842035531998
1789454207158239700,4.07723974609375,3.9942707119405267,1.9083435583174229,-1.6141341097548603
1789454207168179700,4.0871796875,5.038574012923241,1.4050970993041991,-1.4256250696785746
1789454207178121000,4.097120849609375,4.333556442809105,1.041434467548132,-1.3325135091304778
1789454207188060700,4.107060791015625,3.9809401057243345,1.196891571241617,-1.8326653631292282
1789454207198000600,4.117000732421875,4.2432185847580435,1.1991028175503016,-2.5527073377653955
1789454207207940900,4.12694091796875,4.709513907992839,1.1806079604387283,-3.4152392363637682
1789454207217880800,4.136880859375,5.094324541717768,1.3205425008296965,-3.850237796320021
1789454207227821800,4.14682177734375,5.109810864663124,1.6746850245684384,-2.8343583335280416
1789454207237761800,4.15676171875,4.575682360652089,1.491810921639204,-1.5779871299661694
1789454207247701800,4.16670166015625,3.2054040612727404,1.079978425475955,-0.6061641049131751
1789454207257641700,4.176641845703125,1.8177742295980452,0.7063982108175754,0.2477535484664142
1789454207267581700,4.186581787109375,1.2772709298580884,0.4885463180094957,0.5861280097089707
1789454207277522000,4.19652197265625,0.32927170185446736,0.17532909437716007,1.4490306413158773
1789454207287462700,4.206462646484375,-1.8740800541877745,0.2935381251722574,2.771300404329598
1789454207297403000,4.21640283203125,-3.8326007250815626,-0.6484703379839658,2.2656679269626734
1789454207307342800,4.2263427734375,-3.4378929667204616,-1.6323381672263144,0.47633434055969115
1789454207317282600,4.236282470703125,-3.9546132398128506,-0.66317749325037,-0.3811488963469863
1789454207327222800,4.246222900390625,-1.0429957255154847,0.06174889242649078,3.123872317750752
1789454207337163800,4.256163818359375,0.2842933269649744,-0.03037204964905977,4.352430654627084
1789454207347103700,4.266103759765625,-0.5051958395153284,-1.354910049855709,0.91814243440032
1789454207357043700,4.276043701171875,0.8344634497165679,-1.6831600074470041,-1.3616481259390711
1789454207366983700,4.285983642578125,3.0784394770920276,-0.41818332649469375,-2.831973776479065
1789454207376924000,4.295923828125,3.1833535575062033,0.3057558017104864,-2.979020486962795
1789454207386864600,4.30586474609375,1.8783230985850095,0.26161943060308696,-2.727148251131177
1789454207396804900,4.315804931640625,1.3422311855465172,-0.37206279583275315,-2.290822534224391
1789454207406744800,4.325744873046875,1.8466531180799006,-1.042422601802647,-1.5366960652872919
1789454207416684800,4.335684814453125,1.7382757454693316,-1.998571818514168,-1.6192425388097762
1789454207426624800,4.345624755859375,2.7209306917905804,-0.6405038891494274,-1.3718167609930039
1789454207436564700,4.355564697265625,-2.3734710068166254,1.015337318739295,-1.1525620156496763
1789454207446505700,4.365505615234375,-1.4781296022891997,1.5135937143802642,-0.16511545113772153
1789454207456445700,4.37544580078125,2.920979801404476,0.67891808321774,0.4557350585147738
1789454207466386000,4.385385986328125,-0.401336236590147,-1.4938766219973563,-1.4219357136413455
1789454207476325600,4.39532568359375,-1.6237866119801998,-1.1631319249808787,-2.6485405783623457
1789454207486265600,4.405265625,-1.8282956236124037,1.0831447805523873,-1.2892217721536754
1789454207496206800,4.415206787109375,-1.4510112937390804,2.249465272441506,-0.9152806152284145
1789454207506146600,4.425146484375,0.27027006230950357,2.4000965634137392,-0.4072060054063797
1789454207516086800,4.435086669921875,-3.459904892042279,2.186059844979644,-1.7860212469846009
1789454207526026800,4.44502685546875,-2.227149395737052,2.4408108511179685,-0.8416083530351519
1789454207535967000,4.454967041015625,-1.568856167396903,2.8715134674459692,1.0265507866710424
1789454207545907700,4.46490771484375,-1.0090887797385453,1.8351240083277225,0.6711845663562417
1789454207555847700,4.47484765625,-0.5956593697726726,1.5188748696535825,-0.16788403906822202
1789454207565788000,4.484787841796875,1.059877302211523,1.8153584006279706,-0.6204205938026308
1789454207575727600,4.4947275390625,1.4780495227903128,2.203707729873061,-0.7579743765369057
1789454207585667800,4.504667724609375,0.9880138430058956,2.3112691099256275,-1.0180921704053878
1789454207595608800,4.51460888671875,1.1459990038722754,2.356692305973172,-0.6556620030537247
1789454207605548800,4.524548828125,1.388364575690031,2.012906925597787,0.04659925408959389
1789454207615488800,4.53448876953125,0.7746662758797407,1.6954197695612907,0.5584799781963229
1789454207625428700,4.5444287109375,0.2567214294284582,1.5849170753598212,1.4419772156730293
1789454207635368700,4.55436865234375,-0.1948515409708023,1.3415180688410997,2.318433594727516
1789454207645308400,4.564308349609375,-0.9410083462029695,1.101627362704277,3.035469227154553
1789454207655249400,4.57424951171875,-1.0943927352756262,0.9635527709662913,2.795041345401108
1789454207665189600,4.584189697265625,-1.9332342539459466,1.0407821411192417,2.624043558226526
1789454207675129300,4.59412939453125,-2.17041920825541,0.9236176509410142,2.376101939842105
1789454207685069300,4.6040693359375,-2.2860984283119437,0.5329951160669326,1.6063804268881678
1789454207695009500,4.614009521484375,-2.3578531664460898,0.29752222637236114,1.3404165373399852
1789454207704950300,4.6239501953125,-1.3592711676746605,0.1420306358873844,1.017597372625768
1789454207714890500,4.633890380859375,-1.858825201910734,0.20701894862651823,0.6736857355222106
1789454207724830500,4.64383056640625,-1.9625188006192444,0.4448106366574764,0.7286977209091187
1789454207734770200,4.653770263671875,-1.3471692264705895,0.5513567021876573,0.21501929973065853
1789454207744710400,4.66371044921875,-0.9748755444914102,0.49369478681385515,-0.6591299714252352
1789454207754651400,4.6736513671875,-0.6697130324989556,0.3011936083614826,-1.2430746457457542
1789454207764591400,4.68359130859375,-0.6972621336817741,0.12287234643101691,-1.445148246924579
1789454207774531300,4.69353125,-0.5612000508099794,0.2281651970297098,-1.1774892438963054
1789454207784471300,4.70347119140625,-0.03216156341433525,0.4852040218442678,-1.0187360212668777
1789454207794411500,4.71341162109375,-0.5239326886892318,0.8729559697180986,-0.7206704817980527
1789454207804352300,4.723352294921875,-1.8048814302772282,1.208124912917614,-0.3946031289428472
1789454207814292500,4.73329248046875,-1.9258833066612482,1.3904764532774685,1.0080851556539534
1789454207824232400,4.743232421875,-0.6773194158494472,1.2393389663487673,2.0300041908711193
1789454207834172400,4.75317236328125,-2.7991350444555283,0.8250275128513574,1.256527124775946
1789454207844112400,4.7631123046875,-1.477453894984722,0.7503232772618532,0.5869777584061027
1789454207854053400,4.773053466796875,0.10712181959152221,1.0631640687972306,0.4780722702682018
1789454207863993300,4.782993408203125,-0.05160159242153167,1.2479980736225842,0.7569207758307457
1789454207873933300,4.792933349609375,-0.7613485291451215,1.3446294788599014,1.2990098834574222
1789454207883873500,4.80287353515625,-0.5811211413323879,1.2832599411398171,1.592233828113973
1789454207893813200,4.812813232421875,0.30769349177479743,1.1729495546400546,0.8909574903547763
1789454207903754500,4.82275439453125,0.6003022271424532,1.0683826802283525,-0.4095692274063825
1789454207913694500,4.832694580078125,0.10720715978741645,1.0175310293912887,-1.0263809830620885
1789454207923634200,4.84263427734375,-0.9925988327085972,1.0014923332601786,-0.8363336275026202
1789454207933574400,4.852574462890625,-1.6417957314014433,0.6556406680047512,-0.6959332231655716
1789454207943514400,4.862514404296875,-1.803843319401145,0.13488660935163496,-0.805777745719254
1789454207953454600,4.87245458984375,-1.6632675584971903,0.10540624784529208,-0.5018307469964027
1789454207963395300,4.882395263671875,-1.1486094786316157,0.6465852548897266,0.022841654144227504
1789454207973335600,4.89233544921875,-0.38725685783326624,1.1477514004975558,-0.20667115810215472
1789454207983275500,4.902275634765625,-0.2638859142303467,1.7182698992729186,-0.5492158907666802
1789454207993215200,4.91221533203125,-0.43326223768293853,2.3359476241081953,-0.3106406511425972
1789454208003155500,4.922155517578125,-0.16346797619163989,2.605072608035803,0.27721096748858687
1789454208013096400,4.932096435546875,0.0070148471981286995,2.5547160472393036,0.7913727882698178
1789454208023036400,4.942036376953125,0.014115619114041328,2.6117273897498845,1.2238649183630943
1789454208032976400,4.951976318359375,-0.28986498961746693,2.595018247011304,1.3967261613219975
1789454208042916400,4.961916259765625,-1.0484519450947642,2.5445816067159175,1.0180369330868124
1789454208052856300,4.971856201171875,-1.3262889355272054,2.286508762678504,0.18406623532325028
1789454208062797300,4.98179736328125,-1.7408225073426962,1.8795061708897352,-0.42444764758646486
1789454208072737500,4.991737548828125,-2.32797533005476,1.3686018905997275,0.05781009167283773
1789454208082677200,5.00167724609375,-2.193897698998451,0.49551849510967727,0.7144099600985646
1789454208092617200,5.0116171875,-1.3977180949687957,-0.3965168536096811,0.49551820284873244
1789454208102557400,5.021557373046875,-0.7007067211776972,-0.47687224682867524,-0.32535540519356726
1789454208112498200,5.031498291015625,-0.22248364426195621,-0.29701369232833386,-1.0940005210876464
1789454208122438400,5.0414384765625,-1.046113565275073,0.13967910432517527,-1.045655007852614
1789454208132378400,5.05137841796875,-1.1523074563667177,0.3697077571392059,-0.474962906076014
1789454208142318600,5.061318603515625,-0.6241553964167833,0.19005670790970325,-0.21505612460970877
1789454208152258300,5.07125830078125,0.1398532918483019,-0.10520283422768116,-0.4179416266933083
1789454208162199600,5.081199462890625,1.0979288004472851,-0.058003276157379144,-0.8663266147062182
1789454208172139500,5.091139404296875,0.5949994445592165,0.3438438325643539,-1.0583996308743953
1789454208182079200,5.101079345703125,-0.4037415441662073,0.8564999249577522,-0.37251112412214277
1789454208192019500,5.11101953125,-0.5256693032234907,0.7658370727360249,0.04763151974678039
1789454208201959400,5.12095947265625,-0.43766310299038885,0.12902736192941666,-0.362941331744194
1789454208211900400,5.130900390625,-0.9584773673981427,-0.18439561340808866,-0.23880437220484016
1789454208221840400,5.14084033203125,-0.8192495139718056,0.25337328804433346,0.6785211928546429
1789454208231780400,5.1507802734375,-0.5961369241565465,1.040753499546647,1.081649573558569
1789454208241720300,5.16072021484375,-1.295929453098774,1.7603408622831105,0.5766913421913981
1789454208251660300,5.170660400390625,-2.416548516520858,2.1936194665789603,-0.27506664893627164
1789454208261601500,5.1806015625,-2.6706720384106037,1.7861778988510368,-0.4640139342993498
1789454208271541200,5.190541259765625,-2.3887860648483037,0.572405919957161,0.2631178524672985
1789454208281481500,5.2004814453125,-1.3330603293582797,-0.8735521820455789,1.6513158394187688
1789454208291421400,5.21042138671875,-0.7636907083570956,-1.0450988352745771,2.4685075440779327
1789454208301361400,5.220361328125,-0.6625929713606834,-0.006548398730158805,2.466748425450921
1789454208311302400,5.230302490234375,-0.7345484927639365,1.1210948642402887,1.6428648219376802
1789454208321242400,5.240242431640625,-0.7718670005500317,1.7194658310592172,0.22892945940047502
1789454208331182600,5.2501826171875,-1.2105807816371321,1.3940496355891228,-0.7970806445226073
1789454208341122300,5.260122314453125,-1.9642507389783859,0.18456278666853904,-0.7323755326390265
1789454208351062300,5.270062255859375,-2.4728663238093254,-1.1190841089397667,0.7911722972616553
1789454208361003500,5.28000341796875,-1.7388453620508313,-2.1407623211383817,2.3361834786906837
1789454208370943200,5.289943115234375,-1.3758145984575152,-1.9429232887893915,2.445994975757599
1789454208380883500,5.299883544921875,-1.5848139072462915,-1.2443459808558226,1.147881164357066
1789454208390823400,5.309823486328125,-1.3291139298200607,-0.5082148950755596,-0.8380638122960925
1789454208400763400,5.319763427734375,-1.5908268839254975,0.08318272559940815,-1.6770011925563215
1789454208410704400,5.329704345703125,-2.0907155569434166,-0.016422727012634277,-1.7070143457651137
1789454208420644400,5.339644287109375,-1.67590346044749,-0.8017121037155389,-0.5833543072119355
1789454208430584300,5.349584228515625,-0.5934565990313887,-1.772917435261607,0.6390662575617432
1789454208440524300,5.359524169921875,-0.3303624197006225,-2.0339970598995682,0.9712848265230655
1789454208450464500,5.369464599609375,0.3480830775693059,-1.6698492749750613,-0.04757832825481891
1789454208460405200,5.3794052734375,-0.09772007725685834,-0.7809048780083656,-1.432464414179325
1789454208470345500,5.389345458984375,-1.0853072192832827,0.039727614754438395,-1.4850953496485948
1789454208480285400,5.399285400390625,-1.3645704431265593,-0.0729676210552454,-0.7443196529328823
1789454208490225400,5.409225341796875,-0.6948892670705914,-0.46235096952319144,0.0002624503284692764
1789454208500165400,5.419165283203125,0.43441257676184175,-0.38579087693393227,-0.7050611169949174
1789454208510106400,5.4291064453125,0.14310849425196648,-0.006202946293354034,-1.5162074040099978
1789454208520046600,5.439046630859375,-0.3831272106826305,0.4559826035350561,-1.3113856731668114
1789454208529986300,5.448986328125,0.054253568235039705,0.893559781807661,-0.9917249724835157
1789454208539926300,5.45892626953125,0.2473173490062356,1.5962316655784845,-1.0042083142206073
1789454208549866500,5.468866455078125,-0.5010618084505201,2.2604998766750097,-1.280280048546195
1789454208559807200,5.47880712890625,-0.8803986869394779,2.539143799576163,-1.2853247647151351
1789454208569747500,5.48874755859375,-0.7465911049962043,1.634977868080139,-0.7278653617382049
1789454208579687400,5.4986875,-0.4650125899478793,0.3376134137421846,-0.22074439937919377
1789454208589627400,5.50862744140625,-0.30822306860685345,-0.7165513560414314,-0.18763883311301469
1789454208599567400,5.5185673828125,-0.2134185865357518,-1.327760761645436,-0.673556994576007
1789454208609507300,5.52850732421875,-0.7809972324669361,-1.6344716721236705,-1.2457972025774418
1789454208619448300,5.5384482421875,-1.4350292962312698,-1.4304729481011629,-0.6708418903984129
1789454208629388300,5.54838818359375,-1.3795266047179697,-0.7817156098693608,0.7752135344989597
1789454208639328500,5.55832861328125,-0.45611587452590463,0.3450461940914392,1.1038663738027215
1789454208649268700,5.568268798828125,-0.16691519403606653,0.2222270391523838,-0.130521546009928
1789454208659209500,5.57820947265625,-0.6840417098417878,0.284439457437396,-0.3588629763893783
1789454208669149700,5.588149658203125,-0.8387444880366325,0.8623644330769776,0.2792180695272982
1789454208679089700,5.598089599609375,-0.5348559415027498,1.2890309257566928,0.6200071906961501
1789454208689029400,5.608029296875,-0.5074944718465209,1.125644782629609,-0.31812048550397154
1789454208698969600,5.617969482421875,-1.1452762425556777,0.22981530232429503,-0.7044456154450773
1789454208708910600,5.62791064453125,-1.5559227438047527,-0.6420774220764637,0.2629047942385077
1789454208718850600,5.6378505859375,-0.9859686009138822,-1.2718553345501422,0.6768821934759617
1789454208728790500,5.64779052734375,-0.3971621657758951,-0.8579173905402422,0.12202829682230949
1789454208738730800,5.657730712890625,-0.43002837032824753,-0.1735971560180187,-0.6971183412969112
1789454208748670500,5.66767041015625,-0.5452738751426339,0.33754502468109127,-1.4348735211476682
1789454208758611500,5.677611572265625,-1.1060764510676264,0.2766653163045645,-1.4937269843935965
1789454208768551700,5.6875517578125,-1.486264101167023,0.04147533520460128,-0.6651575611516833
1789454208778491400,5.697491455078125,-1.266057461926341,0.15884733065366743,0.009381868590414524
1789454208788431600,5.707431640625,-1.084413193053007,0.5518775111913681,0.7860971859544515
1789454208798371600,5.71737158203125,-0.32908845424205063,1.0504816973567008,0.2530260820418596
1789454208808312600,5.7273125,0.28597587322443724,1.1273504175037146,-1.3445280643120407
1789454208818252500,5.73725244140625,-0.1768894755616784,0.7267495094507932,-1.7749165001243352
1789454208828192500,5.747192626953125,-1.3197370296657085,0.033866613766551014,-0.8986930530428886
1789454208838132700,5.7571328125,-1.7833052660241722,-0.5578963330894708,0.49039632979035375
1789454208848072400,5.767072509765625,-1.3856789898678659,-1.06476916590631,0.22788462652266026
1789454208858013700,5.777013671875,-1.4592954302206635,-1.337125386840105,0.04442191005051136
1789454208867953700,5.78695361328125,-0.6984039971932768,-1.4258388585597277,0.2069330239087343
1789454208877893400,5.796893310546875,-0.27835750717520713,-1.1076824249595403,-0.06118716689050197
1789454208887833600,5.80683349609375,-0.4470364960134029,-1.0830600248783826,-0.6839154531136155
1789454208897773600,5.816773681640625,-0.7873369568824767,-1.0255915862500666,-0.31837562930881974
1789454208907714600,5.826714599609375,-0.8166919384434819,-0.693914576819539,1.2447323498249052
1789454208917654500,5.836654541015625,-0.4071136509478092,-0.04842997664809227,1.8360042982935905
1789454208927594800,5.8465947265625,-0.20313567745238542,0.35025486865043637,0.9822618553504348
1789454208937534500,5.856534423828125,-0.12259995923042297,0.21283961760401723,-0.07060469131618738
1789454208947474400,5.866474365234375,-0.13163257599174977,0.21828619257211684,0.2325093637138605
1789454208957415700,5.876415771484375,0.09976619613170623,0.3081733842462301,0.43312049112468953
1789454208967355400,5.88635546875,0.32573329859524963,0.12290157252550124,-0.049344168883562085
1789454208977295600,5.896295654296875,0.1511436244085431,-0.2433066520601511,-0.5868418570667505
1789454208987235600,5.906235595703125,-0.1519347747862339,-0.24942250459194182,-0.9007149142593145
1789454208997175600,5.916175537109375,-0.276985049778223,-0.3311480171203613,-0.8912631953030824
1789454209007116500,5.926116455078125,-0.6774591165810823,-0.4256096771031618,-0.2299129174798727
1789454209017056500,5.936056396484375,-0.6351677888184786,-0.18646189828813076,0.3248468711495399
1789454209026996700,5.945996826171875,-0.30013971539437767,-0.06576280424296856,0.17216770773679016
1789454209036936400,5.9559365234375,-0.15562252338826654,0.04391279148459434,-0.06540566136837005
1789454209046876700,5.965876708984375,0.0983949077785015,0.2747907546043396,-0.2829088868692517
1789454209056817400,5.9758173828125,-0.14222791202515364,0.5434574733704328,-0.11305267094522714
1789454209066757400,5.98575732421875,-0.4419558317482471,0.5591852038562297,0.20826047312021254
1789454209076697600,5.995697509765625,-0.8860784861415624,0.6280898132562637,0.4858253686130047
1789454209086637600,6.005637451171875,-1.0196277094095945,0.410873880264163,0.5186486108064651
1789454209096577500,6.01557763671875,-0.8336410274177789,0.5860013145893812,0.41917584466338154
1789454209106518500,6.0255185546875,-1.0230459934204816,0.4731517650008201,-0.1609863885089755
1789454209116458800,6.035458740234375,-1.3322899295076727,0.5662421366304159,-0.23498130678534507
1789454209126398500,6.0453984375,-1.0932122933194042,0.7755500729769468,-0.29132541755884883
1789454209136338400,6.05533837890625,-0.8765604239508509,0.8511690853238105,-0.2810799178764224
1789454209146278700,6.065278564453125,-0.4456640386164188,0.8926298074811696,-0.41456162886619563
1789454209156219400,6.075219482421875,-0.10034574958533048,0.6358896733522414,-0.276237154020369
1789454209166159600,6.08515966796875,-0.21351707847416398,0.32245383853316306,0.11718874783664941
1789454209176099600,6.095099609375,-0.2889803157374263,0.566646625778079,0.23798925642967222
1789454209186039600,6.10503955078125,-0.3748442432448268,0.447040003144741,-0.4821741526290774
1789454209195979500,6.1149794921875,-0.5268915384948253,0.15084581050574777,-1.0450853912711142
1789454209205920500,6.12492041015625,-0.4086874761357903,0.048154082316160196,-0.6671680241912603
1789454209215860500,6.134860595703125,-0.2843447648912668,-0.25820085433125495,-0.36648996413648127
1789454209225800400,6.144800537109375,-0.645756402850151,-0.6053244392186403,-0.2791539182499051
1789454209235740700,6.15474072265625,-0.7326888363718986,-0.47415831169486045,-0.32936201048642394
1789454209245680600,6.1646806640625,-0.6699646691724658,-0.053691258177161215,-0.5491615302309394
1789454209255621600,6.17462158203125,-0.4652268172204494,-0.02738894218504429,-0.9944611194491386
1789454209265561600,6.1845615234375,-0.3436713986068964,0.1853571519166231,-0.6819660726115108
1789454209275501600,6.19450146484375,0.0680921239733696,0.06002922902703285,-0.6294298296883702
1789454209285441500,6.204441650390625,-0.0838683697760105,-0.4106242894172668,-0.9148810945168137
1789454209295381500,6.214381591796875,-0.5518915397167206,-0.404525388020277,-0.7287702016234398
1789454209305322800,6.22432275390625,-0.6981611283481121,-0.2681611073315143,-0.4104857577294111
1789454209315262500,6.234262451171875,-0.9046452394455671,0.07552490432262421,0.09675064770281314
1789454209325202400,6.244202392578125,-0.6912602629184722,0.4606704690903425,0.4317500795543194
1789454209335142700,6.254142578125,-0.28311843796670433,0.5030103121697902,0.7228489948809147
1789454209345083400,6.26408349609375,-0.22243454442322252,0.16519874550700187,0.804158912345767
1789454209355023600,6.274023681640625,-0.9237415695816278,-0.3275894478559494,0.6023191199228167
1789454209364963600,6.283963623046875,-1.6316934395819902,-0.5506494307011366,0.3078977821752429
1789454209374903600,6.293903564453125,-1.8265934958696364,-0.5932488014996051,0.5729673532322049
1789454209384843500,6.303843505859375,-1.0832248600512742,-1.0189712913274764,0.4482303819730878
1789454209394784500,6.313784423828125,-0.44149347493350505,-1.374227913787961,0.18048194709569215
1789454209404724500,6.323724365234375,-0.12841098359674213,-1.1578747351050376,-0.01799421411305666
1789454209414664400,6.33366455078125,-0.19167846389263868,-0.6417734706938266,-0.29038433731645347
1789454209424604700,6.343604736328125,-0.3030427433595061,0.04006429936289787,-0.5040864169687033
1789454209434544600,6.353544677734375,-0.4971931503236294,0.5504121148139238,-0.5083481660664081
1789454209444485600,6.363485595703125,-1.046857661640644,0.6417869146972894,-0.22994915783703326
1789454209454425600,6.373425537109375,-1.1385066022902726,0.9001444208949804,0.0653507163107395
1789454209464365600,6.383365478515625,-0.9574445172190665,1.0765917056471108,-0.06239069746136665
1789454209474305500,6.393305419921875,-0.8634884686708449,1.111478310111165,-0.34107553689479825
1789454209484245500,6.40324560546875,-1.1101350788086652,0.9011632425487041,-0.4511559140309691
1789454209494186800,6.413186767578125,-1.487696764318645,0.19330138891935347,-0.7763599280551076
1789454209504126500,6.42312646484375,-1.9097049097985028,-0.06077098730504513,-0.6993950540572405
1789454209514066400,6.43306640625,-1.5489549506187439,-0.3040215252637863,-0.11836217553019523
1789454209524006700,6.443006591796875,-0.24639117407202718,-0.8933499384492635,0.39399990235269067
1789454209533946600,6.452946533203125,0.45154783595800396,-1.3010200542360544,0.11712766529917716
1789454209543887600,6.4628876953125,0.40595162143111224,-0.993169910594821,-0.5819488243281841
1789454209553827600,6.47282763671875,0.19375380886197088,0.3966109616339206,-0.623870734256506
1789454209563767600,6.482767578125,0.12401917837858199,1.51869308334589,-0.9428998590379953
1789454209573707500,6.49270751953125,-0.4928343705922365,1.969289902189374,-1.0698258647739887
1789454209583647500,6.5026474609375,-1.0488093802303076,1.5660831955522299,-0.8173989176690578
1789454209593588500,6.51258837890625,-1.4653005158543586,1.1903221297234297,-0.028843817168474197
1789454209603528400,6.522528564453125,-1.5359680432736873,0.8427063774049282,0.7336012750416994
1789454209613468700,6.53246875,-1.29608610496521,0.5823527289539575,0.33032910195291043
1789454209623408600,6.54240869140625,-1.0347679953962563,0.8521347154855727,-0.284762113520503
1789454209633349600,6.552349609375,-0.6184668293863534,1.2076730774968862,-0.5948635432198643
1789454209643289000,6.5622890625,-0.3971750252574682,1.2976438558012247,-0.724347709006071
1789454209653229000,6.57222900390625,-0.49925417450666426,0.7971563401073217,-0.6743702106550336
1789454209663169000,6.5821689453125,-0.8587859900683165,0.3422276295393705,-0.2925175499528646
1789454209673109000,6.59210888671875,-0.9869880070894956,0.22448621625602244,0.3545350301876664
1789454209683050000,6.602050048828125,-0.8278776415854692,0.3634130409091711,0.3715522159621119
1789454209692990000,6.611989990234375,-0.6656254709243774,0.646233957234025,0.002449146717786789
1789454209702930000,6.621929931640625,-0.7733101850956678,0.7687748797535896,-0.07297463531792163
1789454209712870100,6.6318701171875,-0.7721563388854265,0.6156704766660929,0.571676436638832
1789454209722810000,6.64181005859375,-0.8666513166159391,0.40950843712985513,0.6075739717110991
1789454209732751000,6.651751220703125,-0.898998173469305,0.3678776191025972,-0.22206629563271998
1789454209742691000,6.661691162109375,-0.9032634296983479,0.37112346915602684,-0.4575564287230372
1789454209752631000,6.671631103515625,-0.9269348126649856,0.13833528850078583,0.011036942321062088
1789454209762571000,6.681571044921875,-0.8684832082182169,-0.37951895705759525,0.8883408781155944
1789454209772511000,6.691510986328125,-0.5163993705749511,-0.8388502864986658,0.39704730722457166
1789454209782452200,6.7014521484375,-0.2132382615327835,-0.31784429891109467,-1.1368678951725364
1789454209792392000,6.711391845703125,-0.13056640806496142,0.6946195102185011,-1.0752768236562609
1789454209802332000,6.721331787109375,-0.12254267608523368,1.1529618286222219,-0.06220569628328085
1789454209812272000,6.731272216796875,-0.3211842569887638,0.6018658231973648,0.592437777377665
1789454209822212000,6.741212158203125,-0.6622048488259316,0.12217676538228987,0.4413192874103784
1789454209832153000,6.751153076171875,-1.0921721366167068,-0.4893079500317573,0.8401990707591176
1789454209842093000,6.761093017578125,-0.6836334213018417,-0.444123238915205,0.2660071441680193
1789454209852033000,6.771032958984375,-0.2761836702674627,-0.06785773069560527,-1.2213409528434276
1789454209861973000,6.780972900390625,-0.3414437856853008,0.2551210084944963,-1.0924673201709985
1789454209871913000,6.790912841796875,-0.06925590705573559,0.08710369843542576,-0.044709787081182
1789454209881854000,6.80085400390625,0.6002677403509616,-0.08440379182696342,-0.343817529079318
1789454209891794000,6.8107939453125,0.8241448847979307,0.11102058059573174,-1.4490829560250043
1789454209901734100,6.820734130859375,0.5304249733179808,0.5631821645379066,-1.1851792138770223
1789454209911674000,6.830674072265625,0.5486117873936891,0.6873135711193085,-1.1332032351851462
1789454209921613800,6.84061376953125,0.627550299552083,0.5293599744349717,-0.9959358681768178
1789454209931555000,6.85055517578125,0.7787076602250337,0.7178519172459841,-0.4686567916691303
1789454209941495000,6.8604951171875,0.8371277004897594,0.6446674385696649,-0.19896511376947162
1789454209951435000,6.87043505859375,0.6353437299072742,0.22573183240294456,-0.6537383415147662
1789454209961375000,6.880375,0.34226913059353825,0.0019295067578554152,-0.6774290137037634
1789454209971316200,6.890316162109375,-0.12963175756335257,-0.5484411070019006,0.6987956268593668
1789454209981256000,6.900255859375,-0.05699263781011104,-1.2658090401232243,0.6371262294098734
1789454209991196000,6.91019580078125,0.2512064653992653,-1.3401535024896263,-0.27799247325509785
1789454210001136000,6.92013623046875,0.63162149451375,-0.393324195048213,-0.8325093930393457
1789454210011076000,6.930076171875,0.7583119379281997,-0.44990182231664655,0.17403876230567691
1789454210021017000,6.94001708984375,1.2313725175142287,-0.0925087723493576,0.28848054952174423
1789454210030957000,6.94995703125,0.9222218126684427,0.13103753270804883,-0.14153262323737142
1789454210040897000,6.95989697265625,0.08343348549008368,0.0056117024019360535,-0.16334902598708867
1789454210050837000,6.9698369140625,0.020840543454885483,-0.0424421344101429,-0.213257843016088
1789454210060777000,6.97977685546875,0.8900935670018195,0.2019210409656167,-0.8488970487385987
1789454210070718000,6.989718017578125,0.7149187864035368,0.3737272219136357,-0.32631255978792906
1789454210080658000,6.999657958984375,-0.4014876277595758,0.02667553321868181,1.1720748176321387
1789454210090598100,7.00959814453125,0.4949947634965181,-0.4268485712483525,0.4363783238768577
1789454210100538000,7.0195380859375,1.6688742924630642,-0.02659837632924318,-1.470628140617907
1789454210110477800,7.029477783203125,1.0929846220433712,0.8666670987069607,-1.5757915196180343
1789454210120419000,7.039419189453125,0.9332511562049388,1.2281313436359167,-0.08247779220044613
1789454210130359000,7.049359130859375,1.1718266880899666,1.0551073113307357,-0.06199059222787618
1789454210140299000,7.059299072265625,1.0904174019038677,0.6100865390539169,-0.8154474913403391
1789454210150239000,7.069239013671875,0.2285492279112339,0.05267535913288593,-0.0004874912559986114
1789454210160179000,7.079178955078125,1.1306745934903621,-0.16689005959481,-0.2087549786388874
1789454210170120000,7.089119873046875,1.048480294406414,0.03410188382714987,-0.8479951314628124
1789454210180060000,7.099059814453125,-0.029617724150419234,0.337996860101819,0.15518442423194645
1789454210190000000,7.109000244140625,-0.21704817520976066,-0.0387210680603981,1.9097692072063683
1789454210199939800,7.11893994140625,0.5440542702198028,-0.681452570131421,0.9920204482987522
1789454210209881000,7.128881103515625,0.36656478293836114,-0.5587047268629074,-0.546141013365984
1789454210219821000,7.138821044921875,-0.7128747133553027,-0.3186883485198021,0.5703668153449892
1789454210229761000,7.148760986328125,-0.6718401076555252,-0.07954846075028181,1.7824375432789326
1789454210239701000,7.158700927734375,-0.1873217299878597,-0.048363341152667993,1.7330527501240371
1789454210249641000,7.168640869140625,-0.39810032340884205,0.006413958695530891,0.37614188183993097
1789454210259582000,7.17858203125,-0.4357867877244949,0.15359540147483347,0.1344195763617754
1789454210269522000,7.18852197265625,-0.3409726610422134,0.4279690997108817,0.3822083422720432
1789454210279462100,7.198462158203125,0.00528466240465641,0.16231266867667435,-0.5887585043430328
1789454210289402000,7.208402099609375,-0.48688744488656516,0.29488720169365407,-0.9217594558537006
1789454210299341800,7.218341796875,-0.7231611295700073,0.09438508761525154,-0.04076367980390787
1789454210309283000,7.228282958984375,0.27695816177129745,-0.4952046068549156,0.27070348529070615
1789454210319223000,7.23822314453125,0.27166356249451634,-0.5010571322754025,-1.0474474442273378
1789454210329163000,7.2481630859375,0.005698503902554512,0.14935761777460574,-1.5695342127889393
1789454210339103000,7.25810302734375,0.13538111487030982,0.6752592684492469,-1.7643582812309264
1789454210349043200,7.268043212890625,0.18789631500542162,1.030014663389325,-1.8739017750114202
1789454210358984000,7.27798388671875,0.21699147658646106,1.0601356608867645,-1.4843410241499542
1789454210368924000,7.287923828125,0.4408890792995691,0.8068418678194283,-1.3963567434877155
1789454210378864000,7.297864013671875,0.22746786241531372,0.7058519751116633,-1.488489083740115
1789454210388803800,7.307803955078125,0.3754512692272663,0.7119979305207729,-2.0169769515156744
1789454210398744000,7.317744140625,0.7546808879494666,0.7119260343283415,-2.521782038147747
1789454210408685000,7.32768505859375,-0.4025158017635345,0.6622352439641952,-1.927015525561571
1789454210418625000,7.337625,-0.4943319156736135,0.34003508793115617,-0.1702311867162585
1789454210428565000,7.34756494140625,0.4492068257898092,-0.008751753993332386,0.22986966286003588
1789454210438505000,7.3575048828125,-0.43081309096515175,0.1633370432883501,-0.5113777430206536
1789454210448446000,7.367446044921875,-1.1645838773548602,0.622024229606986,-0.28515725031793115
1789454210458386000,7.377385986328125,-0.562088524082303,0.7917471745401621,0.13226239832788705
1789454210468326100,7.387326171875,-0.11236907259523868,0.5944768819898366,0.04486322407722473
1789454210478266000,7.39726611328125,-0.08236907112896442,0.27123335438370705,-0.053611178678274155
1789454210488205800,7.407205810546875,-0.11078034209907055,0.0413438177794218,0.3813876735389232
1789454210498147000,7.41714697265625,0.4214256694167852,-0.1074666875064373,-0.09119535166323184
1789454210508087000,7.427087158203125,-0.34052257918715473,0.27846096754968164,-1.0935130298316478
1789454210518027000,7.437027099609375,-0.8855126689523458,0.6217682090193033,-0.8141618354439735
1789454210527967000,7.446967041015625,0.06677987233102321,0.6036942076683044,0.04346972389221191
1789454210537907200,7.4569072265625,0.0972054057329893,0.47077685256302354,0.00765314510166645
1789454210547848000,7.466847900390625,-1.0520493850648402,0.6049059215456247,-0.33584698859155176
1789454210557788000,7.476787841796875,-0.9805050748109817,0.6101899994283915,-0.28657676172703506
1789454210567728000,7.48672802734375,0.0007914426386356353,0.6337579220205545,-0.2660539059191942
1789454210577667800,7.496667724609375,-0.6494359681457281,1.147373799356818,-0.49416328110843893
1789454210587608000,7.506608154296875,-0.6479167957544326,1.2520517329275607,-0.44931583912223577
1789454210597549000,7.516549072265625,-0.06519347992241382,1.2187526899158954,0.0718780722528696
1789454210607489000,7.526489013671875,1.2062632106989621,0.920000044965744,-0.2806067474067211
1789454210617429000,7.536428955078125,0.65161448122859,0.7495148834884167,-1.0948600605264305
1789454210627369000,7.546368896484375,-0.8484943131566047,0.7815203795582055,-0.7771408492997288
1789454210637309200,7.55630908203125,-0.6438420936614274,0.8643646669834851,0.449138144467771
1789454210647250700,7.566250732421875,0.0803922180980444,0.7052694990485906,1.0662532669842242
1789454210657191000,7.57619091796875,0.19743746581077576,0.2464917118370533,0.6057777359440922
1789454210667130600,7.586130615234375,-0.42943128121793267,0.050554713717103,0.3993091146767139
1789454210677070800,7.59607080078125,-1.1485235539138317,0.22983108441531658,0.5135319984450936
1789454210687010800,7.6060107421875,-1.2595154929369687,0.48496261430382726,0.4767760929778218
1789454210696951800,7.615951904296875,-0.10244973612725734,0.3276145822972059,0.14227613508105277
1789454210706891800,7.625891845703125,0.6123199971944093,-0.2266717436015606,-0.5566115539759398
1789454210716831700,7.635831787109375,-0.5105541516780853,-0.7105015544831752,-1.3215683367460966
1789454210726771700,7.645771728515625,-1.2230121009260415,-0.7810030776858329,-1.3037658458128571
1789454210736712700,7.655712646484375,-0.7004413482397794,-0.20806699637472628,-0.400979970498383
1789454210746653000,7.66565283203125,0.2019797854155302,0.42428222789168357,0.4449482915624976
1789454210756592600,7.675592529296875,1.3736089051067828,0.5219412226110697,-0.056665305551886556
1789454210766532600,7.68553271484375,-0.1275315704137087,0.8495517132550477,-0.7427657014891504
1789454210776472800,7.695472900390625,-1.849595601272583,1.5536539220899344,-0.53976066467911
1789454210786413600,7.70541357421875,-1.206479776059091,2.1948422863721846,0.23553894066810607
1789454210796353800,7.715353759765625,-0.8747247329562902,2.0566227332055567,0.5325631543904542
1789454210806293800,7.725293701171875,-0.9851274739146232,0.9519529340654611,0.23667174409031866
1789454210816234000,7.73523388671875,-0.46420215034782886,-0.2787725177168846,0.520023406291008
1789454210826173700,7.745173583984375,-0.33877544325888154,-1.0387532656401395,1.2431123474076389
1789454210836114700,7.75511474609375,-1.3743196837246416,-0.9613947161495685,1.7687544703632592
1789454210846055000,7.765054931640625,-1.5129957484871148,-0.3717085755676031,2.4204022693395615
1789454210855994600,7.77499462890625,-0.6958925988942384,0.04481704684793949,2.3907594107478856
1789454210865934800,7.784934814453125,-1.0866674017205833,0.277208921661973,1.6604051548033951
1789454210875874800,7.794874755859375,-1.7044146846607326,0.4473059606045484,0.886843917556107
1789454210885815800,7.80481591796875,-1.5119494543045757,0.4636912782162428,0.7028402260750531
1789454210895755800,7.814755859375,-0.9681047351822256,0.155703771930933,0.5831994089111685
1789454210905695700,7.82469580078125,-0.8490677291303873,-0.3628559915482998,0.0704293347492814
1789454210915635700,7.8346357421875,-0.3213216196328401,-1.0040461093962192,-0.3575280745238065
1789454210925576700,7.84457666015625,-0.3650546706363559,-1.3953724086254835,-0.7441501415848731
1789454210935517000,7.854516845703125,-1.2916688730448485,-1.3334937523394823,-0.7208880700714886
1789454210945456600,7.86445654296875,-1.9763567718356847,-1.0322346775263547,0.32999884708523747
1789454210955396600,7.874396728515625,-0.6632154871731997,-0.5063350726783276,1.5958841673150657
1789454210965336800,7.8843369140625,0.851033768506348,-0.02307224802970886,1.7718256945021449
1789454210975277600,7.894277587890625,0.6517120963841676,0.22093583029806613,-0.08826602021306752
1789454210985217800,7.9042177734375,-0.7769429886400699,0.08920096297562122,-2.114494053546339
1789454210995157800,7.91415771484375,-1.2485872716873883,-0.3489993156313896,-2.879595359353721
1789454211005098000,7.924097900390625,-1.3492267435222864,-0.47978375036120413,-2.307637475425005
1789454211015037700,7.93403759765625,-1.1106243236303328,-0.3739350194454193,-0.11069763225167989
1789454211024979000,7.94397900390625,-0.25016952356696126,-0.02195288861095905,1.6708165125720202
1789454211034919000,7.9539189453125,0.028111411240696906,0.5438830053061247,1.16357250835523
1789454211044858600,7.963858642578125,-0.5422472207978367,1.373845636472106,-0.10953574886545538
1789454211054798800,7.973798828125,-1.3260410982459783,1.6005635573029517,-0.8678460793584585
1789454211064738800,7.98373876953125,-1.2710413878187536,2.135827202823758,-0.9664211660094558
1789454211074679800,7.9936796875,-1.036967551267147,2.822971262595057,-0.11554565680474042
1789454211084619800,8.003619873046874,-0.4637839249357581,3.024914807653427,0.9620112406127155
1789454211094559700,8.013559814453124,0.07819383127093314,2.1211592105239627,0.7241800973542034
1789454211104499700,8.023499755859374,0.26588322552740573,0.7774374941587447,-0.13678630549311638
1789454211114439700,8.033439697265624,-0.19721417844891548,0.036300562915205954,-0.7527223012275993
1789454211124381000,8.043380859375,-0.6727791420713066,-0.10175707768797874,-0.30760040666386484
1789454211134320600,8.053320556640625,-0.8480240652963519,-0.22044190930128096,0.03578223812952638
1789454211144260600,8.063260498046875,-0.9435925174772739,-0.0005675707548856735,1.1443448069244622
1789454211154200800,8.073200927734375,-0.8169906291291117,0.22203882310390471,2.19426273291856
1789454211164140800,8.083140869140625,-0.585649140150845,-0.1802332330316305,1.8945828901208936
1789454211174081800,8.093081787109375,-0.4183686199337244,-0.8114823871016502,0.7209785248339176
1789454211184021800,8.103021728515625,-0.9701698510184884,-1.5354372973978518,-0.03764320969581604
1789454211193962000,8.1129619140625,-0.8848375461697577,-2.192922131964564,-0.032428251526504755
1789454211203901700,8.122901611328125,-0.937544177223742,-2.6128409039497376,0.17179697472825645
1789454211213841700,8.132841552734375,-1.2477025978073477,-3.0726784293472766,0.7749963846169412
1789454211223782700,8.14278271484375,-1.0166861029997467,-3.0759868232429026,0.6990190603516996
1789454211233722600,8.15272265625,-1.1132917892739176,-2.121933117505908,0.1929620739623904
1789454211243662800,8.162662841796875,-1.3131135198727248,-1.1605343097031116,1.0988744107343256
1789454211253602800,8.172602783203125,-0.3245359055042267,-0.6369459044069051,2.066004894056916
1789454211263543800,8.182543701171875,0.6876607771217823,-0.5424076720565557,1.74452662255764
1789454211273483800,8.19248388671875,1.013177802617848,-0.8641764509350061,0.012406330978125333
1789454211283423700,8.202423828125,0.646129327815771,-1.1446253774315118,-1.0044168424047528
1789454211293363700,8.21236376953125,0.49948243030458683,-0.9410106842905283,-1.3669310347780586
1789454211303303700,8.2223037109375,0.4822752749159932,-0.5779091935485601,-1.9429609904512761
1789454211313245000,8.232244873046875,0.03617518296986818,-0.1368155315876007,-1.5701890234358609
1789454211323184600,8.2421845703125,0.007634148140251636,0.44614685369729995,-0.044403789871931075
1789454211333124900,8.252124755859375,0.6111486153274774,0.9244201994955539,0.21041662824079393
1789454211343064800,8.26206494140625,0.11563421187102794,0.9641267714619636,0.15066124771907924
1789454211353004800,8.2720048828125,0.15274579890817402,1.126971062797308,0.47109950864613054
1789454211362945800,8.28194580078125,0.2551233465820551,0.9327934755653142,0.48919864443838595
1789454211372885800,8.2918857421875,0.0936652489081025,0.5555155754327774,0.33628830261826514
1789454211382825700,8.30182568359375,0.8038578835725784,0.6835030729204415,0.41766149457767604
1789454211392765700,8.311765625,1.2385048536121845,1.2023679568260908,0.30922698495239015
1789454211402705700,8.32170556640625,0.8613637316018342,1.486892754459381,0.29123218631744385
1789454211412646700,8.331646728515626,0.7578598102465272,1.5593436581641436,0.3412342345878482
1789454211422586600,8.341586669921876,0.5489820820108056,1.3897598294407127,0.6887208075687289
1789454211432526800,8.35152685546875,0.33326603218764067,0.9377905532002448,1.4109008171468973
1789454211442466800,8.361466796875,0.8951137332513928,0.21534955459833144,1.9009759521588683
1789454211452406500,8.371406494140626,0.8476584468543529,0.2488964348912239,2.276359124585986
1789454211462347800,8.38134765625,0.5540688837558031,0.33299335272610187,2.0476284026280043
1789454211472287700,8.391287841796874,0.5255377857983112,0.4579197090774774,1.3354828803300858
1789454211482227700,8.401227783203124,0.5714297684013844,0.14317045357227326,-0.22460925811380147
1789454211492167700,8.411167724609374,0.24267478389739988,-0.34481355437934397,-1.6488614320039747
1789454211502108000,8.42110791015625,-0.01082592991888523,-0.42215281464755533,-1.9685256398186086
1789454211512048600,8.431048583984374,-0.00616261428296566,-0.1196574760377407,-1.2308531698152423
1789454211521988900,8.44098876953125,0.337125922486186,0.38544834710657594,-0.4273550594657659
1789454211531928800,8.4509287109375,-0.34557635544538495,0.209037302711606,-0.19460750308185815
1789454211541868800,8.460868896484374,-1.156754791164398,-0.05815934350192546,0.3401531613528728
1789454211551809800,8.470809814453125,-1.3989280552804468,-0.21102643070220947,1.2628265171810984
1789454211561749800,8.480749755859375,-1.7594775234520434,-0.49805941176414487,1.7195067475914954
1789454211571689700,8.490689697265625,-1.8768086023688315,-1.771750145047903,1.5613111588448285
1789454211581629700,8.500629638671874,-1.6977420750290155,-2.47628022390604,1.6736624035224317
1789454211591569700,8.510569580078124,-1.7503215725719927,-2.7782576761215925,1.2146271344184876
1789454211601510700,8.5205107421875,-1.6155132891535757,-2.6330764672487974,1.3580872185871005
1789454211611450600,8.53045068359375,-0.5781418332606554,-1.9721300940513609,1.513812033306062
1789454211621390800,8.540390869140625,0.16405366712510586,-1.6099147384941577,0.9015829292654991
1789454211631330800,8.550330810546875,-0.21379764898121356,-1.70538002256155,0.3737093939960003
1789454211641270800,8.560270751953125,-0.8179974680840969,-1.5812082839697599,0.6546601325348019
1789454211651211500,8.57021142578125,-0.6391238329678773,-1.6267536450922488,1.1582613963350652
1789454211661151500,8.5801513671875,0.03356324690580368,-2.016459065121412,0.9908107802480458
1789454211671091200,8.59009130859375,0.7239677697777748,-1.9528391181260347,0.6719201871544123
1789454211681031400,8.600031494140625,0.9675175829440354,-1.6195435675829648,0.48120852246731516
1789454211690971400,8.609971435546875,1.0856038641422987,-0.7643722608804703,0.203955177141726
1789454211700912400,8.619912353515625,0.9947025269895792,0.40606501867771144,0.31995062354058024
1789454211710852400,8.629852294921875,1.4819237338751554,1.2259423091590405,-0.17031301978081465
1789454211720792600,8.63979248046875,1.609679176172614,1.657799940741062,-0.4213184096500277
1789454211730732500,8.649732666015625,1.822754356098175,1.859329059779644,-0.751325147780776
1789454211740672300,8.65967236328125,1.35942138980031,1.8717805450737475,-0.8978446195200085
1789454211750613500,8.669613525390625,0.2931599395096302,2.0379981122344732,-0.5276335890337824
1789454211760553500,8.679553466796875,-0.12072773561775683,2.0963445027410983,0.015815701030194758
1789454211770493400,8.689493408203125,0.2186450890123844,2.072663182902336,0.3089598584488034
1789454211780433400,8.699433349609375,0.5007400291502475,1.7918290564805268,0.3308057795539498
1789454211790373400,8.709373291015625,0.24634441232085227,1.4959481675744055,0.5667854497268796
1789454211800314400,8.719314453125,-0.06994155123233795,1.3051228133797645,0.4961684834510088
1789454211810254300,8.72925439453125,-0.9442436748623847,1.2307885801464318,1.0478475494608281
1789454211820194600,8.739194580078125,-1.2427525741845369,1.33648182823956,2.288183125631511
1789454211830134300,8.74913427734375,-0.6715484312325716,1.0033961210548876,2.734123058579862
1789454211840075500,8.759075439453126,-0.08389467326104641,0.670962155777216,2.59253490576297
1789454211850015500,8.769015380859376,0.0002618658065795898,0.10009820456504821,2.1306392787918447
1789454211859955500,8.77895556640625,0.23505203393399715,-0.25900749453902244,1.900638975289464
1789454211869895400,8.7888955078125,0.05371931522786617,-0.40128012248873707,1.8370511769980191
1789454211879835400,8.79883544921875,-0.8627543091773986,-0.4434340876072645,1.8809750743985174
1789454211889775600,8.808775634765626,-1.2414508439362049,-0.8976765694767236,1.310606505487859
1789454211899716400,8.81871630859375,-1.5390695164203643,-0.8266782026678323,1.2533163460358976
1789454211909656600,8.828656494140626,-1.3876900374293326,-1.0509557446092366,1.385663792298734
1789454211919596500,8.838596435546876,-0.6733318075180054,-0.7060486667275429,1.2931658336043357
1789454211929536300,8.848536376953126,-0.22369828074872491,-0.48223406612277026,0.3794011758968234
1789454211939477500,8.8584775390625,-0.11049158828556536,-0.06524842498004436,-0.207373753413558
1789454211949417500,8.86841748046875,-0.1038455743998289,0.16270166799426078,-0.19462357743382452
1789454211959357400,8.878357421875,-0.2622685421615839,0.13222586570978165,-0.13970803815871477
1789454211969297400,8.88829736328125,-0.45193654301464553,0.02148410205543041,0.27986732721626756
1789454211979237400,8.8982373046875,-0.10363456199765204,-0.19491291576921937,0.08027063754498959
1789454211989178400,8.908178466796874,-0.2219564055174589,-0.18302432505488395,-0.15461685347706078
1789454211999118300,8.918118408203124,-0.4344546623378992,0.33438393030166624,0.44871816549003124
1789454212009058600,8.92805859375,0.23946692776679993,0.632156916564703,0.7857780370026827
1789454212018998300,8.937998291015624,0.9851794963628053,0.5723860462129116,0.3791550921812653
1789454212028938500,8.9479384765625,1.6417787802666424,0.7238216393053531,-0.5700961817100644
1789454212038879500,8.95787939453125,1.8337439521461725,1.5006541533082722,-1.1639084623113274
1789454212048819500,8.9678193359375,1.6576064639955759,1.8103923026531934,-1.1565127991020678
1789454212058759400,8.977759521484375,1.526298297652602,1.5315852981448173,-0.9790139594703913
1789454212068699400,8.987699462890625,1.835064971616864,1.2729367000460623,-1.2652601740688085
1789454212078639600,8.9976396484375,1.8780781839132308,0.7979565505743026,-1.580959862166643
1789454212088580400,9.007580322265625,1.8031605978339909,0.33889760833382604,-1.3975748871058224
1789454212098520600,9.0175205078125,1.8537533054739235,0.037891631498932835,-0.6845400147527456
1789454212108460500,9.02746044921875,1.6882944477260111,-0.3127963678717613,-0.2533870243087411
1789454212118400300,9.037400146484375,1.7054904971987008,-0.5139262584596872,-0.3941276203855872
1789454212128340500,9.047340576171875,1.197525777491927,-0.664225540998578,-0.6573477641835809
1789454212138281500,9.057281494140625,0.6363017612844705,-1.0145172345280646,-0.39132629922926426
1789454212148221400,9.067221435546875,0.471523871538043,-1.4842840332657097,-0.01876929013878107
1789454212158161400,9.077161376953125,0.5236719919264317,-1.415481715196371,-0.4840095513626933
1789454212168101600,9.0871015625,0.05521218413412571,-1.2124603117734194,-0.4246659665122628
1789454212178041300,9.097041259765625,0.321748905134201,-1.2123261639997363,-0.7405500712662935
1789454212187982300,9.106982421875,0.3708773854404688,-0.852889625506103,-0.6946645184040069
1789454212197922600,9.116922607421875,0.21026713676750658,-0.830339647784829,0.2961804563745856
1789454212207862300,9.1268623046875,0.09047697426080703,-0.8869567302808165,0.5228095298781991
1789454212217802500,9.136802490234375,-0.05697744024097919,-0.942812765276432,0.6055918579831719
1789454212227743500,9.146743408203125,-0.09467501047253608,-1.082007300955057,0.8696341318190097
1789454212237683500,9.156683349609375,0.32095921606123445,-0.8506611358016729,-0.9370745138853788
1789454212247623400,9.16662353515625,0.5714765301525593,-0.23287235180735585,-1.9758494068354366
1789454212257563400,9.1765634765625,1.0761083060443402,-0.30057547646313904,-1.4410869888350366
1789454212267503600,9.186503662109375,1.5249831234008073,-0.5977174713462591,-1.525934725037217
1789454212277444400,9.1964443359375,0.8667617912530898,-0.26355098318755626,-2.0567048585310577
1789454212287384600,9.206384521484376,0.24454525394439697,-0.14057225377261637,-1.6418489228934048
1789454212297324500,9.216324462890626,-0.025884967362880706,-0.08175386184006929,-0.30227263576984403
1789454212307264300,9.22626416015625,-0.30293782168030736,-0.2744628378242254,0.6844134657636285
1789454212317204500,9.23620458984375,0.0732242261648178,-0.8072457724452018,0.8093000746265053
1789454212327145200,9.246145263671876,0.6346551631212234,-0.836126999014616,0.4326455670893192
1789454212337085400,9.25608544921875,0.6660691230386495,-0.6750999862343072,-0.10671002392023801
1789454212347025400,9.266025390625,0.4353507343947887,-0.33904081619679927,-1.1173334658801555
1789454212356965600,9.275965576171876,0.190088856613636,-0.08341682661622762,-1.677455073803663
1789454212366905300,9.2859052734375,0.12111001293361186,-0.14221651384830475,-0.8986796090394258
1789454212376846300,9.295846435546874,-0.13322189100980758,-0.4349614428162574,0.4245505234390497
1789454212386786600,9.30578662109375,-0.38785833085775373,-0.7679656091973185,0.9145809425264596
1789454212396726300,9.315726318359374,-0.24523031359910963,-1.113055934691429,1.3708318416088818
1789454212406666500,9.32566650390625,0.2721890476733446,-1.0681044478088617,0.028479075509309767
1789454212416606500,9.3356064453125,-0.03292436448037624,-0.9060261724099516,-0.809149560239911
1789454212426547500,9.34554736328125,0.5753852280288935,-0.49042789397239683,-0.35222587646245956
1789454212436487400,9.3554873046875,0.7168611526429652,-0.1196013619363308,-1.6017898842275142
1789454212446427400,9.365427490234374,0.7863163816630839,0.35937925534844395,-2.561252171009779
1789454212456367600,9.37536767578125,0.11290917082130908,0.9220230752259493,-2.193219069084525
1789454212466307300,9.385307373046874,0.2013520089060068,0.9909835064664483,-1.0112848284780978
1789454212476248600,9.39524853515625,0.3622697160929441,0.6544950051009655,-1.2339449983507393
1789454212486188300,9.405188232421875,-0.17915069849193094,0.62238049569875,-1.7840742045700548
1789454212496128300,9.415128173828125,-0.24087387195527551,0.5361959579348564,-0.7673457237333059
1789454212506068500,9.425068359375,-0.13530045084953307,0.3436354505106807,-0.5326747980713844
1789454212516009200,9.43500927734375,-0.1612842024117708,0.32897651830017566,-0.768296740847826
1789454212525949400,9.444949462890625,0.08653788124620913,0.1936903882369399,-0.7496352949976921
1789454212535889400,9.454889404296875,0.1243634617716074,0.29143472315222024,-0.9670669165670871
1789454212545829600,9.46482958984375,-0.12244973710477351,0.5105819164678455,-0.896249167022109
1789454212555769300,9.474769287109375,-0.17992577451765537,0.9274430544480681,-0.7802502134919166
1789454212565710600,9.484710693359375,0.05854045177400112,1.2937234674870968,-0.7844225307404995
1789454212575650600,9.494650634765625,-0.030296354064345356,1.2849024476498365,-0.7117261278420687
1789454212585590300,9.50459033203125,0.30841303822100163,0.6946157108262181,-0.911959946373105
1789454212595530500,9.514530517578125,-0.20804361549913883,0.580997807213664,-0.783197957381606
1789454212605470500,9.524470458984375,-0.4563660498946905,0.6069909111261368,0.4456950182765722
1789454212615411500,9.534411376953125,0.8064560833722353,-0.15141922647953032,0.9332055634975432
1789454212625351400,9.544351318359375,0.01622398957014084,-0.3862579099237919,-0.33724516495168205
1789454212635291400,9.55429150390625,-1.354781455039978,-0.19813480042517184,-0.4748661677032709
1789454212645231400,9.5642314453125,-0.9100175801336765,0.6226081669747829,0.5020008428663015
1789454212655171300,9.57417138671875,-0.3681313016027212,1.2611018853455782,0.7875666739851236
1789454212665112600,9.584112548828125,-0.8157523195058107,1.1442431001156568,0.707264472258091
1789454212675052300,9.59405224609375,0.36893677276670933,-0.20704291402399538,0.41466567376255986
1789454212684992500,9.603992431640625,0.3648813598960638,-1.5961837347835302,-0.48735038622319693
1789454212694932500,9.613932373046875,-1.3518354647159576,-1.7306196777582168,-0.6664718586206436
1789454212704872700,9.623872802734375,-0.4684685756206512,-1.3058388526946305,0.13772913930118083
1789454212714813400,9.6338134765625,0.4802905308395624,-0.765146752384305,-0.20279577797353265
1789454212724753700,9.643753662109376,-0.9324152899026871,-0.12548632832169532,-0.8804641533911227
1789454212734693600,9.653693603515626,-0.8252209895968436,0.5533990216702223,-0.5372364068984985
1789454212744633300,9.66363330078125,0.3967056541800499,1.3207663727134464,-0.3341536286771297
1789454212754573600,9.673573486328126,0.006942366483807564,1.9278817870020866,-1.081127010989189
1789454212764514600,9.6835146484375,0.20884090335667133,2.5363527075529095,-1.6353224437341094
1789454212774454500,9.69345458984375,1.3452899885952472,3.097466833645105,-1.5116726831898093
1789454212784394500,9.70339453125,1.1838941425025462,3.090908498042822,-2.0721865053012967
1789454212794334500,9.71333447265625,-1.335728379523754,2.8751626376032826,-2.279354507009685
1789454212804274400,9.7232744140625,-1.98654849550426,2.546225866791606,-0.7071396768346428
1789454212814215400,9.73321533203125,-0.8949299011170864,1.7188590973377227,0.6790098531544209
1789454212824155600,9.74315576171875,-2.6708289825379845,0.6341401993364095,1.630785384826362
1789454212834095400,9.753095458984374,-2.6778976057499646,-0.6785691236495971,2.223417515732348
1789454212844035600,9.76303564453125,-1.2378420057892798,-1.5582278058767318,2.6763278722152113
1789454212853975600,9.7729755859375,-0.858178671824932,-1.6452479176819323,3.10884367544502
1789454212863916300,9.782916259765624,1.0742343288660048,-1.1851076099455355,2.728488267563283
1789454212873856500,9.7928564453125,0.8960288022696972,-0.13202595922350882,1.4037056449458003
1789454212883796500,9.80279638671875,-1.1405711336046456,0.7772790887266398,0.39049394005835053
1789454212893736700,9.81273681640625,-0.5889470126524567,1.2488999908983707,0.1907172176450491
1789454212903676400,9.822676513671874,0.1932771312609315,1.4402519993156193,0.5748989058166742
1789454212913617700,9.83261767578125,-0.3211480166316032,1.360100019714236,0.914345380204916
1789454212923557600,9.8425576171875,-1.0727858836233615,0.8601192844986915,0.5408063743397593
1789454212933497300,9.852497314453124,-1.0956009420216082,0.34884850898385045,0.7851935151129961
1789454212943437600,9.8624375,0.3228016290575266,-0.25033611230552194,1.212462649860978
1789454212953377500,9.87237744140625,0.10430793121457099,-0.7868845369398594,0.48809886650294065
1789454212963318500,9.882318603515625,-2.2724738075852393,-1.3136883971512316,-0.5695134133860469
1789454212973258500,9.892258544921875,-1.6434613265261053,-1.567106693381071,-0.7382555305883288
1789454212983198500,9.902198486328125,0.531379497563839,-2.022633954364061,-0.5116235344752669
1789454212993138400,9.912138427734375,-0.6992576914131641,-2.494944592365622,-0.28884266083240506
1789454213003078400,9.922078369140625,-1.847174803866446,-2.814189990246296,-0.22364128986448048
1789454213013019600,9.93201953125,-0.6605337007433175,-2.724081849297881,0.5838982048302889
1789454213022959400,9.94195947265625,0.9858505274921655,-2.523635264798999,1.3890230395987628
1789454213032899600,9.951899658203125,0.16662147178649903,-2.0598007787197825,1.4167232396900653
1789454213042839600,9.961839599609375,-1.0533902782797813,-1.0326169548422097,0.6589888093888759
1789454213052779500,9.971779541015625,-0.19524960037767886,-0.12625146747529506,-0.006165829153358936
1789454213062720500,9.981720458984375,1.44689041441679,0.4752361700594425,-0.9999826593495905
1789454213072660500,9.991660400390625,0.8270289158016443,1.033067621219158,-1.6983511468380688
1789454213082600700,10.0016005859375,-0.32562896143794057,1.4259996020793915,-1.8208116975978015
1789454213092540400,10.01154052734375,-0.8073658916935325,2.277789449650049,-0.9880432152308523
1789454213102480400,10.02148046875,-0.28412147752940653,2.8273347185015676,-0.1454471663326025
1789454213112421600,10.031421630859375,1.1183797600626946,3.0691888336658475,-0.3608087036296725
1789454213122361300,10.041361328125,1.0338505882903932,2.8344290606766935,-0.7115710834108293
1789454213132301600,10.051301513671875,-0.3518514901921153,2.4577356824338437,-1.3165242050990462
1789454213142241500,10.061241455078125,-0.5413400428250432,1.8036328915208577,-2.029216693755239
1789454213152181500,10.071181396484375,-0.738505121435225,0.9777800337612629,-1.2567002893857657
1789454213162122500,10.08112255859375,-0.59966480602175,0.12061083123981951,0.4329584324307739
1789454213172062500,10.0910625,-0.9656064886257052,-0.5174620313704014,1.6295770319499074
1789454213182002400,10.10100244140625,-1.2285495690479873,-0.8114280265659093,2.500643388529122
1789454213191942400,10.1109423828125,-0.9524433479309081,-0.8885966064423322,2.4999761567920444
1789454213201882600,10.120882568359375,-0.5778899043262005,-0.8346370527178049,2.167546429298073
1789454213211823400,10.1308232421875,-0.44582302857041356,-0.5641296745210885,2.610197111442685
1789454213221763600,10.140763671875,0.180967100264132,-0.026159108129143713,2.674338451963663
1789454213231703600,10.15070361328125,-0.007093757653236389,0.2754261298984289,1.822991087463498
1789454213241643500,10.1606435546875,-0.2889049124136567,0.384217344006896,1.4864840275280178
1789454213251583500,10.17058349609375,-0.7076034949541091,0.1067126542687416,2.09049913771376
1789454213261524500,10.1805244140625,-0.20460575000494718,-0.4124608571946621,1.7713064929336308
1789454213271464700,10.190464599609374,-0.15507628768235443,-1.1565718358129262,0.26430574707761406
1789454213281404400,10.200404296875,-0.5830491867855191,-2.1544278583973644,-0.5493446317128837
1789454213291344400,10.210344482421876,-1.0747127600327133,-3.0664748985320327,0.614286328831315
1789454213301284600,10.22028466796875,-1.054776764202118,-3.4633003796994686,1.1537049020744858
1789454213311225300,10.230225341796874,-1.4368021511226892,-3.1539597052395343,0.9789812262445687
1789454213321165600,10.24016552734375,-1.3013532317131757,-2.7417905244678256,0.9586394260920583
1789454213331105500,10.25010546875,-0.9277736015766859,-2.162151730647683,1.6493578372187911
1789454213341045500,10.26004541015625,-0.2166150444895029,-1.4624977333933113,2.116642025360465
1789454213350985500,10.2699853515625,0.5173433734267949,-0.8912333846867084,1.67760091201514
1789454213360926700,10.2799267578125,1.0884726975768804,-0.8169102573692798,0.6139651340529322
1789454213370866400,10.289866455078124,1.3954939891785383,-0.8218693410813808,-0.07987696205228567
1789454213380806400,10.299806396484374,1.9809055211812256,-0.5856985322505235,-0.4881216628566384
1789454213390746600,10.30974658203125,2.211460828217864,-0.29414135176241396,-0.5702259455695748
1789454213400686600,10.3196865234375,2.6429423199638724,0.3227741565287113,-0.7962693281397223
1789454213410627600,10.329627685546875,2.860087233546376,0.5370218873649836,-1.5909928881421684
1789454213420567600,10.339567626953125,2.0790017382740973,0.5339899723231792,-1.9693591680333018
1789454213430507500,10.349507568359375,1.6352636992841958,0.545545970082283,-1.7615040608435868
1789454213440447500,10.359447509765625,1.347841426643729,0.3605810323536396,-1.5525123508393763
1789454213450387500,10.369387451171875,0.12385755807608366,-0.09724749130904674,-0.9515648115307093
1789454213460328700,10.37932861328125,-0.44752340274751184,-0.3634334991753101,-0.41131811690032477
1789454213470268400,10.389268310546875,-0.8305819321081042,-0.5283832383573055,-0.42984015427976846
1789454213480208400,10.39920849609375,-1.3349351833194494,-0.2536316467195749,-0.2293959078684449
1789454213490148600,10.409148681640625,-0.7694570167988538,0.19907529614567757,-0.14944734188467262
1789454213500088600,10.419088623046875,-0.21306115140020845,0.5576140090167522,0.26878479218780993
1789454213510029600,10.429029541015625,0.6692828243881463,1.0167495236247777,0.7016019164517522
1789454213519969500,10.438969482421875,1.3579767439499497,1.263959028342366,0.5523921827152372
1789454213529909500,10.448909423828125,1.1716001858577132,1.7343997808188198,0.41288200521618124
1789454213539849500,10.458849365234375,0.7049304763525724,2.1621844638735053,-0.2659440158039331
1789454213549789400,10.46878955078125,0.3584519113704562,1.749327300837636,-1.587659359805286
1789454213559730400,10.47873046875,-0.26393910572230816,1.15143564196825,-2.1878081499516964
1789454213569670400,10.48867041015625,-0.6097884328901767,1.6559996133208275,-1.4710957581296562
1789454213579610600,10.498610595703125,-0.46941667012572286,1.518075828230381,-0.9399959542900324
1789454213589550600,10.508550537109375,-0.711577951543033,1.2021832479089498,0.12112082658857107
1789454213599490300,10.518490234375,-1.4362585457652806,0.7519172684550285,1.2097057523682713
1789454213609431600,10.528431640625,-2.0776035619139672,0.14820669417381285,1.9934782947674392
1789454213619371500,10.53837158203125,-1.9733447305381298,-0.3914344357788562,2.3918396072000263
1789454213629311500,10.5483115234375,-0.9191162478685379,-0.7514362069398164,2.2234181002542375
1789454213639251500,10.55825146484375,-0.3071884648621082,-0.32017069603204723,2.0718661873057482
1789454213649191400,10.56819140625,0.2530740128368139,0.2479454177767038,1.688388263489306
1789454213659132200,10.578132080078126,0.6546271070480346,0.3413280503511429,1.1036053847789764
1789454213669072400,10.588072265625,0.3156622786968946,-0.10416647691726684,0.7585542222514748
1789454213679012400,10.598012451171876,-0.5816682538211345,-0.6285299582391977,1.0631897877603769
1789454213688952300,10.607952392578126,-1.5675439157545565,-1.2125707864105701,1.5981822151243685
1789454213698892300,10.617892333984376,-1.7039602188915013,-1.720499850282073,1.2662360333636402
1789454213708833300,10.627833251953126,-1.7338187660604714,-1.7684323988020418,1.033658865110576
1789454213718773200,10.637773193359376,-1.2023071665495633,-1.4900626166671513,0.9349062299355864
1789454213728713200,10.647713134765626,-0.7639771240830421,-1.1137918477505444,0.7051353512749076
1789454213738653400,10.6576533203125,-0.5564274295806885,-0.38529812498092647,0.9470099247053265
1789454213748593400,10.667593505859376,0.1814934622257948,0.35618601226508617,0.6998547805234789
1789454213758534100,10.6775341796875,0.16014496924877167,0.6780640967369079,0.5922010460123419
1789454213768474400,10.687474365234374,0.3891396028399467,0.6949637936115265,0.35450258922278877
1789454213778414300,10.697414306640624,-0.06359481255412101,0.3072539313137531,0.024197452667355537
1789454213788354300,10.707354248046874,-1.2962912721484898,0.085702599465847,1.1679980697125196
1789454213798294300,10.717294189453124,-1.2386322793841362,-0.19144085574448108,2.419861878852546
1789454213808235500,10.727235595703124,-0.7838385933727026,-0.6971732863545418,2.272541612124443
1789454213818175200,10.73717529296875,-0.3464899631589651,-1.0098737926363945,1.7749971641451119
1789454213828115200,10.747115234375,0.5377309124171733,-1.224475159215927,-0.10196721330732107
1789454213838055400,10.757055419921874,0.08372691547870635,-0.9308271439284086,-0.674794573546946
1789454213847995400,10.766995361328124,0.5367074145883322,-0.6699667149990797,-0.3446267996355891
1789454213857935000,10.77693505859375,1.052924414333701,-0.36328386157155035,-0.7682394577026367
1789454213867876400,10.78687646484375,1.4294313300937413,0.11646189486682414,-1.5893644101575015
1789454213877816300,10.79681640625,1.3247516429573296,0.09553133504092692,-1.5716680099472402
1789454213887756300,10.80675634765625,0.9241986656993627,0.019693126985430718,-1.1304311401233076
1789454213897696300,10.8166962890625,0.6468605646997689,0.09516834694743156,-0.3865200679913163
1789454213907636500,10.826636474609375,0.5416577304720879,0.20908990968167782,0.3580968143224716
1789454213917577200,10.8365771484375,1.146361407443881,0.1447013164013624,-0.035376726068556304
1789454213927517400,10.846517333984375,0.8904752597957849,0.3129261317312717,-0.8199307742342352
1789454213937457400,10.85645751953125,0.2003933930069208,1.0848632749080658,-0.02287263380438089
1789454213947397000,10.866397216796875,0.929233737257123,1.4832704723089933,0.3415080830931663
1789454213957337300,10.87633740234375,1.3673855005472897,1.1415098757594824,0.10993833831697702
1789454213967278300,10.8862783203125,1.3686808010548352,0.5273690928786993,-0.22636779221892356
1789454213977218300,10.89621826171875,1.6101701745599508,0.23471534932553767,-0.5743421487167477
1789454213987158300,10.906158203125,1.3110907818734645,0.29123744701445103,-1.0307277800947428
1789454213997098200,10.91609814453125,0.4524924233317375,0.876185453158617,-1.2495838815093039
1789454214007038500,10.92603857421875,-0.32163375432193275,0.49055356617867946,-1.110114912803471
1789454214016979200,10.935979248046875,-1.308874274867773,-0.3816162215977907,-0.19351503167003392
1789454214026919400,10.94591943359375,-1.6973282335311173,-1.0081628970652818,1.0845210373416543
1789454214036859400,10.955859375,-0.9068670071482657,-1.895645989307761,1.4156436277598141
1789454214046799400,10.96579931640625,-0.36067397133409973,-1.8274322847813367,0.5141366863399743
1789454214056739300,10.9757392578125,-0.07358429164886474,-1.4088134894788265,0.26139789680689574
1789454214066680300,10.985680419921875,0.6153636026740074,-1.0141618452191352,-0.46631315115243194
1789454214076620300,10.995620361328125,0.29720833811759945,-0.2701584186285734,-1.2122919694691896
1789454214086560300,11.005560302734375,-0.026781623941659925,0.08311930497437715,0.31064386601299043
1789454214096500500,11.01550048828125,0.029276363366842268,-0.13346855924725531,0.8507175421640276
1789454214106440200,11.025440185546875,0.6766413704574108,-0.7977183579042554,-0.06410773051232099
1789454214116381400,11.03538134765625,1.1283739153325556,-0.678102967442572,-0.9202811999946832
1789454214126321400,11.0453212890625,0.6555500671118497,0.15255699833780526,-0.5659691649079323
1789454214136261000,11.05526123046875,0.6253858149945736,0.5563268918156623,0.1860442573979497
1789454214146201300,11.065201416015626,1.426988613116741,0.7617778604730964,0.16892799516320228
1789454214156141300,11.075141357421876,1.9690449875175953,0.6789943633243442,0.04075315840989351
1789454214166082300,11.085082275390626,1.492017842388153,0.46413522259145973,0.32232612050026654
1789454214176022300,11.095022216796876,0.33453122981786726,0.30994243974536656,1.3039771504759787
1789454214185962200,11.104962158203126,1.049479826837778,-0.4535334568172693,1.9936589120313524
1789454214195902500,11.11490234375,1.5446581302076576,-1.0883838502496481,1.1677762436553836
1789454214205842200,11.12484228515625,0.1250479369044304,-1.102184704326093,0.5012175835341215
1789454214215782400,11.134782470703126,1.0218787032067775,-1.2637284344568849,1.5039400431111454
1789454214225723400,11.144723388671874,2.394195814937353,-1.3930743608161806,-0.2961433392345905
1789454214235663400,11.154663330078124,1.4049731806635857,-0.9923609322994947,-1.2394395041137933
1789454214245603300,11.164603271484374,2.229911261665821,-0.5152797188952565,-0.6038827159777284
1789454214255543300,11.174543212890624,2.078562177813053,-0.46569823412448164,-1.3751581803753972
1789454214265484300,11.184484375,1.4937445200502872,-0.3721151105418801,-1.0836880936488509
1789454214275424300,11.19442431640625,2.072573166531324,-0.06267623640447854,-1.1383721622556446
1789454214285364500,11.204364501953124,0.8571662799119949,0.4731757303982973,-1.5614701487988232
1789454214295304200,11.21430419921875,1.1873252859950065,0.9179594790488481,0.1734600856348872
1789454214305244200,11.224244140625,1.4298895952552557,1.3880860510095954,-0.24262860666811464
1789454214315184400,11.234184326171874,1.8315613474100827,1.2922165700554846,-0.7834922641530633
1789454214325125000,11.244125,1.071615670800209,1.3221648413345217,-1.3635598047792912
1789454214335065300,11.2540654296875,0.6966232512563466,1.4150292952537535,-1.5749235046118497
1789454214345005300,11.26400537109375,0.8086077084481715,1.5881798765480517,-0.7792635405421257
1789454214354945500,11.273945556640625,1.2397083841830492,1.815538433369994,-0.5645648510679603
1789454214364885200,11.28388525390625,-0.07179039396941661,1.8020435765027998,-1.4880141597047447
1789454214374826200,11.293826171875,-0.025349545311927794,1.9445497209474443,-0.7964943690672517
1789454214384766500,11.303766357421875,0.8663368438392877,1.7142174090117215,-0.26493688458800313
1789454214394706200,11.3137060546875,-0.5559194800585509,0.7874944855317473,-1.3437427591532467
1789454214404646400,11.323646484375,-0.7954775932401418,-0.029715631566941736,-0.7862421473830938
1789454214414586400,11.33358642578125,-0.815067259851098,-0.7112514960676432,0.4342430654138326
1789454214424527400,11.34352734375,-0.7098626720577478,-1.4083753903225062,1.8211761469960213
1789454214434467300,11.35346728515625,-0.2741507031351328,-2.065166397406161,2.3370026861190794
1789454214444407300,11.3634072265625,-0.5774667104780674,-2.3041332666963337,1.3433984757602213
1789454214454347300,11.37334716796875,-0.8047972102493047,-1.549635334098339,0.863262843221426
1789454214464287200,11.383287353515625,-0.08739245224893093,-0.331383579441905,1.2658639851808546
1789454214474228500,11.393228515625,0.6664566610515117,0.35470015762150287,0.8073357888162136
1789454214484168200,11.403168212890625,0.5400765987604856,0.6587380494982004,0.22897359080314636
1789454214494108200,11.413108154296875,0.1866045216292143,0.9709697692245245,-0.011684592574834823
1789454214504048400,11.42304833984375,-0.008882979157567023,0.8712719621539116,-0.44188685816526413
1789454214513988400,11.43298828125,-0.3083604312509298,0.7664940753400326,-0.4737848022073507
1789454214523928300,11.44292822265625,0.3500619764268398,0.431290060827136,-0.2471513447895646
1789454214533869300,11.452869384765625,0.018569675913453102,-0.040595045238733286,-0.5048211609840393
1789454214543809500,11.4628095703125,-1.155419743168354,-0.29071722253262994,-0.810134479624033
1789454214553749200,11.472749267578125,-0.9174164582133293,-0.2536211253255606,-0.5870978776544332
1789454214563689200,11.482689208984375,-0.5134241541564464,0.008280921611189842,-0.6313786256685853
1789454214573629400,11.49262939453125,-0.5578296975940465,0.12197802793979644,-0.8979828589469194
1789454214583570200,11.502570068359375,0.7026555171579122,0.12732289609909056,-0.8414616380408406
1789454214593510400,11.512510498046876,0.2746867097079754,0.05370704026818275,-1.2056585228040815
1789454214603450400,11.522450439453126,-0.6736012721091509,0.09240881910622119,-1.6193725949302316
1789454214613390000,11.53239013671875,0.46830023331642145,0.2779547715932131,-1.0353148156240581
1789454214623330300,11.542330322265625,2.151494727554917,0.7637965068191289,-0.6540569059446454
1789454214633271300,11.552271240234376,1.562761357653141,1.2632231152832507,-0.7818062107622623
1789454214643211300,11.562211181640626,1.0440478649169207,1.7036247033268213,-1.4420362523838877
1789454214653151200,11.572151123046876,1.0751812543272972,2.200761155027151,-1.9158666472986339
1789454214663091500,11.582091552734376,1.516333368477225,2.896228806507587,-1.8339608097672462
1789454214673031400,11.592031494140626,1.1794237190902233,3.252833336445689,-1.965744192406535
1789454214682972400,11.601972412109374,-0.4445359113693237,3.110872258663177,-1.8046815237909555
1789454214692912400,11.611912353515624,-2.773379840952158,2.547889416089654,-0.717298082755506
1789454214702852600,11.6218525390625,-2.4717978177949784,1.6697335396409034,0.7597168362900615
1789454214712792300,11.631792236328126,-2.4718255825847386,0.7131792492598295,1.6573276470541953
1789454214722732300,11.641732177734376,-4.4796606117457145,-0.6406716469317675,1.9502379957169294
1789454214732673300,11.65167333984375,-2.850872830477357,-2.5910259625047445,2.740941214162111
1789454214742613200,11.66161328125,-0.22796645958721637,-3.7350299931675193,3.3185774359881877
1789454214752553500,11.671553466796874,-0.9189005592912435,-4.57372187423408,2.31154500425756
1789454214762493400,11.681493408203124,-2.496222941738367,-5.041761410787701,1.9831249507963655
1789454214772433400,11.691433349609374,-0.16183248394429683,-4.461983500757813,3.005156506477296
1789454214782373400,11.701373291015624,0.32590134863853454,-2.6046944223731754,4.055260894954205
1789454214792314400,11.711314453125,-1.1475281131356954,-1.272722765034437,3.5277579465627666
1789454214802254300,11.72125439453125,-1.2084025608152151,-0.7192968553572893,2.45733177780807
1789454214812194300,11.7311943359375,-0.2504489250302315,-0.6530430527269839,1.4582304313376544
1789454214822134500,11.741134521484375,1.143617953954637,-0.8547750008612871,-0.11411416269689797
1789454214832074500,11.751074462890625,1.0851581662014127,-0.6578530833572149,-2.0938395341828464
1789454214842015500,11.761015380859375,-0.005412380437552928,-0.4434381792604923,-3.065197425942123
1789454214851955500,11.77095556640625,-0.5381532294824719,-0.1816407617419958,-2.8352652192398904
1789454214861895400,11.7808955078125,0.1476028830617666,0.14308686694204806,-2.3273078060567376
1789454214871835400,11.79083544921875,-0.13482581907510757,-0.08715162923038006,-1.8018971537694335
1789454214881775400,11.800775390625,-0.9606357144758104,-0.9607716158151626,-1.2587648207001387
1789454214891716600,11.810716552734375,-0.15263444748818875,-1.4258663310885429,-1.3070787697531283
1789454214901656300,11.82065625,0.7620476173251867,-1.3298621178388594,-1.4016460820674896
1789454214911596300,11.83059619140625,0.14996873541027306,-0.7609948934018611,-1.442328513328731
1789454214921536500,11.84053662109375,-0.8432169572755693,0.26874446017742154,-1.208317659010738
1789454214931476500,11.8504765625,-0.9375465153113007,1.7622364667713641,0.22926409818232057
1789454214941416400,11.86041650390625,0.19614158078134059,2.679731250917911,1.3863032592460511
1789454214951357400,11.870357421875,0.6262509073913097,2.4338182157516477,0.9579502747841179
1789454214961297200,11.880297119140625,-0.10209054742604494,1.0172124649614096,-0.0014376315876841544
1789454214971237400,11.8902373046875,-0.3045888037577271,-0.3887748611807823,-0.13816051645576954
1789454214981177300,11.90017724609375,0.01540302857607603,-1.219260639438033,0.41814094865769147
1789454214991117600,11.91011767578125,0.034221126292645926,-1.1751578783392906,1.4007223913513123
1789454215001058300,11.920058349609375,-0.3724997259452939,-0.12959025650918482,2.6749925319582224
1789454215010998500,11.92999853515625,0.057951545970141884,0.8991232611536979,2.497643914452195
1789454215020938500,11.9399384765625,0.10107581742554902,0.9813707517296075,1.0665618945419788
1789454215030878200,11.949878173828125,-0.5502002256289125,0.6579606353849172,1.1378465309463441
1789454215040818400,11.959818359375,-0.5283680407881737,-0.028044191223382947,1.3867153471782803
1789454215050759400,11.969759521484375,-0.6660512951210141,-0.7400508895725011,0.6431801226213574
1789454215060699400,11.979699462890625,-1.063666757622361,-0.9219026637166738,0.562617370261997
1789454215070639400,11.989639404296875,-0.6078872754439711,-0.9294967721074819,-0.1885503949999809
1789454215080579300,11.999579345703125,-0.7679767151132225,-0.8404162206411361,-0.31711993015930057
1789454215090519600,12.00951953125,-0.5444385933622717,-0.8442629591971635,-0.6250833249166607
1789454215100459300,12.019459228515625,-0.45281478715389967,-1.186742517670989,-1.0702715627148747
1789454215110400500,12.029400390625,-0.5888432600170374,-1.4077835619091987,-0.8167883845552801
1789454215120340200,12.03934033203125,-0.31834523417055605,-1.5877695421814917,-0.5263967407152056
1789454215130280400,12.049280517578126,-0.5821379171594977,-1.9124083235383034,0.06460223603099584
1789454215140220400,12.059220458984376,-0.32175299678742886,-1.5800100140959024,0.7217892566949129
1789454215150160400,12.069160400390626,0.30500878273546694,-1.1753016707241535,0.817212162925303
1789454215160101400,12.079101318359376,0.5269178419798612,-1.2708704151660204,0.3840621534451842
1789454215170041300,12.089041259765626,0.20666122123003006,-1.4726666607081889,0.15944412750303744
1789454215179981600,12.098981689453124,0.3389291725158691,-1.4932055908679962,-0.30548838294595476
1789454215189921300,12.10892138671875,0.6184867031306028,-1.4932313098311423,-1.2913549847900867
1789454215199861200,12.118861328125,0.12444354127049445,-1.3009019808143376,-1.6268077133670449
1789454215209802500,12.128802490234374,0.16464578779935835,-0.16729834813475608,-1.0442772897586226
1789454215219742200,12.1387421875,1.0348194333225489,0.5576303756296634,-1.1843734504520893
1789454215229682400,12.148682373046874,0.37771395346224307,0.9594494273006915,-1.2014353521510959
1789454215239622400,12.158622314453124,-0.5332751020520925,1.3699036208480595,-0.4928112819775939
1789454215249562600,12.168562744140624,-0.13698445841372012,1.5235451995521783,-0.16270283703804014
1789454215259502300,12.17850244140625,0.11202449694126844,1.0108318240135907,-0.7458648365482687
1789454215269443300,12.188443359375,-0.5447516048341989,0.9713333418399095,-0.6951926339313388
1789454215279383300,12.19838330078125,-0.026793314379453658,1.2325047364145516,-0.3069321520134806
1789454215289323300,12.2083232421875,1.3575997273311018,0.7487357158094644,-0.7496124986439943
1789454215299263500,12.218263427734374,1.2983765539899468,0.47555648805499073,-0.8333513968214392
1789454215309203500,12.228203369140624,0.5985591828674077,0.7245102060914039,-0.017734394133090973
1789454215319144400,12.23814453125,0.4360393011808395,0.814705440801382,0.4893927057057619
1789454215329084400,12.24808447265625,-0.2499590956866741,0.8472188863933086,0.7144654896780848
1789454215339024400,12.2580244140625,-1.2586416327118872,0.6130524031221867,1.1100970848858356
1789454215348964400,12.26796435546875,-1.3419260651201008,0.09330372211933136,0.8666384571343659
1789454215358904300,12.277904296875,-1.5174802004247903,-0.28664427400529385,0.5593319188505411
1789454215368844300,12.28784423828125,-1.6484008287549017,-0.3192734549313783,0.8252356026440858
1789454215378785300,12.297785400390625,-1.1534271080464125,-0.3129284698188305,1.2193062321454287
1789454215388725200,12.307725341796875,-0.7970376821637153,-0.07383563606142997,1.5261130042135715
1789454215398665500,12.31766552734375,-0.6136626439750195,0.4005523927360773,2.0081459948062896
1789454215408605400,12.32760546875,-0.039272856724262235,0.4739712646901607,1.6938216867148874
1789454215418545400,12.33754541015625,-0.017391279783844946,-0.07994038267731667,1.3051836036562918
1789454215428486400,12.347486328125,-0.7937047383487225,-0.47021863415837284,1.4894336711138485
1789454215438426400,12.35742626953125,-1.4286054006636142,-0.9411199898838997,1.6682620057836175
1789454215448366300,12.367366455078125,-1.9447043269872664,-1.4724346055179833,1.591674440665543
1789454215458306300,12.377306396484375,-1.853414867299795,-1.813487346059084,1.5385282491505146
1789454215468246500,12.38724658203125,-0.7626391534775495,-1.6956489021420478,1.2048618194684386
1789454215478187300,12.397187255859375,0.5374018265932798,-1.2338497212827204,0.757209237383306
1789454215488127500,12.40712744140625,1.3871698129475116,-0.9028449120253323,0.3987812914103269
1789454215498067500,12.4170673828125,1.141493509146571,-0.3370855904757976,0.36233781289309264
1789454215508007200,12.427007080078125,0.9866168356895446,0.3258499107122421,0.6966600761353969
1789454215517947400,12.436947509765625,1.5712293262690304,0.6144938341021537,0.6325339331835508
1789454215527887400,12.446887451171875,1.9440841492623089,0.7334241649091243,0.23312077361047268
1789454215537828400,12.456828369140625,1.4227502448946237,0.986972224998474,-0.33694209035187955
1789454215547768300,12.466768310546875,0.5278501543939114,1.6351649150848389,-0.15804536662101745
1789454215557708500,12.47670849609375,0.676482380503416,2.401621581023931,0.2952414219588041
1789454215567648500,12.4866484375,0.6733066730767489,2.4664304455429313,0.4522320188298821
1789454215577588200,12.496588134765625,0.6012316169470548,2.317398990982771,1.1536769911542535
