time,seconds_elapsed,z,y,x
1789454203139948500,0.058948486328125,9.380182829284667,3.7523125518798826,-1.3658920471191405
1789454203149888800,0.068888671875,9.430311426544188,3.602674948120117,-1.4555249717712402
1789454203159828700,0.078828857421875,9.307010041046142,3.6584897743225095,-1.560271294403076
1789454203169768400,0.0887685546875,8.973168547058105,3.9927801811218258,-1.6799813774108885
1789454203179708700,0.098708740234375,8.327781562042237,4.089446073150635,-1.854009910583496
1789454203189648600,0.108648681640625,8.111255949401855,4.093486288452148,-2.179770973968506
1789454203199588600,0.118588623046875,8.666860372161866,4.084807307434081,-2.357839722442627
1789454203209528600,0.128528564453125,9.541492166137695,3.8902784225463867,-2.2667104217529297
1789454203219468500,0.138468505859375,9.768642048645019,3.271826206207275,-2.033874310302734
1789454203229408800,0.14840869140625,10.11280853729248,3.0282161872863766,-2.450465399169922
1789454203239349500,0.158349609375,9.235333628845215,3.187580235290527,-2.9357401481628416
1789454203249289700,0.168289794921875,5.773018753051757,3.4488474914550777,-2.8573300437927243
1789454203259229700,0.178229736328125,4.844966334533691,3.9552211425781247,-3.197157041931152
1789454203269169700,0.188169677734375,5.253776268005371,4.453215087890625,-1.8257284034729002
1789454203279109600,0.198109619140625,6.5306339408874505,4.696076918792724,-0.39234979705810547
1789454203289049600,0.208049560546875,8.27391202468872,6.0339867340087885,-0.13392565536499024
1789454203298989600,0.217989501953125,7.414692903900146,6.189011291503906,-1.2253823371887207
1789454203308929800,0.2279296875,7.0096239105224605,4.824465982818603,-2.1425112106323243
1789454203318869500,0.237869384765625,8.470236560821533,4.420294815063476,-1.7513585144042967
1789454203328809700,0.247809814453125,8.348581188964843,4.445433932495117,-1.3003507766723632
1789454203338749700,0.257749755859375,7.211933950805664,4.301033644866943,-1.5447089836120604
1789454203348689700,0.267689697265625,7.061248883819579,4.306121323394775,-2.1142297035217283
1789454203358629600,0.277629638671875,8.183680549621581,4.244320993041992,-2.3569418968200684
1789454203368569600,0.287569580078125,8.528295951080322,4.435557850646973,-1.557128904724121
1789454203378509600,0.297509521484375,8.297255490875244,4.822221418762207,-0.9235632904052734
1789454203388449800,0.30744970703125,8.820089278411865,5.0954596832275385,-0.8379705810546875
1789454203398389500,0.317389404296875,9.17368293609619,5.116259310150146,-0.5642834037780762
1789454203408329700,0.327329833984375,9.759065242004393,5.0017865432739255,-0.3327940307617187
1789454203418269700,0.337269775390625,9.738864165496826,4.879083708190918,-0.3913023338317871
1789454203428209700,0.347209716796875,8.441356503295898,4.85813444366455,-0.7820061172485351
1789454203438150700,0.357150634765625,7.2903440551757805,5.0017865432739255,-1.2137106040954588
1789454203448090600,0.367090576171875,6.581211450958252,4.779574701690674,-1.7955016075134276
1789454203458030600,0.377030517578125,6.770353382110596,4.159027558898925,-2.139219183349609
1789454203467970600,0.386970458984375,7.390301974487304,3.6851252677917476,-2.2267571815490723
1789454203477910800,0.396910888671875,7.89697490081787,3.895216463470459,-1.4312836799621582
1789454203487850800,0.406850830078125,8.01189658050537,4.117278667449951,-0.0073322425842285155
1789454203497790500,0.41679052734375,7.857769848632812,4.8229696067810055,1.2705728935241698
1789454203507730700,0.426730712890625,7.091326042175292,5.879261451721191,2.002749688720703
1789454203517670700,0.436670654296875,5.922506719207763,6.472275275421143,1.9461866744995115
1789454203527610600,0.446610595703125,5.2636523498535155,6.315903979492187,2.236633263397217
1789454203537550600,0.456550537109375,5.3013610260009765,5.64986700515747,1.894860976409912
1789454203547490600,0.466490478515625,5.739350292205811,4.949413381958007,1.1303624588012695
1789454203557430800,0.4764306640625,6.356156494903564,4.734683420562744,1.2140098793029785
1789454203567370800,0.486370849609375,8.393023557281493,4.991311911010742,1.4031518104553222
1789454203577310500,0.496310546875,9.375394425964355,4.605695806121826,1.9268834236145018
1789454203587250700,0.506250732421875,9.508571893310547,4.548384603881836,1.5218144302368164
1789454203597191700,0.516191650390625,9.101707248687744,4.684255548095702,1.0066121604919434
1789454203607131600,0.526131591796875,8.132354851531982,4.480598769378662,1.0257657737731933
1789454203617071600,0.536071533203125,7.382820094299316,4.387524179840088,0.7242460021972655
1789454203627011600,0.546011474609375,6.917896059417724,4.09872360458374,0.3534440200805664
1789454203636951600,0.55595166015625,6.972962697601318,3.6885669326782224,0.0909796630859375
1789454203646891500,0.5658916015625,7.4305544898986815,3.865737855529785,0.4402338302612304
1789454203656831500,0.57583154296875,7.7967177062988275,4.410718008422851,1.3715782760620117
1789454203666771500,0.585771484375,7.985709999847412,4.649090711212158,1.8411410766601561
1789454203676711700,0.595711669921875,8.396016309356689,4.686649749755859,1.9524714538574217
1789454203686651400,0.6056513671875,8.826074782562255,4.888510877227783,1.9533692794799804
1789454203696591600,0.615591552734375,9.030330111694335,4.901828623962402,1.7494132255554198
1789454203706531600,0.625531494140625,8.922890312194824,3.988291053009033,0.9249100288391112
1789454203716471600,0.635471435546875,8.28049607925415,3.055450231170654,-0.21727380065917967
1789454203726411500,0.64541162109375,7.058705044555664,2.9296050064086914,-0.8031050193786621
1789454203736351500,0.6553515625,6.585401303863525,2.709937004089355,-0.8325836273193359
1789454203746291500,0.66529150390625,6.789207720184326,1.578826357269287,-1.3006500518798827
1789454203756232400,0.675232421875,7.455543969726562,-0.08170213165283202,-1.6534955215454101
1789454203766172400,0.68517236328125,8.156745780944824,-1.0576385833740234,-1.3512275619506835
1789454203776112600,0.695112548828125,8.277204051971434,-1.3576619789123534,-0.42497079467773435
1789454203786052400,0.70505224609375,8.169764252471923,-1.2855366539001465,0.6370072792053222
1789454203795992600,0.71499267578125,6.888866364288329,-1.2786533241271971,1.7238251953125
1789454203805932500,0.7249326171875,5.531054747772217,-1.1526584617614746,3.801842598724365
1789454203815872500,0.73487255859375,6.007800153350829,-2.193687271118164,2.7103859169006346
1789454203825812500,0.7448125,4.293102851867675,-2.0771195777893063,2.741360900878906
1789454203835752400,0.75475244140625,2.768894219970703,-1.8103157302856445,2.199373500061035
1789454203845692400,0.7646923828125,4.6532805641174315,-2.2749404899597168,2.0632032806396485
1789454203855632600,0.774632568359375,7.880514764404296,-3.706224169921875,2.8440122970581054
1789454203865572400,0.784572265625,7.944410021209716,-5.6091655769348145,4.24566773147583
1789454203875512600,0.7945126953125,6.976703637695312,-7.713369561004638,5.9862523384094235
1789454203885453600,0.80445361328125,10.580575686645508,-6.411522408294678,7.981220871734618
1789454203895393500,0.8143935546875,9.661651161956787,-5.268889665985107,9.642647186279296
1789454203905333500,0.82433349609375,8.212261331939697,-5.374234539031982,10.562170261383056
1789454203915273500,0.8342734375,8.225130165863037,-5.791124903106689,11.162815602874755
1789454203925213700,0.844213623046875,8.090007409667969,-5.66303511428833,11.087398250579833
1789454203935153400,0.8541533203125,8.261043190765381,-5.766883611297607,9.75547393951416
1789454203945093600,0.86409375,7.32266577758789,-6.953210533905029,7.637054383087158
1789454203955033600,0.87403369140625,7.111676756286621,-7.899369102478027,5.758952818298339
1789454203964973600,0.8839736328125,7.261314360046386,-7.930792999267577,4.772392096710205
1789454203974913500,0.89391357421875,5.870881745910644,-6.750002667999267,6.02710340423584
1789454203984853500,0.903853515625,4.925321727752685,-8.000524122619629,5.304204140472412
1789454203994793500,0.91379345703125,5.473144995117187,-8.264933768463134,6.264578281402588
1789454204004733400,0.9237333984375,3.9079356597900388,-8.166322587585448,6.985981169128418
1789454204014674400,0.93367431640625,2.6427497200012207,-8.757091847229004,7.045836210632324
1789454204024614700,0.94361474609375,1.3045406295776367,-10.861894381713867,7.337030987548828
1789454204034554400,0.953554443359375,1.8326117332458496,-12.606818479156493,8.284835569763183
1789454204044494600,0.96349462890625,6.7185787712097165,-12.528558012390135,10.670507886505126
1789454204054434600,0.9734345703125,18.402731785583494,-8.252962760162353,12.438176899719238
1789454204064374500,0.98337451171875,21.43693347702026,-6.96563045501709,15.439607955932617
1789454204074314500,0.993314453125,23.004237738800047,-7.186794833374023,17.49233660430908
1789454204084254500,1.00325439453125,21.84050609436035,-5.98849690246582,16.812084057617188
1789454204094194400,1.0131943359375,18.90326957015991,-6.7471595535278315,16.09502066040039
1789454204104134700,1.023134765625,17.176750897979737,-6.807463507843017,15.477466269683838
1789454204114074400,1.033074462890625,14.705485871887205,-5.8469397293090815,14.241758937835693
1789454204124014600,1.0430146484375,9.445724099731445,-4.534917219543456,13.996353267669678
1789454204133955600,1.05295556640625,-6.210559106445312,-1.4932336479187012,13.325078977203368
1789454204143895600,1.0628955078125,-3.2945711219787595,0.6681319007873535,12.556390606689453
1789454204153835500,1.07283544921875,-3.766079211425781,0.2786252182006836,11.772439200592041
1789454204163775500,1.082775390625,0.31438860549926756,-1.5342343513488768,9.063848934936523
1789454204173715700,1.0927158203125,3.1331121475219725,-1.9283797996520995,9.518447975158692
1789454204183655400,1.102655517578125,4.632331299591065,-4.328267688751221,7.4131965278625485
1789454204193595400,1.112595458984375,5.472097531890869,-5.359270778656006,6.773346134185791
1789454204203535600,1.12253564453125,4.2119992706298826,-6.764367877960205,7.177666939544677
1789454204213475600,1.1324755859375,0.20635025558471679,-8.322544245910644,5.5823804458618165
1789454204223415600,1.14241552734375,0.03666121292114258,-10.606612629699706,3.2173581184387205
1789454204233355500,1.15235546875,0.3624222763061523,-9.664793551635741,4.39859736251831
1789454204243296500,1.162296630859375,-0.1541267318725586,-6.647650547027587,6.660369743347167
1789454204253236500,1.172236572265625,1.4208090476989745,-6.631040773010254,6.576722322845459
1789454204263176400,1.182176513671875,2.9480104316711424,-8.686313260650634,5.220257444763183
1789454204273116700,1.19211669921875,3.4735376960754394,-10.494085151672362,3.770418701934814
1789454204283056400,1.202056396484375,9.83777462158203,-14.535647191619873,0.9296984321594238
1789454204292996400,1.211996337890625,37.7456366355896,-20.08540663986206,-1.7636287979125975
1789454204302936600,1.2219365234375,-2.4021324531555175,-9.047388798522949,7.930942636871338
1789454204312876500,1.23187646484375,-33.77859412231445,1.360505093383789,2.7953800758361815
1789454204322816500,1.24181640625,1.6123451805114746,-2.685246799468994,5.710320597076415
1789454204332756500,1.251756591796875,6.506392649078369,-5.877465800476074,9.97244846496582
1789454204342696400,1.261696533203125,10.15111576385498,-9.794379716491699,6.468085422515869
1789454204352636700,1.27163671875,7.451653392028808,-7.660547486877441,5.486462741851806
1789454204362577400,1.281577392578125,0.184503165435791,-4.598064288330078,5.556493140411376
1789454204372517600,1.291517578125,2.3130980789184568,-3.547009759521484,6.961739877319336
1789454204382457600,1.30145751953125,4.583100527954102,-3.575889817047119,8.047809605407714
1789454204392397300,1.311397216796875,3.6791397636413574,-3.5206735412597654,6.920290261077881
1789454204402337500,1.321337646484375,2.580500476837158,-3.24324542388916,5.42675733795166
1789454204412277500,1.331277587890625,1.5893009895324706,-1.5062521194458007,5.7706245513916015
1789454204422217700,1.3412177734375,0.06733692169189452,0.053719899749755856,4.548234966278076
1789454204432157400,1.351157470703125,-1.216852993774414,0.42018239135742186,3.255216432189941
1789454204442097400,1.361097412109375,-1.8710685974121093,-2.507028413391113,0.32890345306396485
1789454204452037600,1.37103759765625,-1.2885294059753418,-5.629366653442382,-1.995118170928955
1789454204461978400,1.380978271484375,-0.3989338516235351,-4.46249261932373,2.7647043670654297
1789454204471918600,1.390918701171875,-2.5752631607055663,1.1284171699523926,8.086865019989013
1789454204481858600,1.400858642578125,-2.6110265480041503,5.22863715057373,11.83708264541626
1789454204491798500,1.410798583984375,10.389787741851807,6.606799481201172,19.059341590881345
1789454204501738500,1.420738525390625,11.752387761688231,7.773823152923583,22.118383124542234
1789454204511678500,1.430678466796875,5.2456958374023435,1.8507178833007811,19.627814847564697
1789454204521618700,1.44061865234375,8.986635931396483,-12.506561284637451,10.014496631622315
1789454204531558400,1.450558349609375,7.454795781707763,-18.09417904663086,3.321206615447998
1789454204541498400,1.460498291015625,8.847622597503662,-26.61559166793823,-5.10129554977417
1789454204551438600,1.4704384765625,2.3487118286132813,-31.681273468017576,-7.9295958984374995
1789454204561379300,1.48037939453125,-3.378517817687988,-22.47302424545288,3.791068691253662
1789454204571319600,1.490319580078125,-4.593425522613525,-15.706411803436279,12.80044953842163
1789454204581259500,1.500259521484375,-1.083376251220703,-14.092121334075927,12.126930683898925
1789454204591199500,1.510199462890625,2.9302035568237303,-11.12780040359497,9.958831443023682
1789454204601139500,1.520139404296875,4.727051902770996,-7.237671618652343,11.071387026977538
1789454204611079400,1.530079345703125,2.85373874130249,-7.033416289520264,10.62367131652832
1789454204621019600,1.54001953125,1.5804723709106445,-7.647678652954101,10.4571246635437
1789454204630959600,1.549959716796875,2.110488763427734,-7.858817311859131,10.140641131591796
1789454204640898800,1.55989892578125,1.6322469818115233,-7.57824680480957,8.902539598083495
1789454204650839000,1.569839111328125,0.3081038261413574,-8.086416107177733,7.695413048553466
1789454204660779000,1.579779052734375,-2.531868255615234,-6.1465142120361325,5.417030893707275
1789454204670720000,1.589719970703125,-3.394529041290283,-4.043656966400146,4.035726173400879
1789454204680660000,1.599659912109375,6.597521949768066,-5.288641829681396,7.378630241394043
1789454204690600000,1.609599853515625,6.004657763671875,-7.183951718902588,8.244732691955566
1789454204700540200,1.6195400390625,-1.8773533767700195,-6.517914744567871,6.936301484680175
1789454204710480000,1.62947998046875,-0.8674491889953613,-4.96722025680542,7.287351303100586
1789454204720420000,1.639420166015625,2.1383213577270506,-6.212654032897949,7.138910800170898
1789454204730360000,1.649360107421875,1.4866495933532713,-7.237521981048584,6.483049182891845
1789454204740300000,1.659300048828125,-1.2214917594909667,-9.451111053466796,3.817255271911621
1789454204750240000,1.669239990234375,-0.4700117134094238,-12.026374214172362,2.9082068290710446
1789454204760181000,1.679180908203125,1.6919523857116698,-12.328342898559569,4.2785880043029785
1789454204770121200,1.689121337890625,1.837400136566162,-8.48490104598999,6.81210227355957
1789454204780061000,1.69906103515625,-0.06599018325805664,-6.408529656219482,5.565471396636963
1789454204790001000,1.7090009765625,0.2738368148803711,-8.327931199645995,3.533542375183105
1789454204799941000,1.718941162109375,1.1948562660217283,-4.314949942016601,8.57423469543457
1789454204809881000,1.728881103515625,-5.206939698028564,12.042834350585936,10.68053360595703
1789454204819821000,1.738821044921875,6.962338427734375,10.61648871154785,4.9360956352233885
1789454204829761000,1.748760986328125,5.906645133209228,-1.906383071899414,-2.0102315689086914
1789454204839701000,1.758700927734375,-3.3654993461608886,-5.869834282684326,-2.0540753868103026
1789454204849641000,1.768640869140625,-1.6404770500183103,-3.231872966003418,3.867683144378662
1789454204859582000,1.77858203125,-1.9399018951416014,-4.440495891571045,8.576928172302246
1789454204869522200,1.788522216796875,-2.0433014793395996,-9.542090716552734,7.94201581954956
1789454204879462000,1.7984619140625,1.5707459266662598,-12.68463003311157,7.832331455993652
1789454204889401900,1.80840185546875,0.41270051116943357,-15.299547158813475,7.074566630554199
1789454204899342000,1.818342041015625,-0.03232172241210937,-11.914146011352539,4.456956027984619
1789454204909282000,1.828281982421875,0.35239655685424803,-7.461379836273193,4.396203160858154
1789454204919222000,1.838221923828125,-0.9419687156677246,-4.224868104553223,4.405779967498779
1789454204929162000,1.848161865234375,-1.3435960441589354,0.08364742050170898,3.7371991539001463
1789454204939103200,1.858103271484375,3.3782185424804685,5.771073464202881,3.4771289985656737
1789454204949043000,1.86804296875,8.081178791046142,4.14346524810791,8.743325187683105
1789454204958983000,1.87798291015625,-3.125929542541504,-2.104353621673584,0.8875006278991698
1789454204968923100,1.887923095703125,-7.031022087860107,-2.3765444229125974,-12.860903130340576
1789454204978863000,1.897863037109375,3.9522283905029294,-14.408754503631592,0.6522703147888184
1789454204988802800,1.907802734375,-7.844302464294433,-34.05751861572266,0.32097266006469727
1789454204998743000,1.917742919921875,-0.526125814819336,-41.92696019744873,3.604470599365234
1789454205008683000,1.92768310546875,0.6398503936767578,-32.90351341552734,10.124779545593261
1789454205018623200,1.937623291015625,-0.28655601119995117,-21.33099005355835,8.947281241607666
1789454205028564000,1.94756396484375,2.194884371948242,-21.484817510223387,5.214122303009033
1789454205038504200,1.957504150390625,-1.3320739486694335,-7.7787611938476555,-1.7096096229553222
1789454205048444200,1.967444091796875,3.462763788604736,-3.9841012001037597,0.31917700881958005
1789454205058384000,1.9773837890625,3.45393516998291,5.559485892486572,5.609315214538574
1789454205068324000,1.987323974609375,-5.440523997497558,12.010213352966307,7.969998051452636
1789454205078264000,1.99726416015625,-8.121580944061279,-1.5254057327270507,1.5777788940429687
1789454205088204000,2.0072041015625,4.134935904693603,-7.822156098937988,-3.2128689903259278
1789454205098144000,2.01714404296875,4.955997436523437,-18.299781114196776,-5.769277812957763
1789454205108084000,2.027083984375,-1.4327800559997559,-22.35106959838867,-1.4278420150756834
1789454205118025000,2.03702490234375,-1.042674822998047,-18.82081925048828,3.421164534759521
1789454205127965000,2.04696484375,-0.5693710823059082,-13.40708038406372,3.381360932159424
1789454205137905200,2.0569052734375,-2.794332612609863,-12.560879734802246,0.5970540390014648
1789454205147845000,2.06684521484375,-3.152415398406982,-14.22440097579956,0.24899697265624998
1789454205157784800,2.076784912109375,-2.4967034187316894,-13.529932856750488,0.6690297264099121
1789454205167725000,2.08672509765625,-1.0326491035461425,-9.029133010864257,2.618957341003418
1789454205177665000,2.0966650390625,-0.5108627792358398,-6.645705258178711,4.31554849243164
1789454205187605000,2.10660498046875,-1.3459902458190918,-6.758382373809814,4.576067560577393
1789454205197545000,2.116544921875,-1.0699088668823242,-6.155642105865478,3.893271174621582
1789454205207486000,2.12648583984375,-1.6258125648498534,-4.877886607360839,2.8739398178100584
1789454205217426200,2.13642626953125,-1.4832079284667967,-7.6288243148803705,1.9361609550476073
1789454205227366000,2.146365966796875,3.384204046630859,-3.801244048309326,2.8734909049987793
1789454205237306000,2.15630615234375,-1.7661726371765136,-4.9640778671264645,2.118868469238281
1789454205247246000,2.16624609375,-4.638017528533935,-16.053720681762695,0.10085574493408203
1789454205257186000,2.17618603515625,1.760785683441162,-12.719645232391356,3.1947628402709958
1789454205267126000,2.1861259765625,-1.9496283393859861,-10.155305616760254,2.212840884399414
1789454205277066000,2.19606591796875,-0.5054758255004882,-8.856900128936767,1.5690999130249021
1789454205287007000,2.206007080078125,-0.15128361740112303,-9.741108729553222,1.607556777191162
1789454205296947000,2.215947021484375,-0.45804070510864253,-10.569652141571044,1.1059715293884276
1789454205306887000,2.225886962890625,-0.7972691528320313,-10.517727893066406,1.1918635139465332
1789454205316827100,2.2358271484375,-1.144727668762207,-10.044873065185547,1.2859855667114257
1789454205326766800,2.245766845703125,-1.4743793098449707,-6.292859788513184,1.356015965270996
1789454205336707000,2.25570703125,-2.001702225494385,17.777845152282715,5.342212091827392
1789454205346647000,2.26564697265625,-0.1657984649658203,12.237512873077392,4.380491212463379
1789454205356587000,2.2755869140625,-0.5249287139892578,-7.0838441619873045,0.5808931777954102
1789454205366528000,2.285528076171875,-0.44846389846801754,-19.213318685150146,-1.196502279663086
1789454205376468000,2.295468017578125,1.5161282012939452,-25.33978145828247,-3.578433656311035
1789454205386408200,2.305408203125,0.28640637359619137,-18.371756801605223,-2.072929724884033
1789454205396348000,2.315347900390625,-0.5741594856262207,-9.644891750335693,0.6747159553527832
1789454205406288000,2.325287841796875,-0.10025719451904297,-13.166163842010498,-2.704550050354004
1789454205416228000,2.33522802734375,0.41853637771606444,-15.499163722229003,-3.7605426200866696
1789454205426168000,2.34516796875,0.3480570663452148,-12.367547950744628,-2.5936685859680173
1789454205436108000,2.35510791015625,-0.7671919944763184,-7.913883950042724,-3.9633015731811523
1789454205446049000,2.365049072265625,1.2952630981445312,-4.332307904052734,-3.4139819297790526
1789454205455989200,2.3749892578125,0.38786066894531246,-6.245275030517578,-2.6804583961486816
1789454205465929000,2.384928955078125,0.7776666267395019,-9.770587337493897,-2.0527286483764646
1789454205475869000,2.394868896484375,1.0941501586914062,-11.399093379211426,-1.144727668762207
1789454205485809200,2.40480908203125,-0.020051438903808592,-14.439579850006103,-4.06041637802124
1789454205495749000,2.4147490234375,2.014720697021484,-14.371345102691649,-4.637269340515137
1789454205505688800,2.424688720703125,1.3676876983642576,-13.499257147979735,-4.4819455078125
1789454205515629000,2.434629150390625,0.7035960128784179,-14.32660345916748,-5.3119852958679195
1789454205525569800,2.44456982421875,-0.07481880187988281,-15.445294184875488,-7.259219433593749
1789454205535510000,2.454510009765625,-0.6880337020874023,-11.975647066497801,-6.884227598571777
1789454205545450000,2.464449951171875,-0.9255085792541503,-10.63040500869751,-5.393687427520752
1789454205555390200,2.47439013671875,2.02384859085083,-10.813262160491943,-4.895094931793213
1789454205565330000,2.484329833984375,3.6764462867736816,-10.166079524230957,-2.0862474716186523
1789454205575270000,2.494269775390625,0.6021417175292968,-8.307580485534668,1.4739303970336912
1789454205585210000,2.504210205078125,-0.13572130661010742,-4.480149856567382,3.112312520599365
1789454205595150000,2.514150146484375,0.09726444244384765,-0.1913864952087402,2.5284265907287597
1789454205605091000,2.524091064453125,-1.213560966491699,-3.5830724220275876,1.1876736610412597
1789454205615031000,2.534031005859375,0.39983167724609375,-8.15240629043579,2.7699416831970214
1789454205624971000,2.543970947265625,0.7725789482116698,-8.289324697875976,3.574393441009521
1789454205634911000,2.553910888671875,-2.159120984649658,-12.198158183288573,-0.03142389678955078
1789454205644851500,2.5638515625,-0.6054337448120117,-12.217162158966064,-0.7800608283996582
1789454205654791400,2.57379150390625,-0.3972878379821777,-12.695553578186034,-0.5961562133789062
1789454205664731400,2.5837314453125,-0.11267711563110351,-10.638335801696776,0.8749310691833495
1789454205674671400,2.59367138671875,-0.5063736511230469,-9.485826977539062,1.0438719238281249
1789454205684612400,2.6036123046875,-0.3342904067993164,-9.279775997161865,0.049230771636962885
1789454205694552300,2.61355224609375,-0.4391863670349121,-9.67242506942749,-0.26964696197509763
1789454205704492300,2.6234921875,-0.3342904067993164,-9.665990652465819,-0.08634089736938476
1789454205714432500,2.6334326171875,-0.5925649108886718,-9.511115732574462,0.05491700057983398
1789454205724372500,2.64337255859375,-0.7269394790649414,-9.20690248413086,0.30256723480224607
1789454205734312200,2.653312255859375,-0.8080430603027343,-8.952668195343017,0.3919008842468262
1789454205744252400,2.66325244140625,-0.8224082702636718,-9.124901077270508,0.5576993492126464
1789454205754193400,2.673193359375,-0.8641571617126464,-9.29593685836792,0.8384194938659667
1789454205764133400,2.68313330078125,-0.9488520454406738,-9.367613270568848,0.8116343627929687
1789454205774073300,2.6930732421875,-1.0862193656921386,-9.394847314453125,0.5680243438720702
1789454205784013300,2.703013427734375,-1.0136451278686522,-9.40367593307495,0.37933132553100585
1789454205793953500,2.71295361328125,-0.7944260383605957,-9.551966798400878,0.1740285331726074
1789454205803893200,2.722893310546875,-0.9677063835144042,-9.860519537353515,-0.08469488372802735
1789454205813833500,2.73283349609375,-0.7650970680236816,-9.810241302490233,0.23089082260131835
1789454205823774500,2.7427744140625,-1.044470474243164,-9.882067352294921,-0.033518823242187495
1789454205833714400,2.75271435546875,-0.6593032821655274,-9.76145944366455,0.05461772537231445
1789454205843654400,2.762654296875,-0.565031591796875,-9.572018237304688,0.2362777763366699
1789454205853594400,2.772594482421875,-0.5735609352111816,-9.383474856567382,0.19303250885009765
1789454205863534300,2.782534423828125,-0.5249287139892578,-9.268403539276122,0.1822586013793945
1789454205873474300,2.792474365234375,-0.4291606475830078,-9.510517182159424,0.2201169151306152
1789454205883414500,2.80241455078125,-0.33758243408203126,-9.795576817321777,0.18914193115234373
1789454205893355300,2.812355224609375,-0.40626609420776366,-9.95987890625,0.09861118087768554
1789454205903295200,2.822295166015625,-0.8776245460510254,-10.00342344894409,0.018704700469970702
1789454205913235500,2.8322353515625,-1.1010334884643553,-9.941772756195068,-0.0474351203918457
1789454205923175400,2.842175537109375,-0.543932689666748,-9.785102185058593,-0.019003975677490233
1789454205933115400,2.852115478515625,-0.5834370170593262,-9.727042794799804,-0.4786906944274902
1789454205943055400,2.862055419921875,-0.7824550300598144,-9.668085578918456,-0.8072948722839355
1789454205952995300,2.871995361328125,-0.7658452560424804,-9.51276174621582,-0.8375216682434081
1789454205962936300,2.881936279296875,-0.647332273864746,-9.551517885589599,-0.9090484428405761
1789454205972876300,2.891876220703125,-0.886752439880371,-9.73063409729004,-1.202787059020996
1789454205982816500,2.90181640625,-1.0054150596618652,-10.114903463745117,-1.5361796401977539
1789454205992756500,2.911756591796875,-0.9307458953857422,-10.160842208099364,-1.7052701324462889
1789454206002696200,2.9216962890625,-0.8921393936157226,-10.052205307769775,-1.716044039916992
1789454206012636400,2.931636474609375,-1.0181342559814452,-9.80051485824585,-1.62805712890625
1789454206022576400,2.941576416015625,-1.23211602935791,-9.653720368957519,-1.5336358009338378
1789454206032517400,2.951517333984375,-1.0468646759033202,-9.515604860687255,-1.1801917808532714
1789454206042457300,2.961457275390625,-1.250671092224121,-9.43614729309082,-0.7857470573425293
1789454206052397600,2.9713974609375,-1.1469722328186034,-9.313444458007812,-0.5831377418518066
1789454206062337300,2.981337158203125,-1.093701245880127,-9.367164357757568,-0.4493617240905761
1789454206072277200,2.99127734375,-0.8958803337097168,-9.612570027923583,-0.538845011138916
1789454206082217500,3.001217529296875,-0.7320271575927734,-9.695020347595214,-0.33518823242187495
1789454206092157400,3.011157470703125,-0.824802471923828,-9.594314240264891,0.09756371765136718
1789454206102098400,3.021098388671875,-1.0866682785034179,-9.722703304290771,0.18704700469970703
1789454206112038400,3.031038330078125,-0.3407248237609863,-9.534010285949707,0.12853870162963865
1789454206121978400,3.040978271484375,-0.258573779296875,-9.166500331115722,0.3274070770263672
1789454206131918300,3.05091845703125,-0.6117185241699218,-9.261969122314452,0.16071078643798828
1789454206141858300,3.0608583984375,-0.587926145172119,-9.464279162597656,0.032920272827148434
1789454206151798500,3.070798583984375,-0.7697358337402344,-9.491064293670654,0.01975216369628906
1789454206161739300,3.0807392578125,-0.7306804191589356,-9.495852696990966,-0.06599018325805664
1789454206171679500,3.090679443359375,-0.601992079925537,-9.45574981918335,0.15307926864624022
1789454206181619500,3.100619384765625,-0.7368155609130859,-9.380332466888428,0.47928924484252927
1789454206191559400,3.110559326171875,-0.8086416107177734,-9.507674067687988,0.4730044654846191
1789454206201499400,3.12049951171875,-0.5817910034179687,-9.46802010269165,0.5919663604736328
1789454206211439400,3.130439453125,-0.7064391273498535,-9.18759923324585,0.7104793426513671
1789454206221379300,3.14037939453125,-0.9259574920654297,-9.164704679870605,0.6818985603332519
1789454206231320300,3.1503203125,-0.9632172554016113,-9.156773886871337,0.6830956611633301
1789454206241260300,3.16026025390625,-0.840215145111084,-9.267056800842285,0.5692214447021484
1789454206251200500,3.170200439453125,-0.9211690887451172,-9.341127414703369,0.4037222549438476
1789454206261140200,3.18014013671875,-1.0260650489807128,-9.31479119644165,0.4112041351318359
1789454206271080400,3.19008056640625,-1.0031704956054688,-9.207201759338378,0.44577042160034175
1789454206281020400,3.2000205078125,-0.9795277542114257,-9.167398156738281,0.34491467666625975
1789454206290961400,3.20996142578125,-0.9207201759338378,-9.287257877349854,0.2255038688659668
1789454206300901400,3.2199013671875,-0.7472901931762694,-9.337985025024414,0.3054103492736816
1789454206310841300,3.22984130859375,-0.7891887222290038,-9.34022958908081,0.32830490264892576
1789454206320781600,3.239781494140625,-0.9418190780639648,-9.435099829864502,0.1444002876281738
1789454206330721300,3.24972119140625,-0.8010100929260253,-9.49405704574585,0.07197568740844726
1789454206340661200,3.2596611328125,-0.6666355247497558,-9.457246195220947,0.1227028350830078
1789454206350601500,3.2696015625,-0.5337573326110839,-9.493308857727051,0.10414777221679687
1789454206360542200,3.279542236328125,-0.5668272430419922,-9.591171850585937,0.10818798751831055
1789454206370482400,3.289482421875,-0.5533598587036133,-9.585784896850585,0.18854338073730467
1789454206380422400,3.29942236328125,-0.7217021629333495,-9.510517182159424,0.1375169578552246
1789454206390362600,3.309362548828125,-0.6414964073181152,-9.49914472427368,0.03037643356323242
1789454206400302300,3.31930224609375,-0.404769718170166,-9.65925696029663,0.04025251541137695
1789454206410242300,3.3292421875,-0.44547114639282226,-9.840168823242188,0.08993219985961913
1789454206420183300,3.339183349609375,-0.40566754379272457,-9.834931507110594,0.37409400939941406
1789454206430123300,3.349123291015625,-0.35224691925048823,-9.72973627166748,0.6189011291503906
1789454206440063500,3.3590634765625,-0.6634931350708008,-9.775375740814209,0.6061819328308106
1789454206450003500,3.36900341796875,-0.5229834251403809,-9.670928693389891,0.859368758392334
1789454206459943200,3.378943115234375,0.042945992279052735,-9.141810126495361,1.1035773277282714
1789454206469883400,3.38888330078125,-0.5641337661743163,-8.336610180664062,1.1279682571411132
1789454206479824400,3.398824462890625,0.13856442108154296,-7.643488800048828,1.1914146011352538
1789454206489764400,3.408764404296875,0.44801498565673825,-7.508665319061278,0.7422025146484375
1789454206499704300,3.418704345703125,0.44906244888305663,-8.084470818328857,0.12689268798828124
1789454206509644300,3.428644287109375,0.0008978256225585938,-8.924237050628662,-0.086191259765625
1789454206519584500,3.43858447265625,-0.1592144104003906,-9.702651865386962,0.2599205177307129
1789454206529524200,3.448524169921875,0.15696984634399413,-10.45054060897827,0.6027402679443359
1789454206539465500,3.458465576171875,0.25947160491943355,-11.136629022216797,0.6018424423217773
1789454206549405400,3.468405517578125,-0.36496611557006836,-11.534216135406494,0.5153519073486328
1789454206559345400,3.478345458984375,-0.6670844375610351,-11.597812117004393,0.8448539108276367
1789454206569285400,3.488285400390625,-0.7558195365905761,-11.22356847000122,1.486948868560791
1789454206579225300,3.498225341796875,-0.651821401977539,-10.964545777893067,1.7437269966125488
1789454206589165600,3.50816552734375,-0.2346317626953125,-11.081113471221924,1.7344494651794433
1789454206599106300,3.518106201171875,-0.15951368560791016,-11.470021603393555,1.511788710784912
1789454206609046500,3.528046630859375,0.1892915687561035,-12.742539785766601,1.1483189712524413
1789454206618986500,3.537986572265625,0.7511807708740234,-14.00697753753662,1.4567220726013184
1789454206628926200,3.54792626953125,0.8713397666931152,-14.906898086547852,1.8745102622985839
1789454206638866700,3.55786669921875,0.7791630027770996,-15.729306356811522,1.6074071395874023
1789454206648807000,3.567806884765625,0.748936206817627,-16.298078888702392,1.0407295341491698
1789454206658747600,3.57774755859375,0.5463268913269043,-16.482282778930664,0.38621465530395505
1789454206668688000,3.58768798828125,0.09935936889648436,-16.3166339515686,-0.1571194839477539
1789454206678627800,3.5976279296875,-0.15173253021240232,-15.860688172912596,-1.0612298858642577
1789454206688567800,3.60756787109375,-0.0752677146911621,-15.472378591156005,-2.494907767486572
1789454206698507800,3.6175078125,-0.05297171173095703,-15.063718295288085,-3.8703766212463377
1789454206708447700,3.62744775390625,-0.29718028106689454,-14.027627526855468,-4.6815620712280275
1789454206718388700,3.637388671875,-0.6679822631835937,-12.138003866577147,-5.003282919311523
1789454206728328700,3.64732861328125,-0.8078934226989746,-10.417919611358641,-4.7301942924499505
1789454206738269000,3.65726904296875,-0.4629787460327148,-9.571569324493408,-4.052186309814453
1789454206748208600,3.667208740234375,-0.09831190567016601,-9.260622383880614,-3.1362545372009274
1789454206758148600,3.677148681640625,0.5282207412719726,-9.228899211883544,-2.0828058067321775
1789454206768088800,3.6870888671875,1.73010997467041,-9.655366382598876,-1.478569162750244
1789454206778029600,3.697029541015625,2.8760347442626952,-10.594791259002685,-1.4321815055847167
1789454206787969800,3.7069697265625,3.173663938140869,-11.966219897460936,-1.8101660926818846
1789454206797909800,3.71690966796875,2.4904186393737793,-13.028048333740234,-2.2849662094116208
1789454206807849700,3.726849609375,2.01127903213501,-13.532626333618163,-2.899228572845459
1789454206817789700,3.736789794921875,1.6473603797912597,-13.366229318237304,-3.368492098236084
1789454206827729700,3.746729736328125,1.0763432838439941,-12.563872486877441,-3.238157745361328
1789454206837671000,3.7566708984375,-0.03441664886474609,-11.871050381469725,-2.7819126914978027
1789454206847610600,3.766610595703125,-1.2722189071655272,-11.822118885040283,-2.666841374206543
1789454206857550800,3.77655078125,-1.5797241828918456,-12.300360666656493,-2.6644471725463865
1789454206867490800,3.78649072265625,-1.0646715507507323,-12.788777805328369,-2.5769091743469237
1789454206877430800,3.7964306640625,-0.31797990798950193,-12.950685692596435,-2.194285821533203
1789454206887370800,3.806370849609375,0.20829554443359374,-12.619537675476073,-1.4558242469787597
1789454206897311700,3.816311767578125,0.37125089492797847,-11.981632570648193,-0.7273883918762206
1789454206907251700,3.826251708984375,0.11537059249877929,-11.679214973449707,-0.23747487716674803
1789454206917191700,3.836191650390625,-0.5158008201599121,-11.521048026275635,0.11118073959350586
1789454206927131600,3.846131591796875,-1.5087959587097166,-11.408670185852051,0.35314474487304687
1789454206937071900,3.85607177734375,-2.4465748214721676,-11.703306627655028,0.10669161148071288
1789454206947011600,3.866011474609375,-2.6364649406433105,-11.973103227233887,-0.4652233100891113
1789454206956952800,3.875952880859375,-1.866729106903076,-11.877933711242676,-1.2384008087158203
1789454206966892800,3.885892822265625,-0.9490016830444336,-11.470171240997313,-2.005742440795898
1789454206976832800,3.895832763671875,-0.40611645660400386,-10.879850894165038,-2.3389853843688964
1789454206986772700,3.905772705078125,-0.21383213577270507,-10.506953985595702,-2.485480598449707
1789454206996712700,3.915712646484375,-0.17357962036132812,-10.141090044403075,-1.7791911087036132
1789454207006653700,3.92565380859375,-0.6821978355407714,-9.748141696929931,-0.1336263801574707
1789454207016593700,3.93559375,-2.1134815155029294,-9.925013344573975,1.2056301734924315
1789454207026534000,3.945533935546875,-3.209277687835693,-10.34325044708252,1.5084966835021971
1789454207036473900,3.955473876953125,-3.6643256408691403,-10.103979918670653,0.9243114784240722
1789454207046413600,3.96541357421875,-4.16920291595459,-6.534823793792724,-1.6983868026733397
1789454207056353800,3.975353759765625,-2.4718635765075683,-5.29253240737915,-3.1022868011474607
1789454207066294800,3.985294677734375,-2.263268756866455,-3.1872809600830077,-3.7898715904235836
1789454207076234800,3.99523486328125,-2.0714333488464356,-5.0182466796875,-1.6449661781311034
1789454207086174700,4.0051748046875,-3.5371336776733395,-8.329427575683594,-0.6968623207092285
1789454207096115000,4.015114990234375,-3.5953427055358884,-8.993668898773192,0.8728361427307129
1789454207106054700,4.0250546875,-5.746832172393798,-6.274155088043212,0.9882067352294921
1789454207115995600,4.03499560546875,-5.168782109069824,-4.282179306793212,0.6669347999572753
1789454207125935900,4.044935791015625,-4.292953214263916,-4.96033692703247,0.2289455337524414
1789454207135875600,4.05487548828125,-3.0624831985473633,-5.466860215759277,0.47584757995605464
1789454207145815800,4.06481591796875,-3.071760729980469,-5.384260258483886,1.0832266136169433
1789454207155755800,4.074755859375,-3.6935049736022947,-4.4470799461364745,0.3877110313415527
1789454207165695700,4.08469580078125,-2.628384510040283,-4.224119916534423,0.4975450325012207
1789454207175636700,4.09463671875,-3.1790508918762206,-4.726902265167236,0.6235398948669433
1789454207185576700,4.10457666015625,-3.806182089233398,-4.4285248832702635,0.20994155807495116
1789454207195517000,4.114516845703125,-3.803787887573242,-4.307019149017334,-0.5205892234802246
1789454207205456600,4.12445654296875,-3.348440659332275,-4.194940583801269,-1.4212579605102538
1789454207215396900,4.13439697265625,-3.0193875686645506,-4.102614182281494,-2.084002907562256
1789454207225337900,4.144337890625,-2.9522002845764157,-3.640832537078857,-1.4480430915832518
1789454207235277600,4.154277587890625,-3.339462403106689,-3.6363434089660642,-0.1135749412536621
1789454207245217800,4.1642177734375,-4.5072342628479,-4.010437418365478,0.8577227447509765
1789454207255157800,4.17415771484375,-6.0784291023254395,-4.41146619644165,1.7884686401367187
1789454207265098000,4.184097900390625,-6.7471595535278315,-4.632331299591065,2.2301988464355467
1789454207275037700,4.19403759765625,-7.492354820251465,-4.949563019561768,2.8226141197204586
1789454207284979000,4.20397900390625,-9.33424408493042,-4.8883612396240235,4.340089059448242
1789454207294918700,4.213918701171875,-11.772439200592041,-5.341613541412353,4.346523476409912
1789454207304858600,4.223858642578125,-11.757475440216064,-6.635829176330566,2.940229276275635
1789454207314798800,4.233798828125,-12.008118426513672,-5.902455280303955,1.4052467369079589
1789454207324738800,4.24373876953125,-10.718391919708251,-4.973804311370849,4.128202212524414
1789454207334679800,4.2536796875,-7.323713240814208,-4.656722229003906,7.081300322723388
1789454207344619800,4.263619873046875,-8.88069250793457,-5.818508584594726,3.967042513275146
1789454207354559700,4.273559814453125,-7.892036859893798,-6.572981382751465,1.4743793098449707
1789454207364499700,4.283499755859375,-5.639242735290527,-5.496638098907471,-0.20919337005615232
1789454207374439700,4.293439697265625,-4.821922143554687,-4.521599472808838,-0.6290764862060546
1789454207384381000,4.303380859375,-6.050895783233642,-4.431517635345458,-0.35942952423095703
1789454207394320600,4.313320556640625,-6.809558434295654,-4.955249248504638,0.09157821350097656
1789454207404260900,4.3232607421875,-6.463297019195556,-5.7077767578125,0.8228571830749511
1789454207414200800,4.333200927734375,-6.5244987991333,-6.65902300491333,1.1749544647216796
1789454207424140800,4.343140869140625,-5.196465065765381,-6.091148298645019,1.2165537185668944
1789454207434080800,4.353080810546875,-8.801683853149413,-4.111891713714599,1.8034324005126952
1789454207444021800,4.363021728515625,-10.68801548614502,-3.4871547180175777,2.3165397438049316
1789454207453961700,4.372961669921875,-5.534047499847412,-3.8175545471191406,3.576488367462158
1789454207463901700,4.382901611328125,-6.967426106262207,-6.079326927947998,2.255786876678467
1789454207473841700,4.392841552734375,-9.725995331573486,-6.54380205001831,0.3865139305114746
1789454207483782000,4.402781982421875,-9.318083223724365,-4.496310717773437,1.5542857902526854
1789454207493722600,4.41272265625,-9.730334822082519,-2.945765867614746,2.203114440155029
1789454207503662800,4.422662841796875,-7.068730764007568,-2.7048493255615234,2.852392002868652
1789454207513602800,4.432602783203125,-10.678737954711913,-2.770240958404541,1.8932149627685546
1789454207523542800,4.442542724609375,-10.354772542572022,-2.8398224441528317,1.9798551353454588
1789454207533482800,4.452482666015625,-9.22635537261963,-2.1603180854797364,4.220678251647949
1789454207543423700,4.462423828125,-8.847921872711181,-2.971952448272705,4.384681065368652
1789454207553363700,4.47236376953125,-8.23620334854126,-3.605368424987793,3.5890579261779783
1789454207563303700,4.4823037109375,-7.083395249176025,-3.365798621368408,3.049764002227783
1789454207573244000,4.492243896484375,-5.8731263099670405,-2.9562404998779295,2.954744123840332
1789454207583184000,4.502183837890625,-6.576722322845459,-2.8118402122497557,2.7214590995788575
1789454207593124900,4.512124755859375,-6.252457635498047,-2.7769746505737305,2.9378350746154784
1789454207603064800,4.52206494140625,-6.150255152130127,-3.0270190864562987,3.7006875785827633
1789454207613004800,4.5320048828125,-6.307075360870361,-3.478026824188232,4.2509050476074215
1789454207622944800,4.54194482421875,-6.982988417053222,-3.6655227416992187,5.087379252624512
1789454207632884700,4.551884765625,-7.2626610984802245,-3.9004537796020506,6.072443598175049
1789454207642824400,4.561824462890625,-7.940968356323242,-4.248061933135986,6.911760917663574
1789454207652765200,4.57176513671875,-8.10796392211914,-4.493766878509521,6.949170318603516
1789454207662705400,4.581705322265625,-8.728660702514649,-4.520851284790039,6.662614307403564
1789454207672645400,4.591645263671875,-9.118466660308837,-4.595071536254882,6.587346592712402
1789454207682585600,4.601585693359375,-9.080009796142578,-5.040991595458984,5.867589718627929
1789454207692525300,4.611525390625,-9.331251332855224,-5.381716419219971,5.457433046722412
1789454207702466600,4.621466552734375,-8.28034644165039,-5.620687672424316,5.232827003479003
1789454207712406300,4.63140625,-8.371625379943847,-5.7046343681335445,4.805312369537353
1789454207722346200,4.64134619140625,-8.709656726837158,-5.5355438758850095,4.84586416015625
1789454207732286500,4.651286376953125,-8.081328428649902,-5.449502253723145,4.523245486450195
1789454207742226400,4.661226318359375,-7.550414210510254,-5.536292063903808,3.650409343719482
1789454207752167400,4.67116748046875,-7.225700610351562,-5.7882817886352536,2.95609086227417
1789454207762107400,4.681107421875,-7.035211940765381,-6.082768592834472,2.5878327194213866
1789454207772047400,4.69104736328125,-7.075015543365478,-6.123918933868408,2.766350380706787
1789454207781987300,4.7009873046875,-6.3612441734313965,-5.990442191314697,2.888305027770996
1789454207791927300,4.71092724609375,-6.617573388671874,-5.708674583435058,3.112911071014404
1789454207801868500,4.72086865234375,-7.513603359985352,-5.4129906784057615,3.351283773803711
1789454207811808300,4.730808349609375,-8.518419869232178,-5.287744004058838,4.3534068061828615
1789454207821748500,4.74074853515625,-6.536020894622802,-5.360318241882324,5.80339518661499
1789454207831688400,4.7506884765625,-8.52335791015625,-5.861155301666259,5.259911409759521
1789454207841628400,4.76062841796875,-7.988253839111327,-6.097433078002929,4.435108937835693
1789454207851569400,4.7705693359375,-6.0537388977050774,-5.915024839019775,4.1383775695800775
1789454207861509400,4.78050927734375,-5.793219829559326,-5.746682534790039,4.308066612243652
1789454207871449300,4.790449462890625,-6.394613359069824,-5.7049336433410645,4.734084870147705
1789454207881389300,4.800389404296875,-6.515520542907715,-5.7968111320495606,5.144690454864501
1789454207891329300,4.810329345703125,-5.538386990356445,-6.000916823577881,4.683208084869385
1789454207901270300,4.820270263671875,-5.039944132232666,-6.1656678253173824,3.3653497085571287
1789454207911210200,4.830210205078125,-5.212326651763916,-6.329371363830566,2.469619012451172
1789454207921150500,4.840150390625,-6.164620362091064,-6.383240901184082,2.4660277099609376
1789454207931090400,4.85009033203125,-6.952013433074951,-6.688052700042724,2.67492180480957
1789454207941030400,4.860030517578125,-7.10539197692871,-7.264456749725341,2.5342624572753905
1789454207950970400,4.869970458984375,-7.054066278839111,-7.521534152984619,2.677764919281006
1789454207960911400,4.879911376953125,-6.564152764129639,-7.081898873138427,3.2459389007568356
1789454207970851300,4.889851318359375,-5.764040496826172,-6.609492958068847,3.186832047271728
1789454207980791300,4.899791259765625,-5.3576247650146485,-6.094440325927734,2.7768250129699705
1789454207990731500,4.9097314453125,-5.567416685485839,-5.512350047302246,2.836081504058838
1789454208000671500,4.91967138671875,-5.261258148193359,-5.17132594833374,3.3845033218383787
1789454208010612500,4.929612548828125,-5.0124108131408684,-5.243151998138427,3.9305309379577635
1789454208020552400,4.939552490234375,-4.891802904510498,-5.242254172515869,4.361337599182129
1789454208030492400,4.949492431640625,-4.938340199279785,-5.312583846282958,4.627692533874511
1789454208040432400,4.959432373046875,-5.6675242424011225,-5.358372953033447,4.397549899291992
1789454208050372400,4.969372314453125,-5.945401272583007,-5.640439836120605,3.5954923431396484
1789454208060313300,4.979313232421875,-6.180631585693359,-6.07124649734497,2.836081504058838
1789454208070253300,4.98925341796875,-6.7757403358459465,-6.581061813354491,3.017143004608154
1789454208080193300,4.999193359375,-6.799682352447509,-7.387458860015869,3.764882110595703
1789454208090133500,5.009133544921875,-6.039224050140381,-8.395866671752929,3.7576995056152342
1789454208100073200,5.0190732421875,-5.249287139892578,-8.72087954711914,3.0033763450622555
1789454208110014500,5.029014404296875,-4.625148694610595,-8.579322373962402,2.1547814941406247
1789454208119954400,5.038954345703125,-5.083638312530518,-8.234258059692383,1.899948654937744
1789454208129894400,5.048894287109375,-5.553051475524902,-7.9186723533630365,2.4386440284729
1789454208139834400,5.05883447265625,-4.984877494049072,-8.0437693901062,2.789244934082031
1789454208149774300,5.0687744140625,-4.364629626464843,-8.380753273773193,2.6530747146606446
1789454208159715300,5.07871533203125,-3.217058843231201,-8.470835111236571,2.221819140625
1789454208169655300,5.0886552734375,-3.2775124351501463,-8.17230809173584,1.8426374526977538
1789454208179595500,5.098595458984375,-4.314800304412842,-7.68015001296997,2.326565463256836
1789454208189535500,5.108535400390625,-4.630834923553467,-7.576451153564452,2.9569886878967284
1789454208199475200,5.11847509765625,-4.367772016143799,-8.167070775604248,2.6403555183410643
1789454208209416400,5.12841650390625,-4.822819969177246,-8.688707462310791,2.5194483345031737
1789454208219356400,5.1383564453125,-4.82641127166748,-8.416067748260497,3.3276410324096677
1789454208229296400,5.14829638671875,-4.459649504852295,-7.702745291137695,3.9695863525390624
1789454208239236400,5.158236328125,-4.8503532882690426,-6.944830828094482,3.651307169342041
1789454208249176600,5.168176513671875,-5.997924071502685,-6.423792691802978,2.784606168365478
1789454208259117300,5.178117431640625,-6.466439408874511,-6.602609628295898,2.379836450195312
1789454208269057300,5.188057373046875,-6.28822102279663,-7.6614453125,2.8196213676452637
1789454208278997500,5.19799755859375,-5.351788898468017,-9.19986951675415,4.174140956878662
1789454208288937200,5.207937255859375,-4.5319244674682615,-9.764751470947266,5.182997681427001
1789454208298877400,5.21787744140625,-4.326172762298584,-8.953416383361816,5.4047606101989745
1789454208308818400,5.227818359375,-4.3454760131835934,-7.768436199188232,4.806958383178711
1789454208318758400,5.23775830078125,-4.30941335067749,-7.0281789733886715,3.451989881134033
1789454208328698400,5.247698486328125,-4.656871866607665,-7.098508647155762,2.287958961486816
1789454208338638300,5.257638427734375,-5.268590390777588,-8.181884898376465,1.9399018951416014
1789454208348578600,5.26757861328125,-5.9688943763732905,-9.50004254989624,3.140444390106201
1789454208358519300,5.277519287109375,-5.474491733551025,-10.720037933349609,4.876988781738281
1789454208368459500,5.28745947265625,-4.809202947235107,-10.799794776153563,5.3390697021484375
1789454208378399500,5.2973994140625,-4.98637387008667,-10.204835663604737,4.425232855987549
1789454208388339200,5.307339111328125,-4.760720363616943,-9.438242219543456,2.399139701080322
1789454208398279400,5.317279541015625,-4.808754034423828,-8.807370082092284,1.2195464706420898
1789454208408220400,5.327220458984375,-5.340865353393554,-8.700977745819092,1.0341454795837401
1789454208418160400,5.337160400390625,-5.204695133972168,-9.392902025604247,1.7319056259155272
1789454208428100400,5.347100341796875,-4.0614638412475585,-10.385298613739012,3.183988932800293
1789454208438040600,5.35704052734375,-3.6463691284179687,-10.899303782653808,3.678690850830078
1789454208447980300,5.366980224609375,-3.0228292335510254,-10.66826332244873,3.075800945281982
1789454208457921500,5.376921630859375,-2.9794343284606932,-9.922319867706298,1.4851532173156738
1789454208467861500,5.386861572265625,-4.0435073287963865,-9.001300416564941,1.1411363662719727
1789454208477801200,5.39680126953125,-4.4211926406860345,-8.89356134185791,1.6662147178649902
1789454208487741400,5.406741455078125,-4.061912754058838,-9.298480697631835,2.5745149726867673
1789454208497681400,5.416681396484375,-2.8009166671752928,-9.41684404220581,2.23453833694458
1789454208507622400,5.426622314453125,-2.67507144241333,-9.062202921295166,1.152957736968994
1789454208517562400,5.436562255859375,-3.3150714736938474,-8.623764742279052,1.2220903099060059
1789454208527502300,5.44650244140625,-3.0816368118286133,-8.22946965637207,1.5107412475585937
1789454208537442600,5.456442626953125,-2.5918729347229004,-7.592911289978027,1.6205752487182616
1789454208547382300,5.46638232421875,-3.2140660911560057,-6.9168485961914055,1.3456909706115723
1789454208557323500,5.476323486328125,-3.725228145599365,-6.447435433197021,1.1938088027954101
1789454208567263500,5.486263427734375,-3.6611832511901854,-7.113771682739257,1.5978303329467773
1789454208577203200,5.496203125,-3.3921348396301267,-8.385092764282225,2.2028151649475096
1789454208587143400,5.506143310546875,-3.1790508918762206,-9.56318961868286,2.290053887939453
1789454208597083400,5.51608349609375,-3.0069676475524902,-10.258256288146972,1.9436428352355957
1789454208607023400,5.5260234375,-3.375973978424072,-10.704325984954833,1.2351087814331054
1789454208616964400,5.53596435546875,-4.122067070770264,-10.57833112258911,1.48754741897583
1789454208626904600,5.545904541015625,-4.263175331115723,-10.142137507629394,2.7609634269714354
1789454208636844300,5.55584423828125,-3.4919431213378904,-8.926930527496337,3.6839281669616697
1789454208646784500,5.565784423828125,-2.902969512939453,-8.773103070831299,2.5426421630859375
1789454208656725800,5.575725830078125,-3.3514334114074704,-8.905233074951171,2.0020015007019043
1789454208666665500,5.58566552734375,-3.6100071907043456,-8.362198210906982,2.504634211730957
1789454208676605400,5.59560546875,-3.4171243194580074,-7.876025636291503,3.095104196166992
1789454208686545700,5.605545654296875,-3.207332398986816,-7.845200289916992,2.3796868125915527
1789454208696485600,5.615485595703125,-3.730764736938476,-8.60550895462036,1.6876128952026366
1789454208706426600,5.625426513671875,-4.289960462188721,-9.51949543838501,2.399887889099121
1789454208716366600,5.63536669921875,-3.961505921936035,-10.294468588256835,3.1581016273498532
1789454208726306600,5.645306640625,-3.2324715164184568,-10.09993970336914,2.756623936462402
1789454208736246500,5.65524658203125,-3.137302000427246,-9.452457791900635,1.9518729034423827
1789454208746186500,5.6651865234375,-3.2941222091674804,-8.81604906311035,1.2249334243774412
1789454208756127500,5.67512744140625,-3.652653907775879,-8.734646206665039,0.869544115447998
1789454208766067500,5.6850673828125,-4.304924222564697,-9.00189896697998,1.642721614074707
1789454208776007700,5.695007568359375,-4.084358394622803,-8.955960222625732,2.3210288719177243
1789454208785947600,5.70494775390625,-4.042459865570068,-8.626757494354248,3.186383134460449
1789454208795887400,5.714887451171875,-3.3583167411804196,-8.05708713684082,3.0826842750549313
1789454208805828600,5.72482861328125,-2.6774656440734863,-7.888295919799805,1.605611488342285
1789454208815768600,5.7347685546875,-2.805256157684326,-8.13953745651245,0.7794622779846191
1789454208825708500,5.74470849609375,-3.9833530120849607,-8.770110318756103,1.4472949035644531
1789454208835648500,5.7546484375,-4.726154077148437,-9.4113074508667,2.8247090461730955
1789454208845588500,5.76458837890625,-4.449324510192871,-9.899425314331054,3.0992940490722654
1789454208855529500,5.774529541015625,-4.529230990600586,-10.198251609039305,2.6951228813171384
1789454208865469400,5.784469482421875,-4.038868563079833,-10.337115305328368,2.9493571701049803
1789454208875409700,5.79440966796875,-3.4681507423400877,-10.03664299697876,2.855235117340088
1789454208885349600,5.804349609375,-3.5824738716125486,-9.885209741973876,2.274192301940918
1789454208895289600,5.81428955078125,-3.9927801811218258,-9.856180046844482,2.3138462669372557
1789454208905230600,5.824230712890625,-4.172494943237305,-9.572467150115965,3.733009300994873
1789454208915170600,5.834170654296875,-3.8941690002441405,-8.948777617645263,4.794089549255371
1789454208925110500,5.844110595703125,-3.6451720275878903,-8.391676818847655,4.203918840026855
1789454208935050500,5.854050537109375,-3.584868073272705,-8.44629454421997,3.042880672454834
1789454208944990700,5.86399072265625,-3.6544495590209958,-8.447940557861328,3.087472678375244
1789454208954931500,5.873931396484375,-3.510647821807861,-8.339303657531739,3.477428273773193
1789454208964871700,5.88387158203125,-3.2755671463012694,-8.40140326309204,3.1434371421813965
1789454208974811600,5.893811767578125,-3.402160559082031,-8.75379981994629,2.6007015533447264
1789454208984751400,5.90375146484375,-3.7410897315979,-8.857498679351806,2.244264781188965
1789454208994691600,5.913691650390625,-3.901950155639648,-8.79210704650879,2.1716905433654783
1789454209004632600,5.923632568359375,-4.334103555297851,-8.95760623626709,2.7301380805969235
1789454209014572500,5.933572509765625,-4.470722687530517,-8.708010713195801,3.4618659629821775
1789454209024512500,5.943512451171875,-4.165611613464355,-8.519766607666016,3.488202181243896
1789454209034452500,5.953452392578125,-4.057722901153564,-8.415469197845459,3.2577602714538574
1789454209044392700,5.963392822265625,-3.7940614433288573,-8.169764252471923,3.0698154411315914
1789454209054333400,5.97333349609375,-3.9552211425781247,-7.8553756469726554,3.162890030670166
1789454209064273700,5.983273681640625,-4.256142363739014,-7.779659019470214,3.514538399505615
1789454209074213600,5.993213623046875,-4.703109886169433,-7.6614453125,3.8857892944335934
1789454209084153600,6.003153564453125,-4.975450325012207,-7.831882543182372,3.984849388122558
1789454209094093600,6.013093505859375,-4.806060557556152,-7.720701803588867,4.012233069610596
1789454209104034600,6.02303466796875,-4.918737673187255,-7.688380081176757,3.56227279510498
1789454209113974500,6.032974609375,-5.268740028381347,-7.72534056930542,3.3393127655029295
1789454209123914500,6.04291455078125,-5.194070864105225,-7.397334941864013,3.402010921478271
1789454209133854700,6.052854736328125,-4.971110834503174,-7.344213592529297,3.398569256591797
1789454209143794400,6.06279443359375,-4.630984561157226,-7.20190823135376,3.3357214630126952
1789454209153735700,6.072735595703125,-4.216638036346435,-7.3748893013000485,3.384054409027099
1789454209163675600,6.082675537109375,-4.265270257568359,-7.727285858154296,3.7770027565002438
1789454209173615400,6.092615478515625,-4.3999441009521485,-7.562834131622314,4.034529072570801
1789454209183555600,6.1025556640625,-4.503194047546386,-7.494449746704101,3.5601778686523438
1789454209193495600,6.11249560546875,-4.674828379058837,-7.831583267974853,2.777722838592529
1789454209203436500,6.1224365234375,-4.683806635284424,-7.904606418609618,3.047070525360107
1789454209213376500,6.13237646484375,-4.510675927734375,-8.128763549041748,3.4120366409301757
1789454209223316700,6.142316650390625,-4.829404023742676,-8.476970252990721,3.5754409042358395
1789454209233256700,6.152256591796875,-5.046378549194336,-8.494627490234375,3.54326881942749
1789454209243196400,6.162196533203125,-5.067776726531982,-7.972092977905273,3.4775779113769527
1789454209253137700,6.1721376953125,-4.885218849945068,-7.876175273895263,3.001879969024658
1789454209263077400,6.182077392578125,-4.833294601440429,-7.66787972946167,3.1604958290100096
1789454209273017600,6.192017578125,-4.487033186340332,-7.601889546203613,3.4407670608520506
1789454209282957600,6.20195751953125,-4.468478123474121,-8.04421830291748,3.1452327934265134
1789454209292897500,6.2118974609375,-5.0005894424438475,-8.140884194946288,3.2447417999267576
1789454209302838500,6.221838623046875,-5.214870491027832,-7.984213623809814,3.5386300537109374
1789454209312778500,6.231778564453125,-5.480028324890136,-7.668179004669189,4.064905506134033
1789454209322718700,6.24171875,-5.410446839141845,-7.231686114501953,4.4568063903808595
1789454209332658400,6.251658447265625,-5.025578922271729,-7.040898169708251,4.802319617462158
1789454209342599700,6.261599609375,-4.8403275688171385,-7.273135730743408,4.969315183258057
1789454209352539600,6.27153955078125,-5.394136340332031,-7.734169187927246,4.928314479827881
1789454209362479400,6.281479248046875,-6.159682321166992,-8.01234549331665,4.556465034484863
1789454209372419600,6.291419677734375,-6.604405279541015,-8.00576143875122,4.849006549835205
1789454209382359600,6.301359619140625,-6.038625499725342,-8.266430144500731,4.872050740814209
1789454209392300500,6.311300537109375,-5.314978047943115,-8.690802388763426,4.653430201721191
1789454209402240500,6.321240478515625,-4.963329679107666,-8.544905725097657,4.516212519073486
1789454209412180700,6.3311806640625,-4.941033676147461,-8.03778388595581,4.305073860168457
1789454209422120400,6.341120361328125,-5.102193375396729,-7.345410693359375,4.1201217819213865
1789454209432060400,6.351060302734375,-5.219359619140625,-6.693589291381835,4.119373593902588
1789454209442001700,6.361001708984375,-5.755960066223144,-6.508337937927246,4.359841223144531
1789454209451941400,6.37094140625,-6.001814649200439,-6.2761003768920895,4.773289922332763
1789454209461881600,6.380881591796875,-5.828085391235351,-5.999719722747803,4.782866728973389
1789454209471821600,6.390821533203125,-5.690867708587646,-5.93717120437622,4.554669383239746
1789454209481761500,6.400761474609375,-5.869086094665527,-5.98191284790039,4.46937594909668
1789454209491702500,6.41070263671875,-6.210259831237793,-6.647650547027587,4.182819937896729
1789454209501642500,6.420642578125,-6.702717185211181,-6.977152550506592,4.110245700073242
1789454209511582700,6.430582763671875,-6.666654522705078,-7.154323473358154,4.634426226043701
1789454209521522400,6.4405224609375,-5.520430477905273,-7.634959456634521,5.2180128807067865
1789454209531462700,6.450462646484375,-4.581005601501465,-8.122329132080077,5.200654918670654
1789454209541403600,6.460403564453125,-4.5233951240539545,-8.041524826049804,4.473116889190673
1789454209551343400,6.47034326171875,-4.760570726013183,-6.8210805297851556,4.353556443786621
1789454209561283600,6.48028369140625,-4.784213467407226,-5.524171417999267,4.134636629486084
1789454209571223600,6.4902236328125,-5.289090742492675,-4.876839144134522,3.9172131912231443
1789454209581163500,6.50016357421875,-5.90529839477539,-5.105635040283203,4.083909481811523
1789454209591104500,6.5101044921875,-6.387131478881836,-5.553799663543701,4.702660973358154
1789454209601044700,6.520044677734375,-6.595875936126709,-5.840954225158691,5.608267751312256
1789454209610984400,6.529984375,-6.416011536407471,-6.232555834197997,5.418527269744873
1789454209620924400,6.53992431640625,-6.226420692443847,-6.008997254180908,4.757129061126709
1789454209630865700,6.54986572265625,-5.866392617797851,-5.641786574554443,4.364928901672363
1789454209640805000,6.55980517578125,-5.59899021987915,-5.43932689666748,4.140622133636475
1789454209650744800,6.569744873046875,-5.66902061843872,-5.766584336090087,4.15648371963501
1789454209660685000,6.57968505859375,-6.040870063781738,-6.327874987792969,4.356399558258056
1789454209670625000,6.589625,-6.306626448059082,-6.459256803894043,5.045929636383057
1789454209680566000,6.59956591796875,-6.265775382232666,-6.369923154449462,5.186439346313477
1789454209690506000,6.609506103515625,-6.101622930908203,-6.07812982711792,4.839878656005859
1789454209700446200,6.6194462890625,-6.203975051879882,-5.848136830139159,4.57756393661499
1789454209710386000,6.629385986328125,-6.3132105026245116,-5.938667580413818,5.111919819641113
1789454209720326000,6.639325927734375,-6.453570574951171,-6.076334175872803,5.399822569274902
1789454209730267100,6.64926708984375,-6.556221971130371,-6.171802967071533,4.600308852386474
1789454209740206800,6.659206787109375,-6.685508860778808,-6.050147595214844,4.1624692237854
1789454209750147000,6.66914697265625,-6.736385646057128,-6.212654032897949,4.345924925994873
1789454209760087000,6.679087158203125,-6.857442467498779,-6.597970862579345,5.258415033721923
1789454209770027000,6.689027099609375,-6.651391487121582,-7.079055758666992,5.159953490447998
1789454209779968000,6.698968017578125,-6.369324604034423,-6.827664584350585,3.6180876213073727
1789454209789908000,6.708907958984375,-6.359298884582519,-5.720645591735839,3.1405940277099607
1789454209799848200,6.71884814453125,-6.362590911865234,-5.016151753234863,4.044854067230224
1789454209809788000,6.728787841796875,-6.581660363769531,-5.341014990997314,4.904971013641357
1789454209819728000,6.738727783203125,-6.95844785003662,-5.79711040725708,4.762964927673339
1789454209829669000,6.748669189453125,-7.513453722381591,-6.334608679962158,5.021837982177734
1789454209839608800,6.75860888671875,-7.420528770446777,-6.437858626556396,4.834940615081787
1789454209849549000,6.768549072265625,-6.976853275299072,-6.02022007446289,3.25596462020874
1789454209859489000,6.778489013671875,-7.040598894500732,-5.581931533050537,2.8362311416625974
1789454209869429000,6.788428955078125,-7.004087319183349,-5.580734432220459,3.8652889427185055
1789454209879370000,6.798369873046875,-6.472724188232421,-5.7311202239990235,3.9145197143554684
1789454209889310200,6.808310302734375,-6.105363871002197,-5.618742383575439,2.7454011161804197
1789454209899250000,6.81825,-6.482001719665527,-5.055805718231201,2.6885388267517087
1789454209909190000,6.82818994140625,-6.598719050598144,-4.801571429443359,2.8202199180603027
1789454209919130000,6.838130126953125,-6.526144812774658,-4.849156187438965,2.7986721031188964
1789454209929070800,6.84807080078125,-6.563703851318359,-4.704755899810791,3.308786694335937
1789454209939011000,6.858010986328125,-6.448632534027099,-4.535665407562256,3.597138356781006
1789454209948951000,6.867950927734375,-6.695384942626953,-4.904073188018798,3.3201591522216796
1789454209958891000,6.87789111328125,-7.019499992370605,-5.043236159515381,2.9554923118591305
1789454209968832000,6.88783203125,-7.5457754447937,-5.4604257987976075,4.138976119995117
1789454209978772000,6.89777197265625,-7.678803274536133,-6.0613704154968255,4.543446562957763
1789454209988712200,6.907712158203125,-7.515249373626709,-6.405387266540527,3.710114747619629
1789454209998652000,6.91765185546875,-7.0765119194030754,-5.406107348632812,2.8104934738159177
1789454210008592100,6.927592041015625,-7.046883673858642,-5.157708926391601,3.6056677001953124
1789454210018532900,6.937532958984375,-6.642263593292236,-4.972158297729492,4.038718925476074
1789454210028472800,6.947472900390625,-6.707355950927734,-4.503792597961426,3.6240731254577634
1789454210038413000,6.9574130859375,-7.565527608489989,-4.540154535675049,3.5064579689025877
1789454210048353000,6.96735302734375,-7.958475955963134,-4.574271909332275,3.6207810981750486
1789454210058293000,6.97729296875,-7.205050621032714,-4.323628923034668,3.001281418609619
1789454210068234000,6.98723388671875,-7.0202481803894035,-4.017769660949707,3.1227871528625486
1789454210078174200,6.99717431640625,-8.116193990325927,-4.139574670410156,4.7007156845092775
1789454210088114000,7.007114013671875,-7.9566803047180175,-4.602104503631591,4.665700485229492
1789454210098054000,7.017053955078125,-6.3901242309570305,-4.4111669212341305,2.791788773345947
1789454210107994000,7.026994140625,-6.752696144866943,-3.4425627120971676,2.066644945526123
1789454210117934800,7.036934814453125,-7.058405769348144,-2.886958289337158,3.5609260566711423
1789454210127875000,7.046875,-6.994061599731445,-2.8962358207702636,4.049492832946777
1789454210137815000,7.05681494140625,-6.668749449157715,-3.275866421508789,3.277662072753906
1789454210147755000,7.066755126953125,-7.781903583526611,-3.783437173461914,3.79870020904541
1789454210157695000,7.076695068359375,-7.070376777648925,-4.112340626525879,4.066252244567871
1789454210167636000,7.086635986328125,-6.774393597412109,-3.965845412445068,3.3454479072570797
1789454210177576200,7.096576171875,-7.735665563964844,-3.630058629608154,3.885490019226074
1789454210187516000,7.106515869140625,-8.273163836669921,-3.7434839332580565,5.787234325408935
1789454210197456100,7.1164560546875,-7.588721437072754,-4.482394420623779,5.781548096466064
1789454210207396900,7.12639697265625,-7.349151633453369,-4.518756358337402,3.83057301864624
1789454210217337000,7.136337158203125,-8.38284820022583,-4.2700586608886715,4.487482099151611
1789454210227277000,7.146277099609375,-8.699032456970214,-4.0161236473083495,5.9020063674926755
1789454210237217000,7.156217041015625,-8.098985665893554,-3.95806425704956,6.303633695983886
1789454210247157000,7.166156982421875,-8.131606663513184,-3.953874404144287,5.129128144073486
1789454210257098000,7.176097900390625,-8.347833000946045,-3.848529531097412,4.431966548156738
1789454210267038200,7.1860380859375,-7.989600577545166,-3.574543078613281,5.021688344573974
1789454210276978000,7.19597802734375,-7.880514764404296,-3.7859810127258298,4.088398609924316
1789454210286918000,7.20591796875,-7.934234664154053,-3.7632360969543455,3.6611832511901854
1789454210296858000,7.215858154296875,-8.524255735778809,-3.843890765380859,4.19419239578247
1789454210306798800,7.225798828125,-7.539191390228271,-4.442291542816162,5.027524211120605
1789454210316739000,7.235739013671875,-7.312789695739745,-4.684704460906982,3.8824972671508786
1789454210326679000,7.245678955078125,-7.511358795928954,-4.166210163879394,3.0728081932067868
1789454210336619000,7.255618896484375,-7.545625807189941,-3.6074633514404293,2.9325977584838867
1789454210346559000,7.26555908203125,-7.314884622192382,-3.2597055603027343,2.6984149085998532
1789454210356500000,7.2755,-7.343615042114258,-3.216310655212402,3.0449755989074707
1789454210366440000,7.28543994140625,-7.075015543365478,-3.478176461791992,3.245639625549316
1789454210376380000,7.2953798828125,-7.053318090820312,-3.746327047729492,3.1765070526123047
1789454210386320100,7.305320068359375,-7.17587128829956,-3.770568339538574,2.7965771766662595
1789454210396260000,7.315260009765625,-6.516867281341552,-3.8729204605102536,2.1883003173828124
1789454210406201000,7.325201171875,-7.360224816131591,-3.953425491333008,2.4329577995300293
1789454210416141000,7.33514111328125,-7.91687670211792,-4.250755410003662,4.074781587982177
1789454210426081000,7.3450810546875,-6.826317845916748,-4.75009609375,5.026626385498046
1789454210436021000,7.35502099609375,-7.20160895614624,-4.776881224822998,4.299686906433105
1789454210445962000,7.3649619140625,-8.181585623168944,-4.431218360137939,4.265569532775879
1789454210455902200,7.374902099609375,-7.767837648773193,-4.221426439666748,4.7846623802185055
1789454210465842000,7.384842041015625,-7.098359009552001,-4.438101689910888,4.776282674407959
1789454210475782000,7.394781982421875,-6.929418154907226,-4.83942974319458,4.610484209442139
1789454210485722000,7.40472216796875,-7.003788043975829,-5.166088632202148,4.945223529052734
1789454210495662800,7.414662841796875,-6.414365522766113,-5.468805504608154,4.818630116271972
1789454210505603000,7.42460302734375,-6.740126586151122,-5.277269371795654,3.725377783203125
1789454210515543000,7.43454296875,-7.5810899192810055,-4.961534027862548,3.621828561401367
1789454210525483000,7.44448291015625,-6.754940708923339,-4.967968444824218,4.504391148376465
1789454210535423000,7.454423095703125,-6.259490602874756,-5.228936425781249,4.707299739074707
1789454210545364000,7.464364013671875,-7.211335400390625,-5.255871194458008,4.298190530395508
1789454210555304000,7.474303955078125,-7.620444609069824,-5.20319875793457,4.244919543457031
1789454210565244000,7.484243896484375,-6.345382587432861,-5.448155515289306,4.3059716857910155
1789454210575184100,7.49418408203125,-6.721721160888672,-5.0376995681762695,4.075829051208496
1789454210585124000,7.5041240234375,-6.873752966308594,-4.917390934753418,3.9546225921630858
1789454210595065000,7.514065185546875,-6.420351026916504,-4.9993923416137696,4.419845902252197
1789454210605005000,7.524005126953125,-5.064335061645507,-5.334730211639404,4.356998108673095
1789454210614945000,7.533945068359375,-4.971110834503174,-5.638644184875488,3.4708442192077635
1789454210624885000,7.543885009765625,-6.433369498443603,-5.774066216278076,3.371784125518799
1789454210634825000,7.553824951171875,-6.649296560668945,-5.738751741790771,4.489427388000488
1789454210644766700,7.5637666015625,-5.774066216278076,-5.9302878746032714,5.331288546752929
1789454210654706700,7.573706787109375,-5.384110620880127,-6.4263365310668945,5.015403565216064
1789454210664647000,7.58364697265625,-5.788431426239013,-6.835296102142333,4.623502680969238
1789454210674587000,7.5935869140625,-6.42917964553833,-6.833650088500976,4.652083463287354
1789454210684526600,7.603526611328125,-6.782623665618896,-6.629544396972656,4.644900858306885
1789454210694467800,7.6134677734375,-5.7514709381103515,-6.745513539886474,4.310760089111328
1789454210704407800,7.62340771484375,-4.6627077331542965,-7.309048755645752,3.6854245429992676
1789454210714347800,7.63334765625,-5.303306314849853,-7.963563634490966,2.779219214630127
1789454210724287700,7.643287841796875,-6.341043096923828,-8.22333451461792,2.4984990699768064
1789454210734228700,7.653228759765625,-5.904550206756592,-7.902511492156982,3.111564332580566
1789454210744168700,7.663168701171875,-5.102343013000488,-7.2441060356140135,4.075978688812255
1789454210754108700,7.673108642578125,-3.6667198425292966,-7.145644492340088,3.837755623626709
1789454210764049000,7.683048828125,-4.355052819824219,-7.0187518043518065,2.9236195022583007
1789454210773988600,7.692988525390625,-6.46718759689331,-6.450727460479736,2.8459575859069823
1789454210783929900,7.702929931640625,-6.15429536743164,-5.8092310531616205,3.436128295135498
1789454210793869800,7.712869873046875,-5.542127930450439,-5.749974562072754,3.8889316841125487
1789454210803809800,7.722809814453125,-5.659743087005615,-6.728305215454101,3.5384804161071775
1789454210813749800,7.732749755859375,-5.183446594238281,-8.069955970764159,3.5416228057861328
1789454210823689700,7.742689697265625,-4.77568412399292,-9.044545684051513,4.178330809783935
1789454210833630700,7.752630615234375,-5.580584794616699,-9.233986890411376,4.6836569976806635
1789454210843570700,7.76257080078125,-6.056582012176514,-8.764573727416991,5.231180989837646
1789454210853511000,7.772510986328125,-5.209782812499999,-8.301894256591796,5.4266077003479
1789454210863451000,7.782450927734375,-5.2073886108398435,-8.104971170043944,4.727650453186035
1789454210873390600,7.792390625,-5.901856729888916,-7.943512195587158,3.8681320571899414
1789454210883331800,7.802331787109375,-5.856815811157226,-7.914482500457763,3.4439094505310055
1789454210893271800,7.812271728515625,-5.276221908569336,-8.185326563262938,3.3672949974060056
1789454210903211800,7.822211669921875,-5.050867677307129,-8.702474121856689,2.816778253173828
1789454210913151700,7.83215185546875,-4.60270305404663,-9.377938265228272,2.2833201957702633
1789454210923092700,7.8420927734375,-4.320785808563232,-9.887304668426513,1.8168997848510742
1789454210933032700,7.85203271484375,-5.052364053344726,-10.005967288208007,1.606359676361084
1789454210942972700,7.86197265625,-5.9397150436401365,-9.762656544494629,2.3108535148620604
1789454210952913000,7.871912841796875,-5.065232887268066,-9.342324515533447,3.6373908721923827
1789454210962852600,7.8818525390625,-3.310731983184814,-8.802880953979491,4.198232611083984
1789454210972793900,7.8917939453125,-2.9637223800659176,-8.577377085113525,2.7269956909179687
1789454210982733800,7.90173388671875,-4.266766633605957,-8.576778534698486,0.4987421333312988
1789454210992673800,7.911673828125,-4.940584763336181,-9.074922117614745,-0.6841431243896484
1789454211002613800,7.92161376953125,-5.077652808380127,-9.294440482330321,-0.506224013519287
1789454211012553700,7.9315537109375,-4.896142395019531,-9.29593685836792,1.2331634925842285
1789454211022494700,7.94149462890625,-4.114285915374755,-9.023596419525147,3.4118870033264157
1789454211032434700,7.9514345703125,-3.5583822174072264,-8.52934341430664,3.398419618988037
1789454211042375000,7.961375,-3.8890813217163083,-7.736264114379883,2.1238065101623533
1789454211052315000,7.97131494140625,-4.705953000640869,-7.371597274017334,1.144727668762207
1789454211062254600,7.981254638671875,-4.836885903930664,-7.026682597351074,0.9077017044067383
1789454211072195800,7.99119580078125,-4.584596903991699,-6.299443843078613,1.408987677001953
1789454211082135600,8.001135498046875,-4.091391361999512,-5.9311857002258295,2.6611551452636717
1789454211092075800,8.01107568359375,-3.462314875793457,-6.55008682937622,2.683900061035156
1789454211102015700,8.021015625,-3.1344588859558105,-7.938574154663086,1.9246388595581054
1789454211111956000,8.0309560546875,-3.415029393005371,-8.875155916595459,1.1071686302185058
1789454211121896700,8.040896728515625,-3.947888899993896,-9.131185856628418,1.3634978454589843
1789454211131836700,8.050836669921875,-4.130297138977051,-9.247454274749755,1.7494132255554198
1789454211141777000,8.06077685546875,-4.235791649627686,-9.165602505493164,2.5383026725769042
1789454211151716600,8.070716552734375,-4.167407264709472,-8.837147965240478,3.881000891113281
1789454211161656800,8.08065673828125,-3.937114992523193,-9.106495652008055,3.8612487274169918
1789454211171597800,8.090597900390625,-3.684377079772949,-9.707739543914794,2.881421697998047
1789454211181537800,8.100537841796875,-4.113238452148437,-10.414627584075927,1.8734627990722654
1789454211191477800,8.110477783203125,-4.25838692779541,-11.10251164855957,1.8110639183044432
1789454211201417700,8.120417724609375,-4.1368811935424805,-11.56204872970581,1.9041385078430175
1789454211211358000,8.13035791015625,-4.536413595581054,-12.00303074798584,2.4958055931091305
1789454211221298700,8.140298583984375,-4.440645529174804,-12.202198398590086,2.6988638214111327
1789454211231239000,8.150239013671875,-4.353257168579101,-11.444433573150635,2.0917840629577635
1789454211241178600,8.1601787109375,-4.766556230163574,-10.363451523590088,2.6788123825073242
1789454211251118600,8.17011865234375,-4.050241020965576,-9.713126497650146,3.8277299041748045
1789454211261059800,8.180059814453125,-2.9795839660644527,-9.496301609802245,3.9639001235961913
1789454211270999600,8.18999951171875,-2.473808865356445,-9.705943892669676,2.4233809928894043
1789454211280939800,8.199939697265625,-2.754678647613525,-10.035894808959961,1.1355997749328612
1789454211290879700,8.209879638671875,-3.077746234130859,-9.957185429382324,0.7829039428710937
1789454211300820000,8.219820068359375,-3.0265701736450192,-9.566182370758057,0.22954408416748046
1789454211310760700,8.2297607421875,-3.4488474914550777,-9.13627353515625,0.28730419921875
1789454211320700700,8.23970068359375,-3.7383962547302243,-8.575731071472168,1.7331027267456054
1789454211330641000,8.249640869140626,-3.1405940277099607,-7.9643118225097655,2.4516625
1789454211340580600,8.25958056640625,-3.472340595245361,-7.8529814453124995,2.3026234466552733
1789454211350520800,8.269520751953126,-3.6834792541503902,-7.669226467895507,2.625242120361328
1789454211360461800,8.2794619140625,-3.56885684967041,-7.71232209777832,2.814683326721191
1789454211370401800,8.28940185546875,-3.7843349990844724,-8.063820829010009,2.6734254287719725
1789454211380341800,8.299341796875,-3.3969232429504395,-8.073247998046874,2.797624639892578
1789454211390281700,8.30928173828125,-2.728492066955566,-7.516895387268066,2.7974750022888184
1789454211400222000,8.319221923828126,-3.0942063705444336,-7.149983982849121,2.808398547363281
1789454211410162700,8.32916259765625,-3.318513138580322,-6.959644950866699,2.908805379486084
1789454211420103000,8.33910302734375,-3.481318851470947,-7.049277875518799,3.177404878234863
1789454211430042600,8.349042724609374,-3.8419454765319823,-7.359775903320312,3.925892172241211
1789454211439982600,8.358982666015624,-3.4528877067565915,-8.093598712158203,4.50094948348999
1789454211449922800,8.3689228515625,-3.2947207595825194,-8.204629814147948,4.971260472106933
1789454211459863600,8.378863525390624,-3.669562957000732,-8.076540025329589,4.9540521476745605
1789454211469803800,8.3888037109375,-3.7535096527099605,-7.911789023590088,4.412812934875488
1789454211479743700,8.39874365234375,-3.736899878692627,-8.047959243011475,3.12847338180542
1789454211489684000,8.40868408203125,-3.9631519355773923,-8.568099553680419,1.543062969970703
1789454211499623700,8.418623779296874,-4.324227473449707,-8.66940421142578,1.0075099861145018
1789454211509565000,8.42856494140625,-4.441842630004882,-8.508843062591552,1.5107412475585937
1789454211519505000,8.4385048828125,-4.106804035186768,-7.88455497970581,2.4895208137512204
1789454211529444600,8.448444580078124,-4.530428091430664,-7.906402069854736,2.8037597816467286
1789454211539384800,8.458384765625,-5.51609098739624,-8.173804467773436,3.2237925354003902
1789454211549325800,8.468325927734375,-5.849483568572998,-8.31940185623169,4.112340626525879
1789454211559265800,8.478265869140625,-6.247669232177734,-8.417863399505615,4.798877952575683
1789454211569205800,8.488205810546875,-6.54410132522583,-9.522787465667724,4.675726204681396
1789454211579145700,8.498145751953125,-6.46718759689331,-10.385298613739012,4.78181926574707
1789454211589085700,8.508085693359375,-6.486041934967041,-10.691756426239014,4.4376527770996095
1789454211599026700,8.518026611328125,-6.61443099899292,-10.666467671203613,4.3740567955017085
1789454211608967000,8.527966796875,-5.7974096824645995,-10.00432127456665,4.686949024963378
1789454211618906600,8.53790673828125,-4.930559043884277,-9.467720827484131,4.218732962799072
1789454211628846600,8.5478466796875,-5.0775031707763665,-9.48133784942627,3.638288697814941
1789454211638786800,8.557786865234375,-5.815066919708252,-9.372700949096679,3.6873698318481445
1789454211648727300,8.567727294921875,-5.901856729888916,-9.285312588500975,4.319439070129394
1789454211658667300,8.577667236328125,-5.307047254943847,-9.610774376678465,4.294748865509033
1789454211668607500,8.587607421875,-4.650886362457275,-9.649680153656005,4.011784156799316
1789454211678547500,8.59754736328125,-4.3150995796203615,-9.330054232025146,3.813514331817627
1789454211688487400,8.6074873046875,-4.1937434829711915,-8.624812205505371,3.5353380264282226
1789454211698428400,8.617428466796875,-4.3369466697692864,-7.4028715332031245,3.6659716545104977
1789454211708368600,8.62736865234375,-3.9867946769714355,-6.437708988952636,3.3553239891052242
1789454211718308400,8.637308349609375,-3.7804444213867185,-5.8828527542114255,3.005920184326172
1789454211728248300,8.647248291015625,-3.6323031936645505,-5.6058735496521,2.7697920455932614
1789454211738188500,8.6571884765625,-3.8530186592102047,-5.513696785736084,2.5281273155212403
1789454211748129300,8.66712939453125,-4.955997436523437,-5.3850084465026855,2.8274025230407713
1789454211758069500,8.677069580078125,-5.6103626777648925,-5.223250196838379,3.339612040710449
1789454211768009500,8.687009521484375,-5.492298608398437,-5.191078112030029,3.802441149139404
1789454211777949400,8.696949462890625,-5.110573081207275,-5.3399675277709955,3.7409400939941406
1789454211787889400,8.706889404296875,-5.394136340332031,-5.622782598876952,4.0717888359069825
1789454211797830400,8.716830322265626,-5.673809021759033,-5.794416930389404,3.975422219085693
1789454211807770400,8.726770263671876,-6.528838289642334,-5.8551697975158685,4.333056092071533
1789454211817710300,8.73671044921875,-7.132326745605468,-5.6961050247192375,5.529408734130859
1789454211827650600,8.746650634765626,-6.803273654937744,-5.848885018157959,6.275202551269531
1789454211837591300,8.75659130859375,-6.1559413810729975,-6.131550451660156,6.21205548248291
1789454211847531300,8.76653125,-6.027851592254638,-6.616675563049316,5.8554690727233885
1789454211857471500,8.776471435546876,-5.9503393135070795,-6.9533601715087885,5.611410140991211
1789454211867411500,8.786411376953126,-5.894674124908447,-7.1112278434753415,5.5078609191894525
1789454211877351400,8.796351318359376,-6.824971107482909,-7.0187518043518065,5.7052329185485835
1789454211887291400,8.80629150390625,-7.382820094299316,-7.388805598449706,5.249736052703857
1789454211897232600,8.816232666015624,-7.719654340362548,-7.349899821472167,5.058948107910156
1789454211907172400,8.82617236328125,-7.785943798828124,-7.422773334503173,5.276670821380615
1789454211917112300,8.8361123046875,-7.229441550445556,-7.149385432434082,5.341463903808593
1789454211927052500,8.846052490234374,-6.673238577270507,-6.798335614013672,4.6359226020812985
1789454211936993300,8.8559931640625,-6.561758562469482,-6.368576416015625,3.918559929656982
1789454211946933500,8.86593359375,-6.569838993072509,-6.0012160987854,3.8610990898132322
1789454211956873500,8.87587353515625,-6.693439653778076,-5.915174476623535,3.91347225112915
1789454211966813400,8.8858134765625,-7.043442008972168,-5.964854161071777,4.310610451507568
1789454211976753400,8.89575341796875,-6.791003371429443,-6.10371785736084,4.321085083770751
1789454211986694400,8.9056943359375,-6.78606533050537,-6.138433781433105,3.93292513961792
1789454211996634400,8.91563427734375,-7.184849544525146,-5.658246710968017,4.387075267028808
1789454212006574300,8.92557421875,-6.7191773216247555,-5.204994409179688,4.842272857666015
1789454212016514600,8.9355146484375,-6.064363167572021,-5.135263285827636,4.649689261627197
1789454212026454500,8.94545458984375,-5.360018966674804,-5.070619841003418,3.6830303413391112
1789454212036395300,8.955395263671875,-5.1146132965087885,-4.317942694091797,2.9849709197998044
1789454212046335500,8.96533544921875,-5.267243652343749,-3.7873277511596677,2.773832260894775
1789454212056275500,8.975275390625,-5.547365246582031,-3.897760302734375,3.010858225250244
1789454212066215400,8.98521533203125,-5.336076950073242,-4.151695316314697,2.7769746505737305
1789454212076155400,8.9951552734375,-5.238213957214355,-4.497956731414795,2.4353520011901852
1789454212086096600,9.0050966796875,-5.406556261444091,-4.943577515411377,2.3792378997802732
1789454212096036400,9.015036376953125,-5.345055206298828,-5.230283164215088,3.096899847412109
1789454212105976300,9.024976318359375,-5.551854374694824,-5.513696785736084,3.6619314392089843
1789454212115916500,9.03491650390625,-5.522675041961669,-5.707926395416259,3.6706104202270504
1789454212125856500,9.0448564453125,-5.937769754791259,-5.804293012237548,3.4377743087768553
1789454212135797500,9.054797607421875,-6.5123781532287595,-6.025457390594482,3.545663021087646
1789454212145737500,9.064737548828125,-6.872855140686035,-6.449081446838378,4.078821803283692
1789454212155677400,9.074677490234375,-6.784718592071533,-6.510133589172363,3.7995980346679685
1789454212165617400,9.084617431640625,-7.217320904541015,-6.149656601715088,3.614346681213379
1789454212175557400,9.094557373046875,-7.225401335144043,-6.153696817016601,3.627514790344238
1789454212185498400,9.104498291015625,-7.025335858917236,-5.743240869903564,3.2529718681335447
1789454212195438300,9.114438232421875,-7.193528525543212,-5.598840582275391,4.330811528015136
1789454212205378600,9.124378662109375,-7.413795078277587,-5.58028551940918,4.744260227203369
1789454212215318500,9.134318603515625,-7.492055545043945,-5.561880094146728,4.794239186859131
1789454212225259500,9.144259521484376,-7.689577182006835,-5.631760855102539,5.229385338592529
1789454212235199500,9.154199462890626,-7.315183897399902,-5.487510205078125,3.941005570220947
1789454212245139500,9.164139404296876,-7.068281851196288,-4.776731587219238,2.440140404510498
1789454212255079400,9.174079345703126,-6.6899979888916015,-4.582053064727783,2.8274025230407713
1789454212265019400,9.184019287109376,-6.1170356040954585,-4.874145667266846,3.0933085449218747
1789454212274960600,9.193960693359376,-6.476465128326415,-4.600308852386474,2.545634915161133
1789454212284900400,9.203900390625,-7.2337810409545895,-4.27769017868042,2.71337866897583
1789454212294840300,9.21384033203125,-7.5445783439636225,-4.265868807983399,4.048744644927979
1789454212304780500,9.223780517578126,-7.8541785461425775,-4.234594548797607,5.224896210479736
1789454212314720500,9.233720458984376,-7.615207292938232,-4.787804769897461,5.564573571014404
1789454212324661500,9.24366162109375,-7.032069551086425,-4.892850367736816,5.378574029541015
1789454212334601500,9.2536015625,-6.822127993011474,-4.744409864807128,4.82012649230957
1789454212344541200,9.263541259765624,-7.044639109802246,-4.439298790740967,4.018368211364746
1789454212354481400,9.2734814453125,-7.295731008911132,-4.075380138397216,3.2140660911560057
1789454212364421400,9.28342138671875,-7.41903239440918,-4.066401882171631,3.6305075424194335
1789454212374362400,9.2933623046875,-7.555501889038085,-4.279635467529297,5.134066184997558
1789454212384302300,9.30330224609375,-7.779509381866455,-4.654926577758789,5.672761558532715
1789454212394242600,9.31324267578125,-8.000673760223389,-4.971709384918213,6.3803977867126465
1789454212404182500,9.3231826171875,-7.030273899841308,-5.0680760017395015,5.454589932250976
1789454212414122200,9.333122314453124,-7.605929761505126,-4.903773912811279,4.193893120574951
1789454212424063500,9.3430634765625,-6.883629048156738,-4.56514401550293,4.681711708831787
1789454212434003500,9.35300341796875,-6.782922940826416,-4.18222138748169,3.8729204605102536
1789454212443943400,9.362943359375,-6.465990496063232,-3.763535372161865,2.6286837852478024
1789454212453883400,9.37288330078125,-7.165695931243896,-3.2257378242492676,2.675819630432129
1789454212463823400,9.3828232421875,-7.157914775848388,-2.9878140342712403,3.860650177001953
1789454212473764400,9.392764404296875,-6.921786637115478,-3.383006945800781,4.094084838867187
1789454212483704300,9.402704345703125,-7.282263624572754,-3.528753971862793,3.3569700027465816
1789454212493644500,9.41264453125,-7.485770765686035,-3.614346681213379,4.087650421905518
1789454212503584500,9.42258447265625,-7.337030987548828,-3.8654385803222655,4.7022120605468745
1789454212513525500,9.432525390625,-7.304709265136719,-3.9739258430480953,4.393210408782958
1789454212523465500,9.442465576171875,-7.127388704681396,-4.133439528656005,4.430919084930419
1789454212533405400,9.452405517578125,-6.880037745666503,-4.192396744537353,4.215440935516357
1789454212543345400,9.462345458984375,-7.14414811630249,-4.052186309814453,4.202272826385498
1789454212553285400,9.472285400390625,-7.181108604431152,-3.758447693634033,4.325574211883545
1789454212563226400,9.482226318359375,-6.9545572723388664,-3.4171243194580074,4.313752841186523
1789454212573166300,9.492166259765625,-6.9360022094726554,-3.3535283378601073,4.3816883132934565
1789454212583106600,9.5021064453125,-6.63986939163208,-3.981407723236084,4.23309817276001
1789454212593046500,9.512046630859375,-6.788309894561767,-4.362983612823486,4.166359801483154
1789454212602986200,9.521986328125,-7.340921565246582,-4.28981082458496,5.154716174316406
1789454212612927500,9.531927490234375,-6.121674369812012,-5.066729263305664,6.100725105285644
1789454212622867500,9.541867431640625,-6.18631781463623,-5.549310535430908,5.045929636383057
1789454212632807400,9.551807373046875,-7.732373536682128,-5.587617761993408,4.387973092651367
1789454212642747400,9.561747314453125,-7.646331914520263,-4.9741035865783685,5.286397265624999
1789454212652687600,9.5716875,-6.790704096221924,-4.294898503112793,5.773766941070556
1789454212662628400,9.58162841796875,-7.110928568267822,-4.362684337615967,5.662286926269531
1789454212672568600,9.591568603515626,-6.391022056579589,-5.444414575195312,5.477035572814941
1789454212682508500,9.601508544921876,-5.448305152893066,-7.178864040374755,4.659714981079102
1789454212692448500,9.611448486328126,-7.2252516975402825,-7.664438064575195,4.126705836486816
1789454212702388500,9.621388427734376,-6.928819604492187,-7.455244694519043,4.810699323272705
1789454212712329700,9.631329833984376,-5.481375063323974,-7.020098542785644,4.825064533233642
1789454212722269400,9.64126953125,-6.424391242218017,-6.522254235076904,3.975272581481933
1789454212732209400,9.65120947265625,-6.926126127624511,-5.965003798675537,4.040065663909912
1789454212742149600,9.661149658203126,-5.4887073059082025,-5.335029486846923,4.356998108673095
1789454212752089600,9.671089599609376,-5.504868167114258,-4.767454055786133,3.747075235748291
1789454212762030600,9.681030517578124,-5.530007284545898,-4.327369863128662,2.9198785621643064
1789454212771970600,9.690970458984374,-4.451419436645508,-3.790470140838623,2.909852842712402
1789454212781910500,9.70091064453125,-3.903446531677246,-3.7675755874633787,2.490568276977539
1789454212791850500,9.7108505859375,-6.054636723327636,-4.0985739669799806,1.859097589111328
1789454212801790500,9.72079052734375,-7.488164967346191,-4.432565098571777,3.0334535034179684
1789454212811731500,9.7307314453125,-6.153098266601562,-5.250184965515136,4.495712167358398
1789454212821671400,9.74067138671875,-7.341370478057861,-6.340893459320068,5.492747521209717
1789454212831611400,9.750611328125,-8.098387115478515,-7.7204025283813476,6.055235273742675
1789454212841551600,9.760551513671874,-6.571485006713867,-8.806322618865966,6.509385401153564
1789454212851491300,9.7704912109375,-6.026205578613281,-9.196876764678954,6.863278334045409
1789454212861432600,9.7804326171875,-4.434211112213134,-8.91316386795044,6.747608466339111
1789454212871372500,9.79037255859375,-3.6064158882141113,-8.03239693222046,5.528361270904541
1789454212881312500,9.8003125,-5.635651432800293,-7.098807922363281,4.237437663269043
1789454212891252500,9.81025244140625,-5.756109703826904,-6.555024870300293,3.820397661590576
1789454212901192400,9.8201923828125,-4.60300232925415,-6.429778195953369,3.9323265892028805
1789454212911133400,9.830133544921875,-4.867112699890137,-6.430676021575928,4.391714032745361
1789454212921073400,9.840073486328125,-5.5546974891662595,-6.950217781829833,3.9477392623901366
1789454212931013600,9.850013671875,-5.879111814117431,-7.518840676116943,3.937713542938232
1789454212940953600,9.85995361328125,-4.631134198760986,-8.185326563262938,4.339340871429443
1789454212950893300,9.869893310546875,-4.006846115875244,-8.773851258850097,3.900154504394531
1789454212960834600,9.87983447265625,-6.264727919006347,-9.392153837585449,2.6541221778869626
1789454212970774500,9.8897744140625,-6.6145806365966795,-9.727641345214844,2.1829133636474607
1789454212980714500,9.899714599609375,-4.1624692237854,-10.178050532531739,2.29214881439209
1789454212990654500,9.909654541015625,-4.515314693450928,-10.73769517059326,2.461987494659424
1789454213000594700,9.9195947265625,-6.086808808135986,-11.139921049499511,2.443432431793213
1789454213010535400,9.929535400390625,-5.362113893127441,-11.231798538208007,2.9385832626342774
1789454213020475600,9.9394755859375,-3.459621398925781,-11.05073703765869,3.8248867897033687
1789454213030415600,9.94941552734375,-3.5462615715026855,-10.794557460021972,3.993977281951904
1789454213040355300,9.959355224609375,-4.970512284088135,-9.868599967956543,3.341706967163086
1789454213050295600,9.969295654296875,-4.6246997817993165,-8.941146099853515,2.5477298416137693
1789454213060236500,9.979236572265625,-2.7570728492736816,-8.364742050170898,1.5789759948730469
1789454213070176500,9.989176513671875,-2.7726351600646972,-7.752873888397216,0.715716658782959
1789454213080116500,9.999116455078125,-3.925143984222412,-7.472153743743896,0.3589806114196777
1789454213090056400,10.009056396484375,-4.544942938995361,-6.719476596832275,0.8641571617126464
1789454213099996700,10.01899658203125,-4.274098876190186,-6.085910982513427,1.8632874420166015
1789454213109937400,10.0289375,-2.900276036071777,-5.806088663482666,1.7681179260253905
1789454213119877600,10.038877685546876,-2.3514053054809567,-5.959018294525146,1.3792097938537597
1789454213129817600,10.048817626953126,-3.6825814285278318,-6.351817004394531,0.852934341430664
1789454213139757300,10.05875732421875,-4.126855474090576,-6.93974314956665,-0.012120645904541014
1789454213149697500,10.068697509765625,-4.183867401123047,-7.765892359924316,0.24974516067504882
1789454213159638500,10.078638427734376,-4.191947831726074,-8.641421979522704,1.8900725730895995
1789454213169578500,10.08857861328125,-4.290858287811279,-9.387963984680175,3.1467291694641113
1789454213179518500,10.0985185546875,-4.713135605621337,-9.762057994079589,4.10485874633789
1789454213189458700,10.108458740234376,-4.544045113372802,-9.889249957275391,4.3369466697692864
1789454213199398400,10.1183984375,-4.112041351318359,-9.847201790618897,3.943100496673584
1789454213209339600,10.128339599609374,-3.980060984802246,-9.657311671447752,4.196586597442627
1789454213219279600,10.138279541015624,-3.462763788604736,-9.169642720794677,4.594024073028564
1789454213229219300,10.14821923828125,-3.3330279861450194,-8.734646206665039,3.8042368003845213
1789454213239159600,10.15815966796875,-3.7544074783325194,-8.603563665771484,3.3845033218383787
1789454213249099500,10.168099609375,-4.123862722015381,-8.747515040588379,3.7337574890136715
1789454213259040500,10.17804052734375,-3.8985084907531737,-9.207052121734618,4.00265626296997
1789454213268980500,10.18798046875,-3.6673183929443356,-9.87683003616333,2.607884158325195
1789454213278920400,10.19792041015625,-3.982604824066162,-10.78917050628662,1.4544775085449217
1789454213288860700,10.207860595703124,-4.694580542755126,-11.757176165008545,2.337937921142578
1789454213298800400,10.21780029296875,-4.653729476928711,-12.281955241394042,3.205536747741699
1789454213308741600,10.22774169921875,-5.12029952545166,-12.087575994110107,3.209427325439453
1789454213318681600,10.237681640625,-5.14603719329834,-11.611129863739013,3.047968350982666
1789454213328621600,10.24762158203125,-4.921431150054931,-11.054926890563964,3.7249288703918455
1789454213338561500,10.2575615234375,-4.3442789123535155,-10.321403356933594,4.391265119934082
1789454213348501500,10.26750146484375,-3.6445734771728513,-9.632621466827391,4.282029669189453
1789454213358442500,10.2774423828125,-3.072209642791748,-9.361777404022217,3.3912370140075683
1789454213368382500,10.287382568359375,-2.8006173919677733,-9.386018695831298,2.63676421585083
1789454213378322700,10.29732275390625,-2.313546991729736,-9.111583330535888,2.2891560623168945
1789454213388262400,10.307262451171875,-2.0121768577575683,-8.811859210205078,2.1903952438354493
1789454213398202400,10.317202392578125,-1.7609353210449217,-8.193406993865967,2.1996727752685548
1789454213408143600,10.3271435546875,-1.3045406295776367,-7.818115883636474,1.5312415992736816
1789454213418083300,10.337083251953125,-1.9844939010620115,-7.7513775123596185,1.0761936462402344
1789454213428023600,10.3470234375,-2.578555187988281,-7.7605054061889645,1.2389993591308592
1789454213437963500,10.356963623046875,-2.7531822715759278,-7.768585836791992,1.5322890624999999
1789454213447903500,10.366903564453125,-3.829226280212402,-8.289474335479737,2.0124761329650878
1789454213457844500,10.376844482421875,-4.636371514892578,-8.519467332458495,2.7070938896179197
1789454213467784400,10.386784423828125,-4.963180041503906,-8.72716432647705,2.8191724548339843
1789454213477724700,10.396724609375,-5.585373197937011,-8.590694831848143,2.921524575805664
1789454213487664400,10.406664306640625,-5.268889665985107,-8.053046921539305,3.093607820129394
1789454213497604600,10.4166044921875,-4.736628709411621,-7.702745291137695,3.3714848503112793
1789454213507545300,10.42654541015625,-3.955071504974365,-7.211485037994384,3.896563201904297
1789454213517485600,10.436485595703125,-3.2199019577026364,-6.884077960968018,3.8935704498291015
1789454213527425500,10.446425537109375,-3.197905229949951,-6.490680700683593,3.7624879089355465
1789454213537365500,10.456365478515625,-3.7092169219970703,-5.906645133209228,3.3131261848449705
1789454213547305500,10.466305419921875,-4.1463083625793455,-6.040271513366699,2.155230406951904
1789454213557246500,10.47624658203125,-4.658667517852783,-6.781875477600098,1.158045415496826
1789454213567186700,10.486186767578126,-5.278316835021973,-6.363937650299072,1.8110639183044432
1789454213577126400,10.49612646484375,-5.2347722923278805,-6.2575453140258785,2.3451205261230466
1789454213587066400,10.50606640625,-5.409997926330566,-6.520757859039306,3.291129457092285
1789454213597006600,10.516006591796875,-6.133046827697753,-6.875398979949951,4.414458948516845
1789454213606947300,10.525947265625,-6.94572865371704,-7.391199800109863,5.296871897888184
1789454213616887600,10.535887451171876,-7.185148819732666,-7.9192709037780755,5.803993737030029
1789454213626827500,10.54582763671875,-6.355557944488525,-8.307879760742187,5.728875659942626
1789454213636767700,10.555767822265626,-5.653159032440185,-8.025962515258788,5.58642066116333
1789454213646707200,10.565707275390626,-5.226991136932373,-7.344512867736816,5.26095887298584
1789454213656648400,10.5756484375,-4.751442832183837,-7.062595622253418,4.731541030883789
1789454213666588400,10.58558837890625,-4.965574243164062,-7.36157155456543,4.263025693511962
1789454213676528000,10.595528076171876,-5.753715502166748,-7.8633064399719235,4.415057498931884
1789454213686468400,10.60546826171875,-6.897395707702636,-8.39511848373413,5.021089794158935
1789454213696408300,10.615408203125,-7.255777768707275,-8.91271495513916,4.895843119812011
1789454213706349300,10.625349365234374,-7.341520115661621,-9.062651834106445,4.572027345275878
1789454213716289300,10.635289306640624,-7.017405065917968,-8.772953433227539,4.486284998321533
1789454213726229200,10.645229248046874,-6.531980679321289,-8.389731529998778,4.264372431945801
1789454213736169200,10.655169189453124,-6.41586189880371,-7.697358337402343,4.4193969894409175
1789454213746109200,10.665109130859374,-5.776759693145752,-6.8584899307250975,4.3439796371459956
1789454213756050400,10.675050537109374,-5.679345613098144,-6.370521704864502,4.145410536956787
1789454213765990100,10.684990234375,-5.6295162910461425,-6.223727215576171,4.058920001983642
1789454213775930400,10.694930419921874,-5.700743790435791,-6.5026517089843745,3.6186861717224117
1789454213785870300,10.704870361328124,-7.127538342285156,-6.745214264678955,4.3631332504272455
1789454213795810300,10.714810302734374,-7.392097625732421,-6.928669966888427,5.844695165252685
1789454213805751300,10.724751220703125,-6.976254724884033,-7.320720488739013,5.965452711486816
1789454213815691300,10.734691162109375,-6.749703392791748,-7.6665329910278315,5.597643481445312
1789454213825631500,10.744631591796875,-5.746383259582519,-7.826345951843261,4.045751892852783
1789454213835571200,10.7545712890625,-6.060771865081787,-7.683142765045165,2.9281086303710935
1789454213845511200,10.76451123046875,-6.034884559631347,-7.164049917602538,3.2933740211486815
1789454213855451400,10.774451416015625,-5.379172579956054,-7.045088022613525,3.117400199127197
1789454213865392000,10.78439208984375,-5.098602072906494,-6.311115576171875,2.198176399230957
1789454213875332400,10.794332275390625,-5.113266558074951,-6.277147840118408,2.020706201171875
1789454213885272300,10.804272216796875,-5.5720554512023925,-6.25021307144165,2.3452701637268065
1789454213895212300,10.81421240234375,-5.932382801055907,-6.201431212615966,2.993051350402832
1789454213905152300,10.82415234375,-6.239738439178466,-5.986102700805664,3.7585973312377927
1789454213915093500,10.834093505859375,-5.811325979614257,-5.947795474243164,3.735403502655029
1789454213925033200,10.844033203125,-5.779902082824707,-5.869385369873046,2.7054478759765623
1789454213934973200,10.85397314453125,-6.668599811553955,-5.093514394378662,3.210624426269531
1789454213944913400,10.863913330078125,-6.333710854339599,-4.484638984680175,3.8097733917236325
1789454213954853400,10.873853271484375,-5.671414820098876,-4.567538217163086,3.6540006462097168
1789454213964794400,10.88379443359375,-5.794117655181885,-5.1419969779968255,3.312677272033691
1789454213974734300,10.893734375,-5.543175393676758,-5.468506229400634,3.036745530700683
1789454213984674300,10.90367431640625,-5.741445218658447,-5.48406854019165,2.5474305664062498
1789454213994614300,10.9136142578125,-6.565050589752197,-4.844966334533691,2.332102054595947
1789454214004554200,10.92355419921875,-7.403769358825683,-4.859780457305908,2.2878093238830566
1789454214014495500,10.93349560546875,-8.369380815887451,-5.654954683685302,3.097797673034668
1789454214024435200,10.943435302734375,-9.15587606124878,-6.206668528747558,4.2791865547180175
1789454214034375200,10.953375244140625,-8.589797006225586,-7.022043831634521,5.031714064025879
1789454214044315400,10.9633154296875,-7.959224143981933,-7.136666236114501,4.237587300872803
1789454214054255400,10.97325537109375,-7.79552060546875,-6.632836424255371,3.71565133895874
1789454214064196400,10.9831962890625,-7.173327449035644,-6.1836243377685545,3.40275910949707
1789454214074136300,10.99313623046875,-7.242460021972656,-5.411195027160645,2.1894974182128903
1789454214084076300,11.003076171875,-7.772775689697265,-4.809352584838867,3.3973721557617185
1789454214094016300,11.013016357421876,-7.83337891921997,-4.778078325653076,4.4111669212341305
1789454214103956200,11.022956298828126,-7.400776606750488,-5.3679497596740715,3.7339071266174315
1789454214113897200,11.032897216796876,-6.744765351867676,-5.384858808898925,2.780416315460205
1789454214123837200,11.042837158203126,-7.161356440734862,-4.567238941955567,2.834136215209961
1789454214133777400,11.05277734375,-7.3657614074707025,-3.891176248168945,3.7024832298278807
1789454214143717400,11.06271728515625,-6.826168208312988,-3.6248213134765623,3.981407723236084
1789454214153657000,11.072656982421876,-5.997026245880127,-3.4651579902648924,3.826083890533447
1789454214163598300,11.082598388671874,-6.274903276062012,-3.745129946899414,4.088847522735596
1789454214173538300,11.092538330078124,-7.4220251464843745,-3.678690850830078,4.970063371276855
1789454214183478300,11.102478271484374,-7.147889056396484,-4.361786511993408,5.955726267242431
1789454214193418200,11.112418212890624,-6.3709706176757805,-5.0182466796875,5.641936212158202
1789454214203358500,11.1223583984375,-7.363666481018066,-5.184643695068359,4.521000922393799
1789454214213298400,11.13229833984375,-7.505074016571045,-5.143194078826904,5.5921068901062005
1789454214223239400,11.142239501953124,-5.4996308509826655,-5.3950341659545895,4.576516473388671
1789454214233179400,11.152179443359374,-6.373963369750976,-5.050418764495849,2.946962968444824
1789454214243119400,11.162119384765624,-5.89302811126709,-4.540304173278808,3.6255695014953613
1789454214253059300,11.172059326171874,-5.673958659362793,-4.342932173919677,3.202394358062744
1789454214263000300,11.182000244140625,-6.322787309265136,-4.32213254699707,3.0002339553833006
1789454214272940300,11.191940185546875,-5.902455280303955,-4.069095359039307,3.5028666664123533
1789454214282880300,11.20188037109375,-6.560411824035644,-3.5538930892944336,2.703652224731445
1789454214292820200,11.2118203125,-6.838887404632568,-3.1688755348205566,4.218732962799072
1789454214302760400,11.221760498046875,-6.440103190612793,-2.5610475883483885,4.573224446105956
1789454214312700200,11.2317001953125,-5.837063647460937,-2.671629777526855,3.7862802879333493
1789454214322641400,11.241641357421875,-6.615328824615478,-2.666093186187744,3.4030583847045897
1789454214332581400,11.251581298828125,-6.6891001632690426,-2.69437469329834,3.043479222869873
1789454214342521000,11.26152099609375,-7.011868474578857,-2.5297733291625977,3.6481647796630856
1789454214352461300,11.27146142578125,-6.178835934448242,-2.4060230308532713,4.299088356018066
1789454214362401300,11.2814013671875,-7.1501336204528805,-2.3753473220825194,3.4597710365295407
1789454214372342300,11.29134228515625,-7.696759786987304,-2.3876176055908203,3.6912604095458983
1789454214382282200,11.3012822265625,-6.424690517425537,-2.5007436340332028,4.712686692810058
1789454214392222500,11.311222412109375,-7.417536018371582,-3.3833062210083007,3.75395856552124
1789454214402162400,11.321162353515625,-8.068908507537842,-4.319139794921875,3.8853403816223144
1789454214412102100,11.33110205078125,-7.836970221710205,-5.134814373016357,5.092766206359863
1789454214422043400,11.34104345703125,-7.887398094177246,-5.865943704986572,6.473023463439941
1789454214431983400,11.3509833984375,-7.266850951385497,-6.667552348327637,7.390301974487304
1789454214441923300,11.36092333984375,-7.410951963806152,-7.156268762207031,6.650643299102783
1789454214451863300,11.37086328125,-7.6294228652954095,-6.737582746887207,5.844246252441406
1789454214461803300,11.38080322265625,-7.209839024353027,-5.626822814178467,6.187963828277588
1789454214471744300,11.390744140625,-6.143970372772216,-4.7943888244628905,5.98236176071167
1789454214481684200,11.400684326171875,-6.063016429138183,-4.633079487609863,5.310040007019043
1789454214491624400,11.41062451171875,-6.354660118865967,-4.369866942596436,5.006126033782959
1789454214501564200,11.420564208984375,-6.4454901443481445,-4.497208543395995,4.60300232925415
1789454214511504400,11.43050439453125,-6.767809542846679,-4.7280993659973145,4.401889389801025
1789454214521444400,11.4404443359375,-6.16686492614746,-5.096507146453857,4.612878411102295
1789454214531385300,11.45038525390625,-5.9856537879943845,-5.706579656982422,4.4762592788696285
1789454214541325300,11.4603251953125,-7.153724922943115,-6.108356623077392,4.062810579681396
1789454214551265300,11.470265380859376,-7.157615500640869,-6.309619200134277,4.132392065429687
1789454214561205500,11.48020556640625,-6.557867984771728,-6.147412037658691,4.221426439666748
1789454214571145200,11.490145263671875,-6.573131020355224,-6.130203713226318,3.8590041633605954
1789454214581086500,11.50008642578125,-5.3968298171997064,-6.169708040618896,3.875913212585449
1789454214591026400,11.5100263671875,-5.176114351654053,-6.392368795013427,3.5913024902343746
1789454214600966100,11.519966064453126,-6.217741711425781,-6.455964776611328,3.028665100097656
1789454214610906400,11.52990625,-5.589263775634765,-6.490830338287354,3.2881367050170898
1789454214620846300,11.539846435546876,-3.557334754180908,-6.153696817016601,3.821145849609375
1789454214630787300,11.549787353515624,-3.576488367462158,-5.760598831939697,3.6884172950744625
1789454214640727300,11.559727294921874,-4.175936608123779,-5.439626171875,3.0891186920166014
1789454214650667500,11.56966748046875,-4.225765930175781,-5.078550634002685,2.359036823272705
1789454214660607200,11.579607177734376,-3.688118019866943,-4.530428091430664,2.288856787109375
1789454214670547500,11.58954736328125,-3.686172731018066,-4.177133708953857,2.101211231994629
1789454214680488400,11.599488525390624,-4.828506198120117,-4.300285456848144,2.014720697021484
1789454214690428400,11.609428466796874,-7.22106184463501,-4.8798318962097165,2.754678647613525
1789454214700368400,11.619368408203124,-7.584830859375,-5.76508796005249,4.139574670410156
1789454214710308400,11.629308349609374,-6.922385187530518,-6.825868933105468,5.1410991523742675
1789454214720248600,11.63924853515625,-8.876203379821776,-7.99917738418579,5.4327428421020505
1789454214730189300,11.649189208984374,-8.321945695495605,-10.051008206939697,5.9014078170776365
1789454214740129500,11.659129638671875,-5.351339985656738,-11.442488284301756,6.700771896362304
1789454214750069500,11.669069580078125,-5.068375276947021,-12.356923680877685,5.8925791984558105
1789454214760009200,11.67900927734375,-7.101651036834716,-13.014132036590576,5.1039890266418455
1789454214769949400,11.688949462890625,-5.50950693283081,-12.822446266174316,5.79696076965332
1789454214779889400,11.698889404296875,-3.9835026496887203,-11.209502535247802,6.95261198348999
1789454214789830400,11.708830322265625,-5.3865048225402825,-9.670928693389891,6.800430540466309
1789454214799770400,11.718770263671875,-5.769876363372802,-9.042450757598877,5.6678235176086424
1789454214809710600,11.728710693359375,-4.941781864166259,-8.889820401763915,4.653130926513672
1789454214819650300,11.738650390625,-3.4388217720031737,-9.171887284851074,3.2134675407409667
1789454214829590300,11.74859033203125,-2.9493571701049803,-9.134627521514892,1.152957736968994
1789454214839531500,11.758531494140625,-3.8352117843627926,-8.948627980041504,-0.22131401596069333
1789454214849471200,11.76847119140625,-4.594323348236084,-8.797045087432862,-0.31648353195190426
1789454214859411500,11.778411376953125,-4.021211325836181,-8.500762631988525,0.1279401512145996
1789454214869351400,11.788351318359375,-3.787178113555908,-8.587552442169189,0.5289689292907714
1789454214879291400,11.79829150390625,-4.741267475128174,-9.431508527374268,1.1195885513305663
1789454214889232400,11.808232421875,-4.261828592681884,-10.0878190574646,1.1041758781433104
1789454214899172400,11.81817236328125,-3.07729732131958,-10.160991845703125,0.9446621925354003
1789454214909112600,11.828112548828125,-3.2769138847351074,-9.725845693969726,0.8690952026367187
1789454214919052300,11.83805224609375,-4.25195251083374,-8.897900832366943,0.9012672874450683
1789454214928992300,11.8479921875,-4.660014256286621,-7.44402187423706,2.0464438690185545
1789454214938932500,11.857932373046875,-3.6572926734924316,-6.3150061538696285,3.4261025756835934
1789454214948873200,11.867873291015625,-2.871545616149902,-6.280589505004882,3.362805869293213
1789454214958813400,11.8778134765625,-3.394529041290283,-7.468113528442382,2.3454198013305665
1789454214968753400,11.88775341796875,-3.8386534492492674,-9.013421062469481,1.9494787017822264
1789454214978693400,11.897693359375,-3.5136405738830563,-9.98501802368164,2.368015079498291
1789454214988633300,11.90763330078125,-3.3871967987060545,-10.230722969055176,3.2206501457214354
1789454214998574600,11.91757470703125,-3.740491181182861,-9.367762908172606,4.527884252166748
1789454215008514300,11.927514404296875,-3.58816010055542,-8.198644309997558,4.90317536239624
1789454215018454300,11.937454345703125,-3.2486323776245114,-7.906701345062255,3.4949358734130858
1789454215028394500,11.94739453125,-3.886687120056152,-8.139088543701172,3.162141842651367
1789454215038334500,11.95733447265625,-4.090792811584472,-8.723722661590577,3.65819049911499
1789454215048275500,11.967275390625,-4.040065663909912,-9.465326625823973,3.0521582038879393
1789454215058215400,11.97721533203125,-4.634575863647461,-9.79961703262329,2.858676782226562
1789454215068155400,11.9871552734375,-4.255094900512695,-9.721655841064452,2.334047343444824
1789454215078095400,11.997095458984376,-4.374804983520508,-9.703250415802001,2.0370166999816894
1789454215088035300,12.007035400390626,-4.293551764678955,-9.542539629364013,1.9220950202941893
1789454215097975600,12.0169755859375,-4.179527910614014,-9.825953250885009,1.4891934326171874
1789454215107916300,12.026916259765626,-4.369866942596436,-10.048015454864501,1.5943886680603025
1789454215117856500,12.0368564453125,-4.235941287231445,-10.135852728271484,2.051830822753906
1789454215127796500,12.04679638671875,-4.440645529174804,-10.453383723449706,2.5480291168212887
1789454215137736400,12.056736328125,-4.459200592041015,-10.219200873565674,3.3583167411804196
1789454215147676400,12.066676513671876,-3.925892172241211,-9.704746791839598,3.7180455406188964
1789454215157617400,12.076617431640624,-3.539378241729736,-9.60748234939575,3.422660910797119
1789454215167557400,12.086557373046874,-3.9221512321472165,-9.784204359436034,3.261501211547851
1789454215177497300,12.096497314453124,-3.9104794990539546,-9.804405435943602,2.990357873535156
1789454215187437300,12.106437255859374,-3.6454713027954098,-9.706692080688477,2.205807917022705
1789454215197377500,12.11637744140625,-3.9214030441284176,-9.650877254486083,1.6133926437377928
1789454215207318300,12.126318359375,-4.315249217224121,-8.609249894714354,2.246658982849121
1789454215217258500,12.136258544921875,-3.386149335479736,-7.66114603729248,2.3521534934997557
1789454215227198500,12.146198486328124,-3.6830303413391112,-7.201758593749999,2.2532430374145505
1789454215237138200,12.15613818359375,-4.801721067047119,-6.753145057678222,2.8664579376220702
1789454215247078400,12.166078369140624,-4.759074349975585,-6.397905386352539,3.460968137359619
1789454215257018400,12.176018310546874,-4.329614427185058,-6.794744311523437,3.041683571624756
1789454215266959400,12.18595947265625,-4.9537528724670405,-6.972813059997558,2.8016648551940917
1789454215276899300,12.1958994140625,-4.936544548034668,-6.627898383331298,3.321206615447998
1789454215286839600,12.205839599609375,-3.5980361824035643,-6.902333748626709,3.0192379310607906
1789454215296779500,12.215779541015625,-3.2793080863952633,-7.289296591949462,2.7341782958984373
1789454215306719200,12.22571923828125,-4.083909481811523,-7.097012271118164,3.3741783271789547
1789454215316660500,12.235660400390625,-4.3363481193542475,-6.924330476379394,4.02869320602417
1789454215326600200,12.24560009765625,-4.8971898582458495,-6.842478707122802,4.23938295211792
1789454215336540400,12.25554052734375,-6.012738194274902,-6.98433515548706,4.626345795440674
1789454215346480400,12.26548046875,-6.35256519241333,-7.417386380767822,4.554370108032226
1789454215356420400,12.27542041015625,-6.511629965209961,-7.819013709259033,4.1624692237854
1789454215366360300,12.2853603515625,-6.800580178070068,-7.883657154083251,4.267664459228516
1789454215376301300,12.29530126953125,-6.55023646697998,-7.808838352203368,4.680963520812988
1789454215386241500,12.305241455078125,-6.134393566131592,-7.642590974426269,4.94776736831665
1789454215396181200,12.31518115234375,-6.085312432098388,-7.088034014892577,5.443666387176513
1789454215406121500,12.32512158203125,-5.666776054382324,-6.816591401672363,5.345504119110107
1789454215416061400,12.3350615234375,-5.463418550872802,-7.224054596710205,4.824615620422363
1789454215426002400,12.34500244140625,-6.1930515068054195,-7.645883001708984,4.9066170272827145
1789454215435942400,12.3549423828125,-6.965031904602051,-7.979125945281982,5.1508255966186525
1789454215445882400,12.36488232421875,-7.569717461395263,-8.51108762664795,5.097105696868896
1789454215455822600,12.374822509765625,-7.791480390167236,-8.82951644744873,5.061491947174072
1789454215465762300,12.38476220703125,-6.968922482299805,-8.806322618865966,4.800523966217041
1789454215475703600,12.39470361328125,-5.715109000396728,-8.328380112457275,4.361786511993408
1789454215485643300,12.404643310546875,-4.7387236358642575,-7.891438309478759,4.023605527496338
1789454215495583200,12.414583251953125,-4.743811314392089,-7.367856333923339,3.872770822906494
1789454215505523500,12.4245234375,-5.167136095428466,-6.595875936126709,4.239831864929199
1789454215515463400,12.43446337890625,-4.712686692810058,-6.152649353790283,4.323628923034668
1789454215525403400,12.4444033203125,-4.295197778320312,-5.973233866882324,4.017620023345947
1789454215535344400,12.454344482421876,-4.574571184539795,-5.711368060302734,3.4576761100769042
1789454215545284400,12.464284423828126,-5.62457825012207,-5.113266558074951,3.4202667091369627
1789454215555224300,12.474224365234376,-5.775113679504394,-4.208108692932129,3.954472954559326
1789454215565164300,12.484164306640626,-5.68847350692749,-3.9106291366577146,4.069993184661865
1789454215575104500,12.4941044921875,-5.937769754791259,-3.9727287422180173,4.696076918792724
1789454215585045200,12.504045166015626,-5.66303511428833,-4.186111965179443,5.364807369995117
1789454215594985500,12.5139853515625,-5.517138450622558,-4.765059854125976,6.036380935668945
1789454215604925400,12.523925537109376,-5.590909789276123,-5.832424881744385,5.4141877792358395
1789454215614865400,12.533865478515626,-6.6891001632690426,-6.227617793273925,4.814589900970459
1789454215624805400,12.543805419921876,-7.017405065917968,-6.190507667541503,4.389918381500244
1789454215634745300,12.553745361328126,-7.319373750305175,-6.01408493270874,3.944297597503662
1789454215644686300,12.563686279296874,-8.024466139221191,-6.0142345703124995,4.382436501312256
1789454215654626600,12.57362646484375,-7.215974166107177,-6.164919637298584,4.229955783081055
1789454215664566800,12.58356689453125,-7.272237905120849,-6.5774705108642575,4.253897799682617
1789454215674506800,12.5935068359375,-7.12454559020996,-6.725162825775146,5.023633633422851
1789454215684446500,12.603446533203124,-6.427683269500732,-6.702417910003661,5.128080680847168
1789454215694387700,12.6133876953125,-6.253804373931884,-6.567295153808593,4.814290625762939
1789454215704327700,12.62332763671875,-6.073191786193847,-6.4080807434082026,4.3549031822204585
1789454215714267600,12.633267578125,-5.986102700805664,-6.3144076034545895,4.299836544036865
1789454215724207600,12.64320751953125,-5.533897862243652,-6.240486627197265,3.573944528198242
1789454215734147600,12.653147705078124,-5.336226587677001,-5.647173528289795,2.348861466217041
1789454215744087800,12.663087890625,-5.577741680145263,-4.7301942924499505,2.0670938583374023
1789454215754028500,12.673028564453125,-5.7968111320495606,-3.67120897064209,1.6531962463378904
1789454215763968800,12.68296875,-6.593631372070312,-3.2809541000366207,1.8210896377563475
1789454215773908700,12.69290869140625,-6.844723271179199,-3.2118215270996093,2.4465748214721676
1789454215783848400,12.702848388671875,-6.789506995391846,-4.0066964782714845,3.8043864379882812
1789454215793788700,12.71278857421875,-6.544550238037109,-5.506214905548095,4.987570970916748
1789454215803729400,12.7227294921875,-6.386084015655517,-6.186617089843749,4.030788132476807
