time,seconds_elapsed,z,y,x
1789454203139948500,0.058948486328125,0.1461353749036789,0.30111801624298096,0.738053560256958
1789454203149888800,0.068888671875,0.24153272807598114,0.4676220417022705,0.6332206130027771
1789454203159828700,0.078828857421875,0.309775173664093,0.6284351944923401,0.5313424468040466
1789454203169768400,0.0887685546875,0.3378893733024597,0.7048354148864746,0.46101900935173035
1789454203179708700,0.098708740234375,0.37092161178588867,0.6636858582496643,0.3848073482513428
1789454203189648600,0.108648681640625,0.42246949672698975,0.606412947177887,0.3180685043334961
1789454203199588600,0.118588623046875,0.4709603190422058,0.6654541492462158,0.2879476249217987
1789454203209528600,0.128528564453125,0.544021487236023,0.8260310888290405,0.2622643709182739
1789454203219468500,0.138468505859375,0.6119816303253174,1.015249252319336,0.2081441432237625
1789454203229408800,0.14840869140625,0.721176266670227,1.2529256343841553,0.23388919234275818
1789454203239349500,0.158349609375,0.8986964821815491,0.7287575006484985,0.2688160240650177
1789454203249289700,0.168289794921875,0.9498515725135803,-0.3909483253955841,0.30023813247680664
1789454203259229700,0.178229736328125,0.9432410597801208,-1.2902480363845825,0.46056947112083435
1789454203269169700,0.188169677734375,0.8680413961410522,-1.7732421159744263,0.599169135093689
1789454203279109600,0.198109619140625,0.41082748770713806,-1.566206932067871,0.8936218619346619
1789454203289049600,0.208049560546875,-0.209228053689003,-1.3611525297164917,1.1053447723388672
1789454203298989600,0.217989501953125,-0.2820572555065155,-1.5769988298416138,0.9993618726730347
1789454203308929800,0.2279296875,-0.12457574903964996,-1.4479843378067017,0.8088923096656799
1789454203318869500,0.237869384765625,-0.09841764718294144,-0.9066864848136902,0.6288937926292419
1789454203328809700,0.247809814453125,-0.044985849410295486,-0.5096171498298645,0.38675010204315186
1789454203338749700,0.257749755859375,0.07907937467098236,-0.3650996685028076,0.15393629670143127
1789454203348689700,0.267689697265625,0.23570840060710907,-0.24950756132602692,0.02461080439388752
1789454203358629600,0.277629638671875,0.39352840185165405,-0.0427679717540741,-0.05435884743928909
1789454203368569600,0.287569580078125,0.4242788553237915,-0.09281568974256516,-0.04657655581831932
1789454203378509600,0.297509521484375,0.38484087586402893,-0.1798699051141739,0.05819566175341606
1789454203388449800,0.30744970703125,0.3578697144985199,-0.2857241630554199,0.18274743854999542
1789454203398389500,0.317389404296875,0.34898221492767334,-0.2494838684797287,0.27479055523872375
1789454203408329700,0.327329833984375,0.3535892367362976,-0.03598250076174736,0.32274341583251953
1789454203418269700,0.337269775390625,0.3857154846191406,0.12151125073432922,0.2965989112854004
1789454203428209700,0.347209716796875,0.453610897064209,0.0369497612118721,0.2453857958316803
1789454203438150700,0.357150634765625,0.5273080468177795,-0.23510704934597015,0.24837012588977814
1789454203448090600,0.367090576171875,0.675670862197876,-0.6221298575401306,0.31927627325057983
1789454203458030600,0.377030517578125,0.9047037959098816,-0.911557674407959,0.4206787943840027
1789454203467970600,0.386970458984375,1.1606156826019287,-1.0474311113357544,0.5362421274185181
1789454203477910800,0.396910888671875,1.3128396272659302,-0.9998510479927063,0.6204320788383484
1789454203487850800,0.406850830078125,1.3200674057006836,-0.8573564887046814,0.602069079875946
1789454203497790500,0.41679052734375,1.1484061479568481,-0.6934701204299927,0.5243420600891113
1789454203507730700,0.426730712890625,0.9847725033760071,-0.6635875701904297,0.3342245817184448
1789454203517670700,0.436670654296875,0.7729704976081848,-0.7693150639533997,0.14238883554935455
1789454203527610600,0.446610595703125,0.5654580593109131,-0.9371170997619629,-0.0512557290494442
1789454203537550600,0.456550537109375,0.47365331649780273,-1.0390418767929077,-0.17707277834415436
1789454203547490600,0.466490478515625,0.445646196603775,-1.1232621669769287,-0.3138977289199829
1789454203557430800,0.4764306640625,0.41194841265678406,-1.0844671726226807,-0.3407197594642639
1789454203567370800,0.486370849609375,0.3621582090854645,-0.8280657529830933,-0.2475125938653946
1789454203577310500,0.496310546875,0.32281559705734253,-0.5484524369239807,-0.18892225623130798
1789454203587250700,0.506250732421875,0.36724191904067993,-0.24446673691272736,-0.16194282472133636
1789454203597191700,0.516191650390625,0.3814395070075989,-0.0845753401517868,-0.2162281721830368
1789454203607131600,0.526131591796875,0.38201022148132324,-0.03928881511092186,-0.2986905574798584
1789454203617071600,0.536071533203125,0.4071222245693207,-0.10564333945512772,-0.41269010305404663
1789454203627011600,0.546011474609375,0.4547280967235565,-0.2677409052848816,-0.46610936522483826
1789454203636951600,0.55595166015625,0.5237894654273987,-0.3682461977005005,-0.5167595148086548
1789454203646891500,0.5658916015625,0.5297293663024902,-0.38578924536705017,-0.5765594840049744
1789454203656831500,0.57583154296875,0.45227426290512085,-0.3927941620349884,-0.6454439759254456
1789454203666771500,0.585771484375,0.377736896276474,-0.30980339646339417,-0.7297444939613342
1789454203676711700,0.595711669921875,0.3086014986038208,-0.1577558070421219,-0.8253149390220642
1789454203686651400,0.6056513671875,0.23031656444072723,0.01810390315949917,-0.9276546239852905
1789454203696591600,0.615591552734375,0.19691012799739838,0.15848258137702942,-1.0209083557128906
1789454203706531600,0.625531494140625,0.3116529583930969,0.23869380354881287,-1.0683393478393555
1789454203716471600,0.635471435546875,0.4872106611728668,0.13841646909713745,-1.116126537322998
1789454203726411500,0.64541162109375,0.6048467755317688,-0.1588226705789566,-1.1235069036483765
1789454203736351500,0.6553515625,0.7668628096580505,-0.4222676157951355,-1.1404651403427124
1789454203746291500,0.66529150390625,1.077637791633606,-0.47500327229499817,-1.269508957862854
1789454203756232400,0.675232421875,1.472774624824524,-0.32346808910369873,-1.4564743041992188
1789454203766172400,0.68517236328125,1.8137381076812744,-0.15819469094276428,-1.660607933998108
1789454203776112600,0.695112548828125,2.044677972793579,-0.0391513966023922,-1.8475011587142944
1789454203786052400,0.70505224609375,2.178929328918457,-0.11193052679300308,-2.0133728981018066
1789454203795992600,0.71499267578125,2.109963893890381,-0.5661840438842773,-2.178058385848999
1789454203805932500,0.7249326171875,1.9830265045166016,-0.8131637573242188,-2.240673780441284
1789454203815872500,0.73487255859375,2.1422715187072754,-0.9022323489189148,-2.4860293865203857
1789454203825812500,0.7448125,2.3924481868743896,-1.7234638929367065,-2.8954336643218994
1789454203835752400,0.75475244140625,2.666012763977051,-2.743419885635376,-3.098040819168091
1789454203845692400,0.7646923828125,3.046172618865967,-3.309445858001709,-3.1257314682006836
1789454203855632600,0.774632568359375,3.492629289627075,-3.489147424697876,-3.1079554557800293
1789454203865572400,0.784572265625,4.217371940612793,-4.327069282531738,-3.5132272243499756
1789454203875512600,0.7945126953125,4.619717121124268,-4.408087730407715,-3.535295248031616
1789454203885453600,0.80445361328125,4.472810745239258,-4.258796215057373,-3.424405097961426
1789454203895393500,0.8143935546875,4.16330623626709,-4.497247219085693,-3.312440872192383
1789454203905333500,0.82433349609375,3.8913204669952393,-4.660176753997803,-3.074122428894043
1789454203915273500,0.8342734375,3.5516765117645264,-4.65211820602417,-2.7914879322052
1789454203925213700,0.844213623046875,3.282066822052002,-4.418575763702393,-2.3712987899780273
1789454203935153400,0.8541533203125,3.2566490173339844,-4.258957386016846,-1.9721983671188354
1789454203945093600,0.86409375,3.5136542320251465,-4.103676795959473,-1.639600396156311
1789454203955033600,0.87403369140625,3.9419078826904297,-3.7763097286224365,-1.3082469701766968
1789454203964973600,0.8839736328125,4.079953670501709,-3.4681153297424316,-1.0411993265151978
1789454203974913500,0.89391357421875,4.312716960906982,-3.4210383892059326,-0.9196528792381287
1789454203984853500,0.903853515625,4.692101001739502,-2.7922756671905518,-1.0935701131820679
1789454203994793500,0.91379345703125,4.890705108642578,-2.13215970993042,-1.6607779264450073
1789454204004733400,0.9237333984375,5.03079891204834,-1.8319344520568848,-2.4452831745147705
1789454204014674400,0.93367431640625,5.233119964599609,-2.1943962574005127,-3.3071908950805664
1789454204024614700,0.94361474609375,5.641146183013916,-3.027461290359497,-4.449604034423828
1789454204034554400,0.953554443359375,5.928861141204834,-3.3893704414367676,-5.093938827514648
1789454204044494600,0.96349462890625,5.802039623260498,-3.0459606647491455,-4.656007766723633
1789454204054434600,0.9734345703125,5.273772239685059,-1.7383801937103271,-3.2779526710510254
1789454204064374500,0.98337451171875,4.494334697723389,-1.09409761428833,-1.5081555843353271
1789454204074314500,0.993314453125,3.7165684700012207,-0.7507959604263306,0.35928574204444885
1789454204084254500,1.00325439453125,3.1570663452148438,-0.3700694143772125,1.4398939609527588
1789454204094194400,1.0131943359375,2.7413761615753174,0.24215564131736755,2.132195472717285
1789454204104134700,1.023134765625,2.3041341304779053,0.6795710325241089,2.74092960357666
1789454204114074400,1.033074462890625,1.9123917818069458,0.8696403503417969,3.2069950103759766
1789454204124014600,1.0430146484375,1.3604377508163452,2.0357697010040283,1.5662635564804077
1789454204133955600,1.05295556640625,1.1385396718978882,2.003992795944214,0.6613393425941467
1789454204143895600,1.0628955078125,0.6179620027542114,2.003253221511841,-0.27800071239471436
1789454204153835500,1.07283544921875,0.36715003848075867,1.5199393033981323,-0.5097580552101135
1789454204163775500,1.082775390625,-0.08000029623508453,1.04291832447052,-0.504342257976532
1789454204173715700,1.0927158203125,-0.39922383427619934,0.6216741800308228,-0.3651723861694336
1789454204183655400,1.102655517578125,-0.47455692291259766,0.23331502079963684,-0.17318829894065857
1789454204193595400,1.112595458984375,-0.5434036254882812,-0.012625247240066528,0.06622136384248734
1789454204203535600,1.12253564453125,-0.530265748500824,-0.38621482253074646,-0.04695472493767738
1789454204213475600,1.1324755859375,-0.25778281688690186,-0.5521057844161987,-0.18787004053592682
1789454204223415600,1.14241552734375,0.0658210888504982,-0.8974583745002747,-0.08302830904722214
1789454204233355500,1.15235546875,0.05342381075024605,-1.1538827419281006,-0.16195161640644073
1789454204243296500,1.162296630859375,0.011549063958227634,-1.175446629524231,-0.34632065892219543
1789454204253236500,1.172236572265625,0.07762128859758377,-1.0476467609405518,-0.37522393465042114
1789454204263176400,1.182176513671875,0.08618761599063873,-1.2158677577972412,-0.20513397455215454
1789454204273116700,1.19211669921875,0.21483027935028076,-2.1381306648254395,0.6388121843338013
1789454204283056400,1.202056396484375,0.6595067977905273,-5.703578948974609,5.189051628112793
1789454204292996400,1.211996337890625,-0.10688649863004684,-6.760025501251221,6.722756862640381
1789454204302936600,1.2219365234375,-0.3327430784702301,-4.230138301849365,0.17236298322677612
1789454204312876500,1.23187646484375,0.6582481861114502,-2.592536449432373,-0.8658658266067505
1789454204322816500,1.24181640625,0.4315814971923828,-2.3840363025665283,-0.15228301286697388
1789454204332756500,1.251756591796875,0.0386296845972538,-2.1538538932800293,-0.07826817035675049
1789454204342696400,1.261696533203125,-0.03033633343875408,-1.3979417085647583,0.19258223474025726
1789454204352636700,1.27163671875,-0.06651245057582855,-1.0183395147323608,0.14427728950977325
1789454204362577400,1.281577392578125,-0.2212120145559311,-0.6471641063690186,0.036311134696006775
1789454204372517600,1.291517578125,-0.567628026008606,-0.3466290533542633,0.04595577344298363
1789454204382457600,1.30145751953125,-0.9749854207038879,-0.3456934988498688,0.05688219144940376
1789454204392397300,1.311397216796875,-1.1880015134811401,-0.415312260389328,-0.048956092447042465
1789454204402337500,1.321337646484375,-1.422109842300415,-0.6215543746948242,-0.1465388387441635
1789454204412277500,1.331277587890625,-1.7049914598464966,-1.0424166917800903,-0.2498452514410019
1789454204422217700,1.3412177734375,-1.8462412357330322,-1.3175309896469116,-0.523851215839386
1789454204432157400,1.351157470703125,-1.7365999221801758,-1.5032545328140259,-0.8159595131874084
1789454204442097400,1.361097412109375,-1.0836279392242432,-1.7485599517822266,-1.0195012092590332
1789454204452037600,1.37103759765625,-0.6231570243835449,-1.958851933479309,-1.3169771432876587
1789454204461978400,1.380978271484375,-0.6804661750793457,-2.3009297847747803,-1.682551383972168
1789454204471918600,1.390918701171875,-0.8551596403121948,-2.624772787094116,-2.0271174907684326
1789454204481858600,1.400858642578125,-1.7228654623031616,-1.6954396963119507,-1.8722922801971436
1789454204491798500,1.410798583984375,-2.8964178562164307,-0.2853334844112396,-1.0704001188278198
1789454204501738500,1.420738525390625,-3.937990427017212,-0.04296451061964035,-0.8411423563957214
1789454204511678500,1.430678466796875,-3.91473126411438,0.13702842593193054,-0.9809375405311584
1789454204521618700,1.44061865234375,-3.6996161937713623,0.052138302475214005,-0.8727967143058777
1789454204531558400,1.450558349609375,-4.434096813201904,-1.4606133699417114,0.5358613133430481
1789454204541498400,1.460498291015625,-3.34226393699646,-3.4841151237487793,2.5328142642974854
1789454204551438600,1.4704384765625,-1.590355396270752,-3.8421707153320312,3.6092357635498047
1789454204561379300,1.48037939453125,-0.5409106612205505,-2.669762134552002,3.183486223220825
1789454204571319600,1.490319580078125,0.18708732724189758,-0.6421056985855103,1.9487659931182861
1789454204581259500,1.500259521484375,0.731484055519104,0.7665166258811951,0.7311005592346191
1789454204591199500,1.510199462890625,0.5852839946746826,0.9058971405029297,0.12209714949131012
1789454204601139500,1.520139404296875,0.3214922845363617,0.4689653515815735,-0.040162067860364914
1789454204611079400,1.530079345703125,0.28952741622924805,0.40762048959732056,-0.2187184989452362
1789454204621019600,1.54001953125,0.3972541391849518,0.53818678855896,-0.4342843294143677
1789454204630959600,1.549959716796875,0.5689305663108826,0.5082594752311707,-0.5078182220458984
1789454204640898800,1.55989892578125,0.7775338292121887,0.4358561336994171,-0.5883732438087463
1789454204650839000,1.569839111328125,1.2177053689956665,0.3665521740913391,-0.8951038718223572
1789454204660779000,1.579779052734375,1.9760034084320068,-0.7678958773612976,-1.9448617696762085
1789454204670720000,1.589719970703125,2.352980852127075,-0.36552363634109497,-2.058461904525757
1789454204680660000,1.599659912109375,1.9344453811645508,1.322585940361023,-1.2791959047317505
1789454204690600000,1.609599853515625,1.479942798614502,1.109627604484558,-0.693074107170105
1789454204700540200,1.6195400390625,1.3157410621643066,0.1737811118364334,-0.04874277114868164
1789454204710480000,1.62947998046875,1.222772240638733,-0.16589176654815674,0.38703641295433044
1789454204720420000,1.639420166015625,1.1859711408615112,-0.20989809930324554,0.4455585777759552
1789454204730360000,1.649360107421875,1.5733367204666138,-0.14551885426044464,-0.2928512990474701
1789454204740300000,1.659300048828125,2.301858425140381,-0.304320752620697,-0.7999811172485352
1789454204750240000,1.669239990234375,2.9957845211029053,-0.11822890490293503,-0.9358654022216797
1789454204760181000,1.679180908203125,3.2550249099731445,0.42773348093032837,-1.1284079551696777
1789454204770121200,1.689121337890625,2.823291540145874,0.5692653059959412,-1.19264554977417
1789454204780061000,1.69906103515625,2.7732386589050293,0.23723278939723969,-0.6521439552307129
1789454204790001000,1.7090009765625,2.498596668243408,-0.5599583983421326,0.6000202894210815
1789454204799941000,1.718941162109375,1.3704818487167358,-1.8926366567611694,0.9978667497634888
1789454204809881000,1.728881103515625,0.20984937250614166,-2.1008689403533936,-1.6755352020263672
1789454204819821000,1.738821044921875,0.9745755195617676,-0.27868756651878357,-1.2335299253463745
1789454204829761000,1.748760986328125,2.9260995388031006,-0.5328444838523865,-1.600385308265686
1789454204839701000,1.758700927734375,4.025830268859863,-0.8189246654510498,-1.7237666845321655
1789454204849641000,1.768640869140625,3.6741011142730713,-0.6398550868034363,-1.9678120613098145
1789454204859582000,1.77858203125,2.870227813720703,-0.8373447060585022,-2.236041784286499
1789454204869522200,1.788522216796875,2.3580856323242188,-0.6039721965789795,-1.8173754215240479
1789454204879462000,1.7984619140625,2.0289273262023926,-0.5480801463127136,-1.1689468622207642
1789454204889401900,1.80840185546875,1.9046437740325928,-0.7905926704406738,-0.41374149918556213
1789454204899342000,1.818342041015625,1.534603476524353,-1.1390200853347778,0.1903662085533142
1789454204909282000,1.828281982421875,0.8465161323547363,-1.0988538265228271,0.34297439455986023
1789454204919222000,1.838221923828125,0.21666359901428223,-1.440546989440918,0.39560431241989136
1789454204929162000,1.848161865234375,0.06721818447113037,-1.9247219562530518,0.9504103064537048
1789454204939103200,1.858103271484375,-1.544558048248291,-1.4294706583023071,1.7815860509872437
1789454204949043000,1.86804296875,-2.92704439163208,-2.1469342708587646,2.3532652854919434
1789454204958983000,1.87798291015625,0.9826409220695496,-5.480647087097168,3.400144338607788
1789454204968923100,1.887923095703125,2.8599095344543457,-5.947927474975586,3.183100461959839
1789454204978863000,1.897863037109375,4.528193950653076,-5.896251201629639,2.063990831375122
1789454204988802800,1.907802734375,6.121878623962402,-4.9841132164001465,0.8862960338592529
1789454204998743000,1.917742919921875,4.916637897491455,-2.8791418075561523,-0.9953250288963318
1789454205008683000,1.92768310546875,2.603623867034912,-1.495468020439148,-1.7356561422348022
1789454205018623200,1.937623291015625,-0.2366066873073578,-0.1135779619216919,0.09572066366672516
1789454205028564000,1.94756396484375,-0.5175421833992004,-0.18562765419483185,-0.4200798273086548
1789454205038504200,1.957504150390625,0.14132782816886902,-0.21254794299602509,-0.1263185292482376
1789454205048444200,1.967444091796875,0.43465372920036316,0.6047447323799133,-0.10373225063085556
1789454205058384000,1.9773837890625,-0.6074182987213135,4.15311336517334,-2.58235764503479
1789454205068324000,1.987323974609375,0.5921708941459656,0.610663890838623,-1.5819679498672485
1789454205078264000,1.99726416015625,0.8173973560333252,-1.9054454565048218,-0.6275965571403503
1789454205088204000,2.0072041015625,0.8831760883331299,-1.8379923105239868,0.3950418531894684
1789454205098144000,2.01714404296875,0.7766565680503845,-1.617624282836914,0.6697565317153931
1789454205108084000,2.027083984375,0.4814840853214264,-1.1747376918792725,0.565981924533844
1789454205118025000,2.03702490234375,0.13139371573925018,-0.8096038699150085,0.7223813533782959
1789454205127965000,2.04696484375,-0.07220282405614853,-0.5087729692459106,0.7500841021537781
1789454205137905200,2.0569052734375,-0.13737863302230835,-0.4614033102989197,0.6620011329650879
1789454205147845000,2.06684521484375,0.21389497816562653,-0.9009771943092346,0.6865874528884888
1789454205157784800,2.076784912109375,0.40261030197143555,-0.9585946798324585,0.3443853557109833
1789454205167725000,2.08672509765625,0.4883164167404175,-0.16986146569252014,-0.26928314566612244
1789454205177665000,2.0966650390625,0.43911024928092957,0.18684445321559906,-0.2500292658805847
1789454205187605000,2.10660498046875,0.32519885897636414,0.24522998929023743,-0.17060528695583344
1789454205197545000,2.116544921875,0.189390167593956,0.2968654930591583,-0.1588791310787201
1789454205207486000,2.12648583984375,0.16167758405208588,0.029504362493753433,-0.17109479010105133
1789454205217426200,2.13642626953125,0.0569801963865757,0.2044420838356018,0.31341835856437683
1789454205227366000,2.146365966796875,-0.03781316056847572,1.4971343278884888,0.8690776228904724
1789454205237306000,2.15630615234375,0.44972559809684753,-0.3848073482513428,-0.35336631536483765
1789454205247246000,2.16624609375,0.2963477671146393,-0.7160071134567261,0.04366891831159592
1789454205257186000,2.17618603515625,0.17720700800418854,-0.9040177464485168,0.49355217814445496
1789454205267126000,2.1861259765625,0.10816775262355804,-0.8300806879997253,0.3457036018371582
1789454205277066000,2.19606591796875,-0.028257470577955246,-0.5132217407226562,0.18437063694000244
1789454205287007000,2.206007080078125,-0.08671145886182785,-0.3234938979148865,0.14904460310935974
1789454205296947000,2.215947021484375,-0.0598183274269104,-0.30449599027633667,0.15478292107582092
1789454205306887000,2.225886962890625,-0.11325438320636749,-0.2138931155204773,0.10744736343622208
1789454205316827100,2.2358271484375,-0.18034234642982483,-0.231735497713089,0.17229481041431427
1789454205326766800,2.245766845703125,1.2320603132247925,0.3505231440067291,-1.4919906854629517
1789454205336707000,2.25570703125,2.385209560394287,-1.3907991647720337,0.12625621259212494
1789454205346647000,2.26564697265625,1.8812847137451172,-2.192002773284912,0.780943751335144
1789454205356587000,2.2755869140625,2.2229244709014893,-3.2407419681549072,0.801578164100647
1789454205366528000,2.285528076171875,2.6906521320343018,-3.203345775604248,0.8172996044158936
1789454205376468000,2.295468017578125,3.359370231628418,-2.32230806350708,0.6660230159759521
1789454205386408200,2.305408203125,3.3403420448303223,-2.000075578689575,0.7075244188308716
1789454205396348000,2.315347900390625,3.0438172817230225,-1.9079301357269287,0.9374744892120361
1789454205406288000,2.325287841796875,3.4474711418151855,-1.4078388214111328,1.077349305152893
1789454205416228000,2.33522802734375,3.342221975326538,-0.4098285436630249,0.7696514129638672
1789454205426168000,2.34516796875,2.964827537536621,-0.2557167112827301,0.48913827538490295
1789454205436108000,2.35510791015625,2.3227717876434326,-0.3458165228366852,0.5551668405532837
1789454205446049000,2.365049072265625,1.4688526391983032,-0.614553689956665,0.8842933177947998
1789454205455989200,2.3749892578125,0.670965313911438,-0.9828366637229919,1.0908374786376953
1789454205465929000,2.384928955078125,0.1934347152709961,-0.41205811500549316,1.0718557834625244
1789454205475869000,2.394868896484375,-0.0768716111779213,-0.4800044298171997,0.7663171291351318
1789454205485809200,2.40480908203125,-0.10536397248506546,-0.03894766420125961,0.34308066964149475
1789454205495749000,2.4147490234375,-0.16395165026187897,0.5493630170822144,-0.21821089088916779
1789454205505688800,2.424688720703125,-0.3751850724220276,0.8552387356758118,-0.6195369958877563
1789454205515629000,2.434629150390625,-0.7921487092971802,0.9573145508766174,-0.829353392124176
1789454205525569800,2.44456982421875,-1.4870595932006836,1.0832117795944214,-1.524773120880127
1789454205535510000,2.454510009765625,-2.4537179470062256,1.035429835319519,-2.295243501663208
1789454205545450000,2.464449951171875,-3.091557264328003,0.6081376075744629,-1.1743896007537842
1789454205555390200,2.47439013671875,-3.105526924133301,1.4875667095184326,0.2543603777885437
1789454205565330000,2.484329833984375,-2.5753579139709473,2.3100991249084473,1.0079931020736694
1789454205575270000,2.494269775390625,-1.992183804512024,2.2051846981048584,0.7080681920051575
1789454205585210000,2.504210205078125,-1.4470099210739136,1.8099650144577026,-0.21661140024662018
1789454205595150000,2.514150146484375,-0.5488743185997009,0.7186950445175171,-0.5617549419403076
1789454205605091000,2.524091064453125,0.4465591013431549,-0.1604437381029129,0.0927048996090889
1789454205615031000,2.534031005859375,0.031749408692121506,0.7137500643730164,0.1386803835630417
1789454205624971000,2.543970947265625,-0.03138801455497742,0.6732550859451294,-0.054133009165525436
1789454205634911000,2.553910888671875,0.030297718942165375,0.3922857642173767,-0.10419351607561111
1789454205644851500,2.5638515625,0.138431116938591,0.14214834570884705,0.0027225494850426912
1789454205654791400,2.57379150390625,0.1326128989458084,0.2360444813966751,0.01684875413775444
1789454205664731400,2.5837314453125,0.07526332885026932,0.37373897433280945,-0.06077945977449417
1789454205674671400,2.59367138671875,0.06674201041460037,0.3913120925426483,-0.04254186898469925
1789454205684612400,2.6036123046875,0.09673799574375153,0.3073729872703552,-0.02700898051261902
1789454205694552300,2.61355224609375,0.10868733376264572,0.24570563435554504,-0.011140002869069576
1789454205704492300,2.6234921875,0.1170738935470581,0.17740274965763092,0.004078897647559643
1789454205714432500,2.6334326171875,0.11223386228084564,0.12639681994915009,0.0016247945604845881
1789454205724372500,2.64337255859375,0.04807138815522194,0.0489792600274086,0.03163941949605942
1789454205734312200,2.653312255859375,0.06429749727249146,-0.05513009801506996,0.042331743985414505
1789454205744252400,2.66325244140625,0.08619746565818787,-0.09638432413339615,0.03638144209980965
1789454205754193400,2.673193359375,0.09343141317367554,-0.10009943693876266,0.03418460115790367
1789454205764133400,2.68313330078125,0.050085537135601044,-0.10893553495407104,0.02538312040269375
1789454205774073300,2.6930732421875,-0.005475192796438932,-0.12515471875667572,0.004668521229177713
1789454205784013300,2.703013427734375,-0.062369633466005325,-0.1147172600030899,-0.0070248860865831375
1789454205793953500,2.71295361328125,-0.09035599231719971,-0.11885607987642288,-0.0049489522352814674
1789454205803893200,2.722893310546875,-0.11386078596115112,-0.11356171220541,-0.009005745872855186
1789454205813833500,2.73283349609375,-0.12629295885562897,-0.1601550430059433,-0.045464154332876205
1789454205823774500,2.7427744140625,-0.12913508713245392,-0.20679259300231934,-0.06957215070724487
1789454205833714400,2.75271435546875,-0.12788152694702148,-0.22896207869052887,-0.0896955281496048
1789454205843654400,2.762654296875,-0.11709093302488327,-0.2622247040271759,-0.09701922535896301
1789454205853594400,2.772594482421875,-0.09275364130735397,-0.32815229892730713,-0.09705251455307007
1789454205863534300,2.782534423828125,-0.05817542225122452,-0.4027192294597626,-0.08447866141796112
1789454205873474300,2.792474365234375,-0.02189943939447403,-0.47856417298316956,-0.06376486271619797
1789454205883414500,2.80241455078125,0.014258564449846745,-0.5330740213394165,-0.06149212270975113
1789454205893355300,2.812355224609375,0.03843740373849869,-0.5773040652275085,-0.05048181489109993
1789454205903295200,2.822295166015625,0.07190428674221039,-0.684029221534729,-0.04494217410683632
1789454205913235500,2.8322353515625,0.07657866179943085,-0.6608825922012329,-0.02418310008943081
1789454205923175400,2.842175537109375,0.07409313321113586,-0.573229193687439,-0.008978847414255142
1789454205933115400,2.852115478515625,0.09615422785282135,-0.5630913376808167,0.003923102747648954
1789454205943055400,2.862055419921875,0.09809673577547073,-0.5772289633750916,0.01906530372798443
1789454205952995300,2.871995361328125,0.08085916191339493,-0.5552741289138794,0.03927550092339516
1789454205962936300,2.881936279296875,0.034202177077531815,-0.5025706887245178,0.07628864794969559
1789454205972876300,2.891876220703125,-0.006909038871526718,-0.49083444476127625,0.10915018618106842
1789454205982816500,2.90181640625,-0.06272383779287338,-0.42322877049446106,0.12654675543308258
1789454205992756500,2.911756591796875,-0.09468336403369904,-0.3461590111255646,0.13091407716274261
1789454206002696200,2.9216962890625,-0.1223221868276596,-0.2761799097061157,0.12079166620969772
1789454206012636400,2.931636474609375,-0.12158501893281937,-0.28538355231285095,0.12616299092769623
1789454206022576400,2.941576416015625,-0.11560516059398651,-0.24099211394786835,0.13333195447921753
1789454206032517400,2.951517333984375,-0.08516202867031097,-0.18248192965984344,0.1651356965303421
1789454206042457300,2.961457275390625,-0.044381845742464066,-0.1602112352848053,0.17720353603363037
1789454206052397600,2.9713974609375,-0.02840234711766243,-0.08206344395875931,0.20435500144958496
1789454206062337300,2.981337158203125,0.0026495789643377066,-0.06549618393182755,0.22430367767810822
1789454206072277200,2.99127734375,-0.007721569389104843,-0.06421387195587158,0.2558075487613678
1789454206082217500,3.001217529296875,-0.05295376107096672,-0.04913958162069321,0.2751578092575073
1789454206092157400,3.011157470703125,-0.07535174489021301,-0.11753302067518234,0.2566261887550354
1789454206102098400,3.021098388671875,-0.044737644493579865,-0.15750014781951904,0.23778299987316132
1789454206112038400,3.031038330078125,-0.012762933038175106,-0.0012511530658230186,0.2804734706878662
1789454206121978400,3.040978271484375,0.04874223843216896,0.008815862238407135,0.27753788232803345
1789454206131918300,3.05091845703125,0.10467661172151566,0.0020993698853999376,0.2945038080215454
1789454206141858300,3.0608583984375,0.13784095644950867,0.004862132947891951,0.2945767641067505
1789454206151798500,3.070798583984375,0.17224261164665222,0.026457972824573517,0.2889370024204254
1789454206161739300,3.0807392578125,0.2131042778491974,0.0749293714761734,0.3052893280982971
1789454206171679500,3.090679443359375,0.22246183454990387,0.12138555198907852,0.3162202835083008
1789454206181619500,3.100619384765625,0.1756298840045929,0.11929550021886826,0.31065240502357483
1789454206191559400,3.110559326171875,0.2006034106016159,0.14163382351398468,0.306903213262558
1789454206201499400,3.12049951171875,0.21896883845329285,0.15495575964450836,0.33111080527305603
1789454206211439400,3.130439453125,0.21147257089614868,0.1418924182653427,0.3480176329612732
1789454206221379300,3.14037939453125,0.202874556183815,0.13223899900913239,0.3451318144798279
1789454206231320300,3.1503203125,0.18738827109336853,0.15273813903331757,0.3516762852668762
1789454206241260300,3.16026025390625,0.16808541119098663,0.18400178849697113,0.3693591356277466
1789454206251200500,3.170200439453125,0.15675126016139984,0.22095981240272522,0.38282355666160583
1789454206261140200,3.18014013671875,0.14942757785320282,0.2836668789386749,0.38897037506103516
1789454206271080400,3.19008056640625,0.15984027087688446,0.3251115083694458,0.3969705104827881
1789454206281020400,3.2000205078125,0.18485213816165924,0.34973856806755066,0.41952961683273315
1789454206290961400,3.20996142578125,0.21176950633525848,0.3660650849342346,0.4520108699798584
1789454206300901400,3.2199013671875,0.23686739802360535,0.3741520345211029,0.46705880761146545
1789454206310841300,3.22984130859375,0.26445403695106506,0.33892160654067993,0.45720961689949036
1789454206320781600,3.239781494140625,0.30066102743148804,0.30394259095191956,0.4650702178478241
1789454206330721300,3.24972119140625,0.32754218578338623,0.3017366826534271,0.4798632860183716
1789454206340661200,3.2596611328125,0.3574976921081543,0.32547369599342346,0.5051071047782898
1789454206350601500,3.2696015625,0.3863320052623749,0.34412434697151184,0.5397122502326965
1789454206360542200,3.279542236328125,0.42004096508026123,0.36194729804992676,0.571736752986908
1789454206370482400,3.289482421875,0.4659077823162079,0.37084996700286865,0.5919197797775269
1789454206380422400,3.29942236328125,0.5131543874740601,0.3894183337688446,0.5983028411865234
1789454206390362600,3.309362548828125,0.5646705627441406,0.42673560976982117,0.6229833960533142
1789454206400302300,3.31930224609375,0.5857723951339722,0.4434216320514679,0.6420151591300964
1789454206410242300,3.3292421875,0.5962812304496765,0.45348334312438965,0.6389690637588501
1789454206420183300,3.339183349609375,0.5899649858474731,0.4860071837902069,0.6140908598899841
1789454206430123300,3.349123291015625,0.5792322158813477,0.4833642542362213,0.5781509876251221
1789454206440063500,3.3590634765625,0.5547572374343872,0.46710407733917236,0.5317493677139282
1789454206450003500,3.36900341796875,0.5063702464103699,0.5473871827125549,0.559404194355011
1789454206459943200,3.378943115234375,0.4541030526161194,0.5708560347557068,0.5811888575553894
1789454206469883400,3.38888330078125,0.40067124366760254,0.656325101852417,0.6365780830383301
1789454206479824400,3.398824462890625,0.38322141766548157,0.7221616506576538,0.7030300498008728
1789454206489764400,3.408764404296875,0.4424964487552643,0.6671636700630188,0.7879774570465088
1789454206499704300,3.418704345703125,0.5595945715904236,0.5306358933448792,0.8269096612930298
1789454206509644300,3.428644287109375,0.6628208160400391,0.41736286878585815,0.7835683226585388
1789454206519584500,3.43858447265625,0.7230029702186584,0.4049046039581299,0.7328031063079834
1789454206529524200,3.448524169921875,0.7608779072761536,0.4332997798919678,0.7068434357643127
1789454206539465500,3.458465576171875,0.7659549713134766,0.4157860279083252,0.7077363729476929
1789454206549405400,3.468405517578125,0.7648319005966187,0.4300704300403595,0.7203653454780579
1789454206559345400,3.478345458984375,0.726253092288971,0.5126225352287292,0.7189789414405823
1789454206569285400,3.488285400390625,0.6740545630455017,0.5670788884162903,0.7466955184936523
1789454206579225300,3.498225341796875,0.6347676515579224,0.5701516270637512,0.7947021722793579
1789454206589165600,3.50816552734375,0.5892336964607239,0.45041322708129883,0.8212839961051941
1789454206599106300,3.518106201171875,0.543867290019989,0.27841031551361084,0.8150455355644226
1789454206609046500,3.528046630859375,0.5937277674674988,0.2899191677570343,0.7639434933662415
1789454206618986500,3.537986572265625,0.6055626273155212,0.3504602909088135,0.6846560835838318
1789454206628926200,3.54792626953125,0.5719711184501648,0.38234737515449524,0.5940465927124023
1789454206638866700,3.55786669921875,0.5275769829750061,0.34810230135917664,0.5117312073707581
1789454206648807000,3.567806884765625,0.490297794342041,0.3010123074054718,0.43002966046333313
1789454206658747600,3.57774755859375,0.46773630380630493,0.2923988401889801,0.29100894927978516
1789454206668688000,3.58768798828125,0.4145023822784424,0.3611113131046295,0.11295504868030548
1789454206678627800,3.5976279296875,0.3326434791088104,0.45810312032699585,-0.08501289784908295
1789454206688567800,3.60756787109375,0.2679848372936249,0.46101900935173035,-0.28380003571510315
1789454206698507800,3.6175078125,0.22120454907417297,0.5051374435424805,-0.4765084981918335
1789454206708447700,3.62744775390625,0.13714267313480377,0.6360539197921753,-0.6838438510894775
1789454206718388700,3.637388671875,-0.08941110223531723,0.7187496423721313,-0.902588963508606
1789454206728328700,3.64732861328125,-0.3832254111766815,0.6811415553092957,-1.0843098163604736
1789454206738269000,3.65726904296875,-0.6380699276924133,0.5770241618156433,-1.2530887126922607
1789454206748208600,3.667208740234375,-0.8556715250015259,0.43178415298461914,-1.3869003057479858
1789454206758148600,3.677148681640625,-1.0757231712341309,0.42710793018341064,-1.454513430595398
1789454206768088800,3.6870888671875,-1.2816479206085205,0.5159288644790649,-1.4511545896530151
1789454206778029600,3.697029541015625,-1.4171193838119507,0.474418967962265,-1.4371005296707153
1789454206787969800,3.7069697265625,-1.483577847480774,0.11486852914094925,-1.3863310813903809
1789454206797909800,3.71690966796875,-1.5729881525039673,-0.317546546459198,-1.3746271133422852
1789454206807849700,3.726849609375,-1.6666325330734253,-0.5224011540412903,-1.4057074785232544
1789454206817789700,3.736789794921875,-1.783152461051941,-0.5050991177558899,-1.5088179111480713
1789454206827729700,3.746729736328125,-1.9219609498977661,-0.4564679265022278,-1.7636702060699463
1789454206837671000,3.7566708984375,-2.0930263996124268,-0.7425659894943237,-1.871992588043213
1789454206847610600,3.766610595703125,-2.166882038116455,-1.0943573713302612,-1.9411908388137817
1789454206857550800,3.77655078125,-2.1307122707366943,-1.1607145071029663,-2.0600321292877197
1789454206867490800,3.78649072265625,-2.0293691158294678,-0.9902477264404297,-2.0978052616119385
1789454206877430800,3.7964306640625,-1.9606159925460815,-0.6832901835441589,-2.085812568664551
1789454206887370800,3.806370849609375,-1.9638572931289673,-0.3868771493434906,-2.076836585998535
1789454206897311700,3.816311767578125,-2.0328850746154785,-0.24487286806106567,-2.0676615238189697
1789454206907251700,3.826251708984375,-2.102689027786255,-0.32008132338523865,-2.0124919414520264
1789454206917191700,3.836191650390625,-2.1715476512908936,-0.4889523684978485,-2.0236446857452393
1789454206927131600,3.846131591796875,-2.238753080368042,-0.6913097500801086,-2.132307291030884
1789454206937071900,3.85607177734375,-2.2756450176239014,-0.905281126499176,-2.2566425800323486
1789454206947011600,3.866011474609375,-2.265105724334717,-1.0333539247512817,-2.3862152099609375
1789454206956952800,3.875952880859375,-2.2104015350341797,-1.073533296585083,-2.576937198638916
1789454206966892800,3.885892822265625,-2.1374237537384033,-1.0992753505706787,-2.7707061767578125
1789454206976832800,3.895832763671875,-2.04584002494812,-1.219750165939331,-2.929661273956299
1789454206986772700,3.905772705078125,-1.94667649269104,-1.572737455368042,-2.9431991577148438
1789454206996712700,3.915712646484375,-1.9260921478271484,-1.9140902757644653,-2.9234111309051514
1789454207006653700,3.92565380859375,-1.9771747589111328,-2.0817790031433105,-3.0507259368896484
1789454207016593700,3.93559375,-1.9164594411849976,-2.072984218597412,-3.319391965866089
1789454207026534000,3.945533935546875,-1.8206839561462402,-1.9413994550704956,-3.5502665042877197
1789454207036473900,3.955473876953125,-1.735969066619873,-1.828566312789917,-3.7187345027923584
1789454207046413600,3.96541357421875,-1.452649474143982,-1.6793071031570435,-3.8621954917907715
1789454207056353800,3.975353759765625,-1.160048246383667,-1.4569424390792847,-3.8745598793029785
1789454207066294800,3.985294677734375,-1.0300241708755493,-1.0558158159255981,-3.742424726486206
1789454207076234800,3.99523486328125,-0.9779670834541321,-0.9981383681297302,-3.7105886936187744
1789454207086174700,4.0051748046875,-1.1055647134780884,-0.7876823544502258,-3.660917282104492
1789454207096115000,4.015114990234375,-1.134583830833435,-0.7999722957611084,-3.68245005607605
1789454207106054700,4.0250546875,-0.8180572986602783,-0.827199399471283,-3.752653121948242
1789454207115995600,4.03499560546875,-0.622401773929596,-0.9256263971328735,-3.5217180252075195
1789454207125935900,4.044935791015625,-0.58003169298172,-0.9236971735954285,-3.208831310272217
1789454207135875600,4.05487548828125,-0.764365553855896,-0.6701589226722717,-2.935025453567505
1789454207145815800,4.06481591796875,-0.5130273699760437,-0.7695507407188416,-2.6696412563323975
1789454207155755800,4.074755859375,-0.42249932885169983,-0.8387021422386169,-2.3171491622924805
1789454207165695700,4.08469580078125,-0.3704896569252014,-0.8035196661949158,-2.006197690963745
1789454207175636700,4.09463671875,-0.30002453923225403,-0.813220202922821,-1.7382148504257202
1789454207185576700,4.10457666015625,-0.1708524376153946,-0.7700338363647461,-1.4984387159347534
1789454207195517000,4.114516845703125,-0.008989766240119934,-0.5612366795539856,-1.3118422031402588
1789454207205456600,4.12445654296875,0.21286433935165405,-0.28153368830680847,-1.1435906887054443
1789454207215396900,4.13439697265625,0.425704687833786,-0.03566531836986542,-0.9560937285423279
1789454207225337900,4.144337890625,0.5468103289604187,0.1725296974182129,-0.7277963757514954
1789454207235277600,4.154277587890625,0.6133422255516052,0.295319527387619,-0.4944179952144623
1789454207245217800,4.1642177734375,0.6667618155479431,0.29147446155548096,-0.3113698661327362
1789454207255157800,4.17415771484375,0.6908029317855835,0.36525627970695496,-0.19504804909229279
1789454207265098000,4.184097900390625,0.7149553894996643,0.49279531836509705,-0.2005101889371872
1789454207275037700,4.19403759765625,0.603937029838562,0.7117369771003723,-0.37633368372917175
1789454207284979000,4.20397900390625,0.34336721897125244,0.8451509475708008,-0.591535210609436
1789454207294918700,4.213918701171875,0.11251536011695862,0.9851693511009216,-0.7869539856910706
1789454207304858600,4.223858642578125,0.02058090828359127,1.1220453977584839,-0.9136226773262024
1789454207314798800,4.233798828125,-0.045217543840408325,1.1578090190887451,-0.9566175937652588
1789454207324738800,4.24373876953125,-0.5411791205406189,1.6028804779052734,-0.5575364828109741
1789454207334679800,4.2536796875,-0.4764685332775116,0.7084929943084717,-0.33930322527885437
1789454207344619800,4.263619873046875,-0.4105377197265625,0.34730497002601624,-0.27455219626426697
1789454207354559700,4.273559814453125,-0.21876563131809235,0.25420671701431274,-0.24152393639087677
1789454207364499700,4.283499755859375,-0.023504527285695076,0.32145899534225464,-0.09559975564479828
1789454207374439700,4.293439697265625,0.10027600079774857,0.507930338382721,0.04150669649243355
1789454207384381000,4.303380859375,0.10271572321653366,0.7166007161140442,0.1538817137479782
1789454207394320600,4.313320556640625,0.00782836228609085,0.8478381037712097,0.283552885055542
1789454207404260900,4.3232607421875,-0.22239258885383606,1.0187972784042358,0.46033909916877747
1789454207414200800,4.333200927734375,-0.1417294442653656,1.1341880559921265,0.4249779284000397
1789454207424140800,4.343140869140625,-0.15008297562599182,1.4216049909591675,0.49335992336273193
1789454207434080800,4.353080810546875,0.07070479542016983,0.8911373615264893,0.238107368350029
1789454207444021800,4.363021728515625,0.09874255210161209,0.6851852536201477,0.32728812098503113
1789454207453961700,4.372961669921875,0.11833570152521133,0.9275640845298767,0.4775567054748535
1789454207463901700,4.382901611328125,0.22378009557724,0.8061955571174622,0.28386765718460083
1789454207473841700,4.392841552734375,0.3103320300579071,0.7884059548377991,0.1767691820859909
1789454207483782000,4.402781982421875,0.349603533744812,0.8063535094261169,0.04880642145872116
1789454207493722600,4.41272265625,0.40558159351348877,1.1161340475082397,0.11241549253463745
1789454207503662800,4.422662841796875,0.3966014087200165,1.226338505744934,-0.0010783139150589705
1789454207513602800,4.432602783203125,0.514499306678772,1.0766723155975342,-0.1787087619304657
1789454207523542800,4.442542724609375,0.5716257095336914,1.1690821647644043,-0.14625175297260284
1789454207533482800,4.452482666015625,0.5309035778045654,1.1397594213485718,-0.16697193682193756
1789454207543423700,4.462423828125,0.49383288621902466,1.1180440187454224,-0.1827535629272461
1789454207553363700,4.47236376953125,0.40727269649505615,0.8826189637184143,-0.24357403814792633
1789454207563303700,4.4823037109375,0.3692009449005127,0.8919885158538818,-0.17134937644004822
1789454207573244000,4.492243896484375,0.4222029149532318,0.9448946118354797,-0.1096242293715477
1789454207583184000,4.502183837890625,0.58698570728302,1.1227647066116333,-0.0038461373187601566
1789454207593124900,4.512124755859375,0.6615033745765686,1.0519813299179077,0.09801897406578064
1789454207603064800,4.52206494140625,0.6699618697166443,1.070607304573059,0.24864044785499573
1789454207613004800,4.5320048828125,0.619550883769989,1.1321470737457275,0.35645079612731934
1789454207622944800,4.54194482421875,0.5447021722793579,1.1342905759811401,0.5227723717689514
1789454207632884700,4.551884765625,0.46487101912498474,1.0178964138031006,0.6638432145118713
1789454207642824400,4.561824462890625,0.3614271879196167,0.8368136882781982,0.7472153306007385
1789454207652765200,4.57176513671875,0.3118116855621338,0.6907579302787781,0.8096411824226379
1789454207662705400,4.581705322265625,0.26748284697532654,0.5362085700035095,0.8160149455070496
1789454207672645400,4.591645263671875,0.23543515801429749,0.4059523046016693,0.8111980557441711
1789454207682585600,4.601585693359375,0.2183765470981598,0.26463058590888977,0.7795711755752563
1789454207692525300,4.611525390625,0.16527578234672546,0.21701779961585999,0.8229963779449463
1789454207702466600,4.621466552734375,0.13726970553398132,0.2540312111377716,0.8982296586036682
1789454207712406300,4.63140625,0.13513758778572083,0.24681563675403595,0.9049682021141052
1789454207722346200,4.64134619140625,0.16310343146324158,0.23734304308891296,0.8957036137580872
1789454207732286500,4.651286376953125,0.24155643582344055,0.2120635211467743,0.9092231392860413
1789454207742226400,4.661226318359375,0.3931899070739746,0.11967260390520096,0.9281752705574036
1789454207752167400,4.67116748046875,0.5597195029258728,0.06832099705934525,0.9112516641616821
1789454207762107400,4.681107421875,0.6895965337753296,-0.030130738392472267,0.8684978485107422
1789454207772047400,4.69104736328125,0.7701355814933777,0.0017475662752985954,0.8590574860572815
1789454207781987300,4.7009873046875,0.8184916377067566,0.09104229509830475,0.87651526927948
1789454207791927300,4.71092724609375,0.8489995002746582,0.19518733024597168,0.8439608216285706
1789454207801868500,4.72086865234375,0.8079977631568909,0.20298773050308228,0.7142888307571411
1789454207811808300,4.730808349609375,0.694346010684967,0.2962591052055359,0.7722655534744263
1789454207821748500,4.74074853515625,0.6312559843063354,0.2679675221443176,0.7050071954727173
1789454207831688400,4.7506884765625,0.6039887070655823,0.044851891696453094,0.5743037462234497
1789454207841628400,4.76062841796875,0.6165955662727356,-0.05614316463470459,0.651380717754364
1789454207851569400,4.7705693359375,0.6438455581665039,-0.03159014880657196,0.829285740852356
1789454207861509400,4.78050927734375,0.6483106017112732,0.001841575838625431,0.9304986000061035
1789454207871449300,4.790449462890625,0.5795376896858215,-0.05335669964551926,0.934273898601532
1789454207881389300,4.800389404296875,0.47249776124954224,-0.11911706626415253,0.9728037118911743
1789454207891329300,4.810329345703125,0.4107244312763214,-0.16280010342597961,1.0583066940307617
1789454207901270300,4.820270263671875,0.42340052127838135,-0.1457979530096054,1.1334432363510132
1789454207911210200,4.830210205078125,0.44279953837394714,-0.14405304193496704,1.1080217361450195
1789454207921150500,4.840150390625,0.41414472460746765,-0.1209261566400528,0.9443478584289551
1789454207931090400,4.85009033203125,0.37331339716911316,-0.022766832262277603,0.765489935874939
1789454207941030400,4.860030517578125,0.37012824416160583,0.070868581533432,0.6167423129081726
1789454207950970400,4.869970458984375,0.35943540930747986,0.18617865443229675,0.5085098147392273
1789454207960911400,4.879911376953125,0.3464820384979248,0.3010852634906769,0.44504112005233765
1789454207970851300,4.889851318359375,0.3554624915122986,0.38439881801605225,0.45963841676712036
1789454207980791300,4.899791259765625,0.3796597123146057,0.39285433292388916,0.4936496615409851
1789454207990731500,4.9097314453125,0.391146719455719,0.35246485471725464,0.5724475383758545
1789454208000671500,4.91967138671875,0.3742319345474243,0.3431517779827118,0.6733283400535583
1789454208010612500,4.929612548828125,0.3378957509994507,0.3799377381801605,0.7901622653007507
1789454208020552400,4.939552490234375,0.28286898136138916,0.3712555766105652,0.8934569954872131
1789454208030492400,4.949492431640625,0.23985306918621063,0.1550881266593933,0.9347814917564392
1789454208040432400,4.959432373046875,0.237077534198761,0.004298075567930937,0.9311082363128662
1789454208050372400,4.969372314453125,0.2709907591342926,0.0756007507443428,0.8970211148262024
1789454208060313300,4.979313232421875,0.31555449962615967,0.19578520953655243,0.8265213370323181
1789454208070253300,4.98925341796875,0.3195801377296448,0.1618773192167282,0.7176364064216614
1789454208080193300,4.999193359375,0.2899479269981384,0.12334110587835312,0.585493803024292
1789454208090133500,5.009133544921875,0.27770379185676575,0.10304329544305801,0.49189090728759766
1789454208100073200,5.0190732421875,0.3016091287136078,0.16574262082576752,0.4488600790500641
1789454208110014500,5.029014404296875,0.37037113308906555,0.27818208932876587,0.4225187599658966
1789454208119954400,5.038954345703125,0.4234093129634857,0.21523481607437134,0.3149169385433197
1789454208129894400,5.048894287109375,0.44075873494148254,0.2596675157546997,0.2421540468931198
1789454208139834400,5.05883447265625,0.4742456078529358,0.3359537720680237,0.22849681973457336
1789454208149774300,5.0687744140625,0.5574198365211487,0.4908219277858734,0.2706959545612335
1789454208159715300,5.07871533203125,0.6420071721076965,0.7051725387573242,0.3159358501434326
1789454208169655300,5.0886552734375,0.6628463864326477,0.7558008432388306,0.3110726475715637
1789454208179595500,5.098595458984375,0.5755754113197327,0.713405966758728,0.24215005338191986
1789454208189535500,5.108535400390625,0.5072826743125916,0.8873538374900818,0.18954730033874512
1789454208199475200,5.11847509765625,0.5246030688285828,1.0057721138000488,0.20476458966732025
1789454208209416400,5.12841650390625,0.5612257719039917,0.9611194133758545,0.20209184288978577
1789454208219356400,5.1383564453125,0.4994790554046631,0.9145476222038269,0.20737795531749725
1789454208229296400,5.14829638671875,0.3878800868988037,0.8975441455841064,0.20960915088653564
1789454208239236400,5.158236328125,0.332600861787796,0.7333887815475464,0.14646320044994354
1789454208249176600,5.168176513671875,0.3422659933567047,0.5289008617401123,0.07725297659635544
1789454208259117300,5.178117431640625,0.380646675825119,0.4771479070186615,0.05128369480371475
1789454208269057300,5.188057373046875,0.4061528444290161,0.5499342679977417,0.089090995490551
1789454208278997500,5.19799755859375,0.36373719573020935,0.772421658039093,0.15179325640201569
1789454208288937200,5.207937255859375,0.26382124423980713,0.9529264569282532,0.20174403488636017
1789454208298877400,5.21787744140625,0.1748141497373581,0.8742193579673767,0.20336297154426575
1789454208308818400,5.227818359375,0.10293756425380707,0.636075496673584,0.19942016899585724
1789454208318758400,5.23775830078125,0.15706712007522583,0.3844110667705536,0.2181035727262497
1789454208328698400,5.247698486328125,0.2858935296535492,0.22317902743816376,0.2393031269311905
1789454208338638300,5.257638427734375,0.39726027846336365,0.1273430436849594,0.23237332701683044
1789454208348578600,5.26757861328125,0.37384843826293945,0.1890365034341812,0.21555200219154358
1789454208358519300,5.277519287109375,0.2519318461418152,0.40467584133148193,0.2271018624305725
1789454208368459500,5.28745947265625,0.13227814435958862,0.4575747549533844,0.2639027535915375
1789454208378399500,5.2973994140625,0.09922219067811966,0.45822909474372864,0.2598949670791626
1789454208388339200,5.307339111328125,0.18092398345470428,0.3881482779979706,0.28646692633628845
1789454208398279400,5.317279541015625,0.282694011926651,0.17599233984947205,0.2761756479740143
1789454208408220400,5.327220458984375,0.37751132249832153,0.09051205962896347,0.21355275809764862
1789454208418160400,5.337160400390625,0.3539588749408722,0.19000855088233948,0.22959618270397186
1789454208428100400,5.347100341796875,0.28781235218048096,0.32307925820350647,0.2774134874343872
1789454208438040600,5.35704052734375,0.19395402073860168,0.33021706342697144,0.2988511323928833
1789454208447980300,5.366980224609375,0.18650463223457336,0.4113028645515442,0.3710731565952301
1789454208457921500,5.376921630859375,0.23504847288131714,0.33948618173599243,0.37764182686805725
1789454208467861500,5.386861572265625,0.29553285241127014,0.18568465113639832,0.3195612132549286
1789454208477801200,5.39680126953125,0.3000258803367615,0.05946705490350723,0.24156709015369415
1789454208487741400,5.406741455078125,0.29268938302993774,0.21304303407669067,0.22547920048236847
1789454208497681400,5.416681396484375,0.2879558801651001,0.47293612360954285,0.244698166847229
1789454208507622400,5.426622314453125,0.3067876398563385,0.38593944907188416,0.24092260003089905
1789454208517562400,5.436562255859375,0.30792587995529175,0.2705438733100891,0.21387526392936707
1789454208527502300,5.44650244140625,0.28568580746650696,0.3964807689189911,0.21141983568668365
1789454208537442600,5.456442626953125,0.28157228231430054,0.43199267983436584,0.22521154582500458
1789454208547382300,5.46638232421875,0.3111533522605896,0.38268691301345825,0.17526289820671082
1789454208557323500,5.476323486328125,0.3381202518939972,0.32378605008125305,0.09226921200752258
1789454208567263500,5.486263427734375,0.3438798785209656,0.18822157382965088,0.08338224142789841
1789454208577203200,5.496203125,0.3539511561393738,0.16056011617183685,0.11710958182811737
1789454208587143400,5.506143310546875,0.3290753662586212,0.2418278008699417,0.12367080897092819
1789454208597083400,5.51608349609375,0.31705519556999207,0.38933151960372925,0.09008115530014038
1789454208607023400,5.5260234375,0.29737842082977295,0.4950161278247833,0.01417574007064104
1789454208616964400,5.53596435546875,0.2720608115196228,0.432720810174942,-0.06338349729776382
1789454208626904600,5.545904541015625,0.13773362338542938,0.36662593483924866,-0.1045122966170311
1789454208636844300,5.55584423828125,0.088400699198246,0.496052622795105,-0.09797556698322296
1789454208646784500,5.565784423828125,0.09813215583562851,0.5865702629089355,-0.07923197001218796
1789454208656725800,5.575725830078125,0.10161690413951874,0.5500964522361755,-0.07918829470872879
1789454208666665500,5.58566552734375,0.0795464888215065,0.43126538395881653,-0.07648545503616333
1789454208676605400,5.59560546875,0.05294017866253853,0.4251305162906647,-0.06895297020673752
1789454208686545700,5.605545654296875,0.07985115796327591,0.44145169854164124,-0.05037582293152809
1789454208696485600,5.615485595703125,0.09068276733160019,0.32361480593681335,-0.03491564095020294
1789454208706426600,5.625426513671875,0.037526603788137436,0.1552782654762268,-0.030377080664038658
1789454208716366600,5.63536669921875,-0.0006628608098253608,0.2179379165172577,-0.020793162286281586
1789454208726306600,5.645306640625,-0.03273104876279831,0.324123740196228,-0.029462018981575966
1789454208736246500,5.65524658203125,-0.07654670625925064,0.3387511670589447,-0.09450306743383408
1789454208746186500,5.6651865234375,-0.07988204807043076,0.31626981496810913,-0.1573432832956314
1789454208756127500,5.67512744140625,-0.05630588158965111,0.11445946991443634,-0.2060367912054062
1789454208766067500,5.6850673828125,-0.036620061844587326,0.14195314049720764,-0.23727327585220337
1789454208776007700,5.695007568359375,-0.07125500589609146,0.21429258584976196,-0.2608880400657654
1789454208785947600,5.70494775390625,-0.15474537014961243,0.2737705707550049,-0.28171876072883606
1789454208795887400,5.714887451171875,-0.1943657547235489,0.36453187465667725,-0.29839229583740234
1789454208805828600,5.72482861328125,-0.19320115447044373,0.4759305715560913,-0.3012751638889313
1789454208815768600,5.7347685546875,-0.1998843550682068,0.3074241280555725,-0.3224843144416809
1789454208825708500,5.74470849609375,-0.1930229812860489,0.01600213535130024,-0.4026358723640442
1789454208835648500,5.7546484375,-0.24786652624607086,-0.12303218245506287,-0.48277944326400757
1789454208845588500,5.76458837890625,-0.31458669900894165,0.03413480147719383,-0.5795155763626099
1789454208855529500,5.774529541015625,-0.41104212403297424,0.13549204170703888,-0.6606980562210083
1789454208865469400,5.784469482421875,-0.4636414349079132,0.2103084921836853,-0.691733181476593
1789454208875409700,5.79440966796875,-0.4500313401222229,0.1968664526939392,-0.6560883522033691
1789454208885349600,5.804349609375,-0.3795832693576813,0.12536218762397766,-0.6038779020309448
1789454208895289600,5.81428955078125,-0.3358120918273926,0.008901082910597324,-0.5874565839767456
1789454208905230600,5.824230712890625,-0.33287516236305237,-0.11303600668907166,-0.5612435936927795
1789454208915170600,5.834170654296875,-0.33222854137420654,-0.16757169365882874,-0.5116257071495056
1789454208925110500,5.844110595703125,-0.3392696678638458,-0.16677381098270416,-0.46494612097740173
1789454208935050500,5.854050537109375,-0.3507055640220642,-0.16347680985927582,-0.4195096492767334
1789454208944990700,5.86399072265625,-0.3826107680797577,-0.192396879196167,-0.4021620750427246
1789454208954931500,5.873931396484375,-0.3947952389717102,-0.2578696310520172,-0.3757360875606537
1789454208964871700,5.88387158203125,-0.409675657749176,-0.3016226887702942,-0.3310905694961548
1789454208974811600,5.893811767578125,-0.4319916367530823,-0.292370080947876,-0.31420186161994934
1789454208984751400,5.90375146484375,-0.4582138955593109,-0.2223832756280899,-0.3269299268722534
1789454208994691600,5.913691650390625,-0.49918583035469055,-0.14590607583522797,-0.36523523926734924
1789454209004632600,5.923632568359375,-0.5071114301681519,-0.17289401590824127,-0.41122615337371826
1789454209014572500,5.933572509765625,-0.5060781240463257,-0.21011781692504883,-0.4038199186325073
1789454209024512500,5.943512451171875,-0.5207672715187073,-0.232615128159523,-0.35677942633628845
1789454209034452500,5.953452392578125,-0.5179286599159241,-0.1840798258781433,-0.2929762005805969
1789454209044392700,5.963392822265625,-0.5364181399345398,-0.1058068573474884,-0.22205570340156555
1789454209054333400,5.97333349609375,-0.5481011867523193,-0.0696757510304451,-0.1765281707048416
1789454209064273700,5.983273681640625,-0.5628947615623474,-0.057126402854919434,-0.1535874307155609
1789454209074213600,5.993213623046875,-0.5996173620223999,-0.10188481956720352,-0.1483524590730667
1789454209084153600,6.003153564453125,-0.5921277403831482,-0.13836079835891724,-0.14206339418888092
1789454209094093600,6.013093505859375,-0.6118279695510864,-0.11379474401473999,-0.13596102595329285
1789454209104034600,6.02303466796875,-0.5802258253097534,-0.09249185025691986,-0.15909484028816223
1789454209113974500,6.032974609375,-0.5442110896110535,-0.10468992590904236,-0.2028186172246933
1789454209123914500,6.04291455078125,-0.4653700888156891,-0.0976240262389183,-0.22917300462722778
1789454209133854700,6.052854736328125,-0.4154914617538452,-0.08962894976139069,-0.22278887033462524
1789454209143794400,6.06279443359375,-0.36671221256256104,-0.0640447661280632,-0.21757599711418152
1789454209153735700,6.072735595703125,-0.3334019184112549,-0.04888365417718887,-0.21524253487586975
1789454209163675600,6.082675537109375,-0.29774993658065796,-0.09235789626836777,-0.2340734750032425
1789454209173615400,6.092615478515625,-0.3141224980354309,-0.15312616527080536,-0.2716831862926483
1789454209183555600,6.1025556640625,-0.27156147360801697,-0.12216692417860031,-0.30914852023124695
1789454209193495600,6.11249560546875,-0.19414497911930084,-0.09494941681623459,-0.3263123333454132
1789454209203436500,6.1224365234375,-0.17545251548290253,-0.06388230621814728,-0.34483009576797485
1789454209213376500,6.13237646484375,-0.2155543863773346,-0.01684529334306717,-0.38122379779815674
1789454209223316700,6.142316650390625,-0.24805587530136108,0.04712250456213951,-0.44966650009155273
1789454209233256700,6.152256591796875,-0.2998226583003998,0.08512767404317856,-0.5102787017822266
1789454209243196400,6.162196533203125,-0.3504360318183899,0.1483798772096634,-0.5662999153137207
1789454209253137700,6.1721376953125,-0.3023795783519745,0.18411071598529816,-0.5986210703849792
1789454209263077400,6.182077392578125,-0.2750997543334961,0.19364216923713684,-0.587207019329071
1789454209273017600,6.192017578125,-0.2591908276081085,0.22024394571781158,-0.5331227779388428
1789454209282957600,6.20195751953125,-0.21612563729286194,0.14735589921474457,-0.48170965909957886
1789454209292897500,6.2118974609375,-0.20557339489459991,0.07963943481445312,-0.4745806157588959
1789454209302838500,6.221838623046875,-0.18495839834213257,0.07638851553201675,-0.4885891079902649
1789454209312778500,6.231778564453125,-0.1796235591173172,0.11799667775630951,-0.4899404048919678
1789454209322718700,6.24171875,-0.1990443915128708,0.19987262785434723,-0.46712350845336914
1789454209332658400,6.251658447265625,-0.211656853556633,0.32177457213401794,-0.42182180285453796
1789454209342599700,6.261599609375,-0.28074750304222107,0.4463103711605072,-0.38410240411758423
1789454209352539600,6.27153955078125,-0.32208535075187683,0.5527824759483337,-0.4096357226371765
1789454209362479400,6.281479248046875,-0.36476412415504456,0.5028402209281921,-0.4935061037540436
1789454209372419600,6.291419677734375,-0.4473809599876404,0.38433462381362915,-0.5552003979682922
1789454209382359600,6.301359619140625,-0.5029520988464355,0.38715118169784546,-0.5599557161331177
1789454209392300500,6.311300537109375,-0.5228895545005798,0.42143991589546204,-0.5486053228378296
1789454209402240500,6.321240478515625,-0.5203156471252441,0.4376188814640045,-0.5408861637115479
1789454209412180700,6.3311806640625,-0.48787087202072144,0.43366169929504395,-0.5065622925758362
1789454209422120400,6.341120361328125,-0.43821409344673157,0.4321940243244171,-0.4257020354270935
1789454209432060400,6.351060302734375,-0.4090684652328491,0.46547502279281616,-0.38816824555397034
1789454209442001700,6.361001708984375,-0.3838304877281189,0.498550683259964,-0.38535061478614807
1789454209451941400,6.37094140625,-0.3422479033470154,0.5514367818832397,-0.39620912075042725
1789454209461881600,6.380881591796875,-0.2807008922100067,0.5703255534172058,-0.3637704849243164
1789454209471821600,6.390821533203125,-0.22183997929096222,0.46723055839538574,-0.3184770345687866
1789454209481761500,6.400761474609375,-0.18973638117313385,0.2979251742362976,-0.28392013907432556
1789454209491702500,6.41070263671875,-0.14748506247997284,0.15104304254055023,-0.31410786509513855
1789454209501642500,6.420642578125,-0.11157366633415222,0.007939149625599384,-0.42271822690963745
1789454209511582700,6.430582763671875,-0.08741213381290436,-0.1166701540350914,-0.4729715585708618
1789454209521522400,6.4405224609375,-0.14195021986961365,-0.11781265586614609,-0.38824546337127686
1789454209531462700,6.450462646484375,-0.20029474794864655,0.026872893795371056,-0.2654588222503662
1789454209541403600,6.460403564453125,-0.19779697060585022,0.2159743756055832,-0.20925362408161163
1789454209551343400,6.47034326171875,-0.15931029617786407,0.3589975833892822,-0.22288234531879425
1789454209561283600,6.48028369140625,-0.04673448204994202,0.3851362466812134,-0.2317163199186325
1789454209571223600,6.4902236328125,0.08738843351602554,0.25747519731521606,-0.23258396983146667
1789454209581163500,6.50016357421875,0.18648812174797058,0.07571766525506973,-0.2211957722902298
1789454209591104500,6.5101044921875,0.2144627571105957,-0.1399584412574768,-0.2319469451904297
1789454209601044700,6.520044677734375,0.16383659839630127,-0.28717851638793945,-0.24726039171218872
1789454209610984400,6.529984375,0.11375239491462708,-0.3368701636791229,-0.2914928197860718
1789454209620924400,6.53992431640625,0.08725634217262268,-0.3159518241882324,-0.36061757802963257
1789454209630865700,6.54986572265625,0.10168508440256119,-0.31076347827911377,-0.4210553467273712
1789454209640805000,6.55980517578125,0.13045866787433624,-0.3205258250236511,-0.41226106882095337
1789454209650744800,6.569744873046875,0.1428101509809494,-0.3153241276741028,-0.38083577156066895
1789454209660685000,6.57968505859375,0.11197473853826523,-0.3602719008922577,-0.39813271164894104
1789454209670625000,6.589625,0.06424316763877869,-0.36190441250801086,-0.45662692189216614
1789454209680566000,6.59956591796875,0.03779371827840805,-0.3149470388889313,-0.5130805969238281
1789454209690506000,6.609506103515625,0.02990543469786644,-0.32701194286346436,-0.559115469455719
1789454209700446200,6.6194462890625,0.01948981173336506,-0.4197882115840912,-0.5863209962844849
1789454209710386000,6.629385986328125,-0.04968686401844025,-0.5338239669799805,-0.6170709133148193
1789454209720326000,6.639325927734375,-0.09857530891895294,-0.6056110858917236,-0.6502057313919067
1789454209730267100,6.64926708984375,-0.08575618267059326,-0.6688284277915955,-0.7061829566955566
1789454209740206800,6.659206787109375,-0.029254557564854622,-0.6851722002029419,-0.7616869807243347
1789454209750147000,6.66914697265625,-0.017482588067650795,-0.8348416090011597,-0.8138681650161743
1789454209760087000,6.679087158203125,-0.0668804943561554,-0.9452879428863525,-0.8190969824790955
1789454209770027000,6.689027099609375,-0.09158024936914444,-0.7965496182441711,-0.8461368680000305
1789454209779968000,6.698968017578125,0.006929811555892229,-0.5082719922065735,-0.8955318331718445
1789454209789908000,6.708907958984375,0.09086252748966217,-0.32376953959465027,-0.9139395952224731
1789454209799848200,6.71884814453125,0.08732105791568756,-0.3484397530555725,-0.8775067925453186
1789454209809788000,6.728787841796875,0.02382437326014042,-0.4365259110927582,-0.8443959355354309
1789454209819728000,6.738727783203125,-0.03873301297426224,-0.5680871605873108,-0.8615142107009888
1789454209829669000,6.748669189453125,-0.08423472195863724,-0.7266701459884644,-0.9096042513847351
1789454209839608800,6.75860888671875,-0.07013115286827087,-0.6900489926338196,-0.922768771648407
1789454209849549000,6.768549072265625,0.00971680972725153,-0.5851191282272339,-0.9540023803710938
1789454209859489000,6.778489013671875,0.07579942047595978,-0.645717203617096,-0.9724705815315247
1789454209869429000,6.788428955078125,0.0788375586271286,-0.7180907726287842,-0.943526029586792
1789454209879370000,6.798369873046875,0.06629140675067902,-0.6277624368667603,-0.919328510761261
1789454209889310200,6.808310302734375,0.12244122475385666,-0.4889121651649475,-0.9614853262901306
1789454209899250000,6.81825,0.16887956857681274,-0.35775306820869446,-1.0220301151275635
1789454209909190000,6.82818994140625,0.2111830860376358,-0.2818948030471802,-1.0620726346969604
1789454209919130000,6.838130126953125,0.2412128895521164,-0.3114739954471588,-1.0759549140930176
1789454209929070800,6.84807080078125,0.2328241914510727,-0.25010889768600464,-1.101562738418579
1789454209939011000,6.858010986328125,0.2226482480764389,-0.20969223976135254,-1.131748914718628
1789454209948951000,6.867950927734375,0.23766368627548218,-0.14595161378383636,-1.109794020652771
1789454209958891000,6.87789111328125,0.22958418726921082,-0.20467697083950043,-1.0559649467468262
1789454209968832000,6.88783203125,0.19418838620185852,-0.2919072210788727,-1.0343570709228516
1789454209978772000,6.89777197265625,0.17747437953948975,-0.2171940952539444,-1.0341789722442627
1789454209988712200,6.907712158203125,0.20902937650680542,0.0033939324785023928,-1.057168960571289
1789454209998652000,6.91765185546875,0.24523292481899261,-0.004630704410374165,-1.0375795364379883
1789454210008592100,6.927592041015625,0.24548539519309998,-0.06969679147005081,-0.9588652849197388
1789454210018532900,6.937532958984375,0.20487351715564728,0.14962570369243622,-0.8856486082077026
1789454210028472800,6.947472900390625,0.1514771431684494,0.37784343957901,-0.8760370016098022
1789454210038413000,6.9574130859375,0.13171488046646118,0.35002803802490234,-0.9361498355865479
1789454210048353000,6.96735302734375,0.14946751296520233,0.2626497447490692,-0.9549328684806824
1789454210058293000,6.97729296875,0.17009849846363068,0.3393112123012543,-0.9260559678077698
1789454210068234000,6.98723388671875,0.12896837294101715,0.41571173071861267,-0.9205924868583679
1789454210078174200,6.99717431640625,0.07554615288972855,0.34119194746017456,-0.9345383644104004
1789454210088114000,7.007114013671875,0.07680077105760574,0.4611676037311554,-0.8477947115898132
1789454210098054000,7.017053955078125,0.13717703521251678,0.5847311019897461,-0.7750600576400757
1789454210107994000,7.026994140625,0.1620751917362213,0.5721420645713806,-0.7324177622795105
1789454210117934800,7.036934814453125,0.14311401546001434,0.5210075378417969,-0.6442663073539734
1789454210127875000,7.046875,0.13044455647468567,0.5285125970840454,-0.5076379179954529
1789454210137815000,7.05681494140625,0.11947659403085709,0.5065732002258301,-0.4296717345714569
1789454210147755000,7.066755126953125,0.058752529323101044,0.5427258610725403,-0.3858789801597595
1789454210157695000,7.076695068359375,0.02099369838833809,0.5878131985664368,-0.29958483576774597
1789454210167636000,7.086635986328125,0.03015630505979061,0.5522261261940002,-0.20932285487651825
1789454210177576200,7.096576171875,-0.03885551914572716,0.4624328911304474,-0.1510627567768097
1789454210187516000,7.106515869140625,-0.18327555060386658,0.3454660475254059,-0.05140460282564163
1789454210197456100,7.1164560546875,-0.22032438218593597,0.33255505561828613,0.0489097535610199
1789454210207396900,7.12639697265625,-0.17777559161186218,0.36682939529418945,0.09644638001918793
1789454210217337000,7.136337158203125,-0.18541432917118073,0.4078948199748993,0.16128796339035034
1789454210227277000,7.146277099609375,-0.24901407957077026,0.38154709339141846,0.32677358388900757
1789454210237217000,7.156217041015625,-0.33604884147644043,0.25206127762794495,0.4241158664226532
1789454210247157000,7.166156982421875,-0.36216646432876587,0.1796552538871765,0.42703601717948914
1789454210257098000,7.176097900390625,-0.3936634063720703,0.3137398064136505,0.49820393323898315
1789454210267038200,7.1860380859375,-0.4088061451911926,0.18986020982265472,0.5021321177482605
1789454210276978000,7.19597802734375,-0.4009873569011688,0.2705731689929962,0.5687742233276367
1789454210286918000,7.20591796875,-0.3619009554386139,0.2439040094614029,0.5735127925872803
1789454210296858000,7.215858154296875,-0.40216928720474243,0.17246471345424652,0.6195263862609863
1789454210306798800,7.225798828125,-0.4535943865776062,-0.04814063012599945,0.658708930015564
1789454210316739000,7.235739013671875,-0.4181059002876282,-0.18028055131435394,0.659080982208252
1789454210326679000,7.245678955078125,-0.31608152389526367,-0.1588442474603653,0.6604194641113281
1789454210336619000,7.255618896484375,-0.18126752972602844,-0.06310945749282837,0.714303731918335
1789454210346559000,7.26555908203125,-0.048471663147211075,0.015789082273840904,0.8048331141471863
1789454210356500000,7.2755,0.033719345927238464,0.10692857950925827,0.8788015842437744
1789454210366440000,7.28543994140625,0.08172415941953659,0.18663538992404938,0.9252505898475647
1789454210376380000,7.2953798828125,0.0941118523478508,0.12594594061374664,0.8692355155944824
1789454210386320100,7.305320068359375,0.11865634471178055,0.16546086966991425,0.8317262530326843
1789454210396260000,7.315260009765625,0.2202649861574173,0.32357168197631836,0.8094526529312134
1789454210406201000,7.325201171875,0.3033255338668823,0.386544793844223,0.7604150176048279
1789454210416141000,7.33514111328125,0.29917284846305847,0.34444525837898254,0.8146101236343384
1789454210426081000,7.3450810546875,0.30679216980934143,0.3282756209373474,0.8781749606132507
1789454210436021000,7.35502099609375,0.38421452045440674,0.3232329189777374,0.8648602366447449
1789454210445962000,7.3649619140625,0.4623119831085205,0.3331792950630188,0.8523492217063904
1789454210455902200,7.374902099609375,0.4955671429634094,0.3351649343967438,0.8929488658905029
1789454210465842000,7.384842041015625,0.4839562773704529,0.31207746267318726,0.924475908279419
1789454210475782000,7.394781982421875,0.4515645205974579,0.1954512596130371,0.9267691373825073
1789454210485722000,7.40472216796875,0.36574363708496094,0.08201231062412262,0.9381882548332214
1789454210495662800,7.414662841796875,0.34086596965789795,0.12430676817893982,0.9898064136505127
1789454210505603000,7.42460302734375,0.4218825399875641,0.17978307604789734,0.971621036529541
1789454210515543000,7.43454296875,0.5127202868461609,0.2445381134748459,0.9536769390106201
1789454210525483000,7.44448291015625,0.5490570068359375,0.24017319083213806,1.0189307928085327
1789454210535423000,7.454423095703125,0.5798966884613037,0.27455511689186096,1.0429450273513794
1789454210545364000,7.464364013671875,0.6477694511413574,0.25379419326782227,0.9356158971786499
1789454210555304000,7.474303955078125,0.6612975001335144,0.2872062027454376,1.0382916927337646
1789454210565244000,7.484243896484375,0.704207181930542,0.32383081316947937,1.0017876625061035
1789454210575184100,7.49418408203125,0.7136827111244202,0.24006719887256622,0.922382116317749
1789454210585124000,7.5041240234375,0.7059363722801208,0.2028053104877472,0.8519742488861084
1789454210595065000,7.514065185546875,0.6640786528587341,0.26181721687316895,0.8724023103713989
1789454210605005000,7.524005126953125,0.6629167199134827,0.35464757680892944,0.9986326694488525
1789454210614945000,7.533945068359375,0.7607636451721191,0.35249626636505127,1.026155948638916
1789454210624885000,7.543885009765625,0.8512789011001587,0.2870890200138092,0.9637473821640015
1789454210634825000,7.553824951171875,0.8624849319458008,0.324461966753006,0.9653609991073608
1789454210644766700,7.5637666015625,0.8378618955612183,0.3664341866970062,1.0457860231399536
1789454210654706700,7.573706787109375,0.8526200652122498,0.3360975980758667,1.1126114130020142
1789454210664647000,7.58364697265625,0.8558462262153625,0.24824149906635284,1.0864328145980835
1789454210674587000,7.5935869140625,0.8459848165512085,0.1490885466337204,0.9719230532646179
1789454210684526600,7.603526611328125,0.8253825902938843,0.14241600036621094,0.9016214609146118
1789454210694467800,7.6134677734375,0.8271738290786743,0.16876797378063202,0.9405877590179443
1789454210704407800,7.62340771484375,0.8779765367507935,0.1627018302679062,0.9942051768302917
1789454210714347800,7.63334765625,0.9594136476516724,0.042622826993465424,0.9190605878829956
1789454210724287700,7.643287841796875,1.0369653701782227,0.020145481452345848,0.8399285078048706
1789454210734228700,7.653228759765625,1.0564906597137451,0.040108270943164825,0.7992330193519592
1789454210744168700,7.663168701171875,1.0314886569976807,0.12506364285945892,0.8463448882102966
1789454210754108700,7.673108642578125,1.0434528589248657,0.22549223899841309,0.9357777833938599
1789454210764049000,7.683048828125,1.1159241199493408,-0.002234924817457795,0.8755059242248535
1789454210773988600,7.692988525390625,1.1416425704956055,-0.11300963908433914,0.6984928250312805
1789454210783929900,7.702929931640625,1.0862839221954346,0.05769312381744385,0.5821462273597717
1789454210793869800,7.712869873046875,1.0637365579605103,0.171943798661232,0.554617702960968
1789454210803809800,7.722809814453125,1.0864826440811157,0.1456432193517685,0.5725839138031006
1789454210813749800,7.732749755859375,1.0833179950714111,0.17853058874607086,0.6021819710731506
1789454210823689700,7.742689697265625,1.0391480922698975,0.30639880895614624,0.6016850471496582
1789454210833630700,7.752630615234375,0.9636086225509644,0.3494932949542999,0.5325946807861328
1789454210843570700,7.76257080078125,0.8479334115982056,0.34788766503334045,0.5027877688407898
1789454210853511000,7.772510986328125,0.7649850249290466,0.35928279161453247,0.5167853236198425
1789454210863451000,7.782450927734375,0.7490723729133606,0.2954063415527344,0.48888924717903137
1789454210873390600,7.792390625,0.7661964893341064,0.16618284583091736,0.437100887298584
1789454210883331800,7.802331787109375,0.7691051959991455,-0.019651997834444046,0.42916521430015564
1789454210893271800,7.812271728515625,0.7469362616539001,-0.16448189318180084,0.45647966861724854
1789454210903211800,7.822211669921875,0.7424288392066956,-0.2343997210264206,0.5063353776931763
1789454210913151700,7.83215185546875,0.7407028675079346,-0.1681426614522934,0.5780417919158936
1789454210923092700,7.8420927734375,0.7755793333053589,-0.008677377365529537,0.6028547286987305
1789454210933032700,7.85203271484375,0.7494215369224548,0.0836176648736,0.5478466153144836
1789454210942972700,7.86197265625,0.6804107427597046,0.038720231503248215,0.45548015832901
1789454210952913000,7.871912841796875,0.5351830124855042,0.0491611547768116,0.46307602524757385
1789454210962852600,7.8818525390625,0.44484269618988037,0.1699293851852417,0.5364229679107666
1789454210972793900,7.8917939453125,0.4298560321331024,0.1704135537147522,0.591164767742157
1789454210982733800,7.90173388671875,0.5495800375938416,0.06011313945055008,0.5340961813926697
1789454210992673800,7.911673828125,0.7139593958854675,0.0020607539918273687,0.4613652229309082
1789454211002613800,7.92161376953125,0.7851017713546753,0.03669995814561844,0.42318668961524963
1789454211012553700,7.9315537109375,0.6572793126106262,0.07535228133201599,0.4072529971599579
1789454211022494700,7.94149462890625,0.47111931443214417,0.22339659929275513,0.40686309337615967
1789454211032434700,7.9514345703125,0.38022881746292114,0.42365485429763794,0.4043016731739044
1789454211042375000,7.961375,0.2798723876476288,0.41018804907798767,0.3868377208709717
1789454211052315000,7.97131494140625,0.327746719121933,0.19074544310569763,0.311423659324646
1789454211062254600,7.981254638671875,0.378074049949646,0.09953591227531433,0.23942430317401886
1789454211072195800,7.99119580078125,0.3309129476547241,0.05922124534845352,0.19587630033493042
1789454211082135600,8.001135498046875,0.21620073914527893,0.11636309325695038,0.19320860505104065
1789454211092075800,8.01107568359375,0.13415513932704926,0.1612647920846939,0.25339552760124207
1789454211102015700,8.021015625,0.12341221421957016,0.26444578170776367,0.30535805225372314
1789454211111956000,8.0309560546875,0.16654397547245026,0.23734250664710999,0.3148740530014038
1789454211121896700,8.040896728515625,0.15494404733181,0.16660335659980774,0.263046532869339
1789454211131836700,8.050836669921875,0.15109257400035858,0.20283380150794983,0.1951148957014084
1789454211141777000,8.06077685546875,0.07471338659524918,0.1938144713640213,0.12926584482192993
1789454211151716600,8.070716552734375,-0.009318400174379349,0.20789647102355957,0.05061390995979309
1789454211161656800,8.08065673828125,-0.07446970790624619,0.22969551384449005,0.006265352945774794
1789454211171597800,8.090597900390625,-0.09565408527851105,0.24789102375507355,-0.0073596457950770855
1789454211181537800,8.100537841796875,-0.0862259641289711,0.06059836596250534,-0.02533678151667118
1789454211191477800,8.110477783203125,-0.05955334007740021,-0.026250777766108513,-0.0791022777557373
1789454211201417700,8.120417724609375,-0.09709618985652924,-0.08065569400787354,-0.12623143196105957
1789454211211358000,8.13035791015625,-0.1428503692150116,-0.13104243576526642,-0.1622791886329651
1789454211221298700,8.140298583984375,-0.1624717265367508,-0.007465639617294073,-0.21728545427322388
1789454211231239000,8.150239013671875,-0.19816021621227264,0.03170493245124817,-0.3111746609210968
1789454211241178600,8.1601787109375,-0.23966266214847565,-0.08337344974279404,-0.37417787313461304
1789454211251118600,8.17011865234375,-0.3277999758720398,-0.19277983903884888,-0.3600468635559082
1789454211261059800,8.180059814453125,-0.3859804570674896,-0.19442035257816315,-0.30839937925338745
1789454211270999600,8.18999951171875,-0.388902485370636,-0.14324797689914703,-0.27284032106399536
1789454211280939800,8.199939697265625,-0.3652634620666504,-0.14632338285446167,-0.24525529146194458
1789454211290879700,8.209879638671875,-0.3396188020706177,0.02166881039738655,-0.2707936763763428
1789454211300820000,8.219820068359375,-0.31557419896125793,0.2211262583732605,-0.3714475929737091
1789454211310760700,8.2297607421875,-0.30135583877563477,0.1797250211238861,-0.4802321195602417
1789454211320700700,8.23970068359375,-0.3215301036834717,0.079415462911129,-0.5233353972434998
1789454211330641000,8.249640869140626,-0.35281530022621155,0.062195729464292526,-0.5279245376586914
1789454211340580600,8.25958056640625,-0.37480103969573975,0.02322303131222725,-0.5365608930587769
1789454211350520800,8.269520751953126,-0.45555901527404785,0.06951196491718292,-0.5626777410507202
1789454211360461800,8.2794619140625,-0.5666306614875793,0.0889061689376831,-0.5924630761146545
1789454211370401800,8.28940185546875,-0.5894978642463684,0.04833770543336868,-0.6190618872642517
1789454211380341800,8.299341796875,-0.6228627562522888,0.18202519416809082,-0.6470085978507996
1789454211390281700,8.30928173828125,-0.683964192867279,0.22078031301498413,-0.633006751537323
1789454211400222000,8.319221923828126,-0.6978459358215332,0.13932301104068756,-0.5811582207679749
1789454211410162700,8.32916259765625,-0.676261842250824,0.029137644916772842,-0.49817997217178345
1789454211420103000,8.33910302734375,-0.6655897498130798,-0.18743593990802765,-0.4349730312824249
1789454211430042600,8.349042724609374,-0.6118479371070862,-0.39703309535980225,-0.3908678889274597
1789454211439982600,8.358982666015624,-0.5787855982780457,-0.402389258146286,-0.3012186884880066
1789454211449922800,8.3689228515625,-0.664527952671051,-0.411955326795578,-0.18111519515514374
1789454211459863600,8.378863525390624,-0.7720043063163757,-0.41180193424224854,-0.11305171996355057
1789454211469803800,8.3888037109375,-0.8662126064300537,-0.40653473138809204,-0.10491709411144257
1789454211479743700,8.39874365234375,-0.8676397800445557,-0.3739168643951416,-0.10759676992893219
1789454211489684000,8.40868408203125,-0.7961211204528809,-0.4200100600719452,-0.11922359466552734
1789454211499623700,8.418623779296874,-0.6646006107330322,-0.5275607705116272,-0.15284228324890137
1789454211509565000,8.42856494140625,-0.6150698065757751,-0.6423467397689819,-0.16659590601921082
1789454211519505000,8.4385048828125,-0.5967350602149963,-0.6076454520225525,-0.17469830811023712
1789454211529444600,8.448444580078124,-0.5216232538223267,-0.5978609919548035,-0.1856023520231247
1789454211539384800,8.458384765625,-0.4424642324447632,-0.5728201270103455,-0.22851546108722687
1789454211549325800,8.468325927734375,-0.486405611038208,-0.577271580696106,-0.35634079575538635
1789454211559265800,8.478265869140625,-0.5283956527709961,-0.6949446797370911,-0.4960116147994995
1789454211569205800,8.488205810546875,-0.4553145170211792,-0.7596943974494934,-0.5867436528205872
1789454211579145700,8.498145751953125,-0.4377102255821228,-0.5950939655303955,-0.6541162729263306
1789454211589085700,8.508085693359375,-0.38142380118370056,-0.4386489987373352,-0.7501168847084045
1789454211599026700,8.518026611328125,-0.35783642530441284,-0.3848973512649536,-0.8028791546821594
1789454211608967000,8.527966796875,-0.3631012439727783,-0.2877526879310608,-0.755987286567688
1789454211618906600,8.53790673828125,-0.3421615958213806,-0.08777698874473572,-0.6432748436927795
1789454211628846600,8.5478466796875,-0.27283552289009094,0.07092583924531937,-0.5709702968597412
1789454211638786800,8.557786865234375,-0.250043123960495,0.054251521825790405,-0.5719058513641357
1789454211648727300,8.567727294921875,-0.3029036819934845,-0.05453328415751457,-0.5594995021820068
1789454211658667300,8.577667236328125,-0.3585405647754669,-0.16322994232177734,-0.481925904750824
1789454211668607500,8.587607421875,-0.4277835488319397,-0.17276538908481598,-0.39135870337486267
1789454211678547500,8.59754736328125,-0.5073436498641968,-0.1627255380153656,-0.3214437961578369
1789454211688487400,8.6074873046875,-0.5718536376953125,-0.20626822113990784,-0.2912158668041229
1789454211698428400,8.617428466796875,-0.6095634698867798,-0.26567456126213074,-0.30465710163116455
1789454211708368600,8.62736865234375,-0.5879790782928467,-0.30585765838623047,-0.30476683378219604
1789454211718308400,8.637308349609375,-0.5464215278625488,-0.370932012796402,-0.2897074520587921
1789454211728248300,8.647248291015625,-0.5257245302200317,-0.32814300060272217,-0.2576592266559601
1789454211738188500,8.6571884765625,-0.543418288230896,-0.3500259220600128,-0.23482929170131683
1789454211748129300,8.66712939453125,-0.598113477230072,-0.45216506719589233,-0.30073800683021545
1789454211758069500,8.677069580078125,-0.5991675853729248,-0.5572760701179504,-0.419688880443573
1789454211768009500,8.687009521484375,-0.5430715680122375,-0.5405654907226562,-0.5040876269340515
1789454211777949400,8.696949462890625,-0.4746112525463104,-0.5276475548744202,-0.5375332236289978
1789454211787889400,8.706889404296875,-0.4393605887889862,-0.4461769461631775,-0.560011625289917
1789454211797830400,8.716830322265626,-0.4628089368343353,-0.37102919816970825,-0.5643875002861023
1789454211807770400,8.726770263671876,-0.4898948669433594,-0.4140022397041321,-0.6313353776931763
1789454211817710300,8.73671044921875,-0.5551154017448425,-0.45757555961608887,-0.7064186334609985
1789454211827650600,8.746650634765626,-0.617012619972229,-0.34121325612068176,-0.6965242028236389
1789454211837591300,8.75659130859375,-0.6705594658851624,-0.18303453922271729,-0.6738162636756897
1789454211847531300,8.76653125,-0.7146981358528137,-0.14512071013450623,-0.6335351467132568
1789454211857471500,8.776471435546876,-0.7798814177513123,-0.08201843500137329,-0.5749176144599915
1789454211867411500,8.786411376953126,-0.8628585934638977,-0.08249274641275406,-0.5562568306922913
1789454211877351400,8.796351318359376,-0.9382412433624268,-0.11066179722547531,-0.5771408081054688
1789454211887291400,8.80629150390625,-0.9597316384315491,-0.1118282601237297,-0.5845625400543213
1789454211897232600,8.816232666015624,-0.9576948285102844,-0.2105303406715393,-0.6087828874588013
1789454211907172400,8.82617236328125,-0.9773311018943787,-0.32574453949928284,-0.6142416000366211
1789454211917112300,8.8361123046875,-1.031333327293396,-0.3040158152580261,-0.5616286993026733
1789454211927052500,8.846052490234374,-0.9940727949142456,-0.2528647482395172,-0.4924507141113281
1789454211936993300,8.8559931640625,-0.930090069770813,-0.2563212513923645,-0.42889249324798584
1789454211946933500,8.86593359375,-0.8649872541427612,-0.3434159457683563,-0.4003479480743408
1789454211956873500,8.87587353515625,-0.8134353756904602,-0.5108613967895508,-0.3838789463043213
1789454211966813400,8.8858134765625,-0.7883060574531555,-0.6419496536254883,-0.36088842153549194
1789454211976753400,8.89575341796875,-0.7816358804702759,-0.6756423711776733,-0.31875666975975037
1789454211986694400,8.9056943359375,-0.7502225637435913,-0.7319945693016052,-0.33849576115608215
1789454211996634400,8.91563427734375,-0.7167964577674866,-0.836607038974762,-0.35983380675315857
1789454212006574300,8.92557421875,-0.7461189031600952,-0.9363530278205872,-0.3798927366733551
1789454212016514600,8.9355146484375,-0.7971927523612976,-0.945629894733429,-0.37131255865097046
1789454212026454500,8.94545458984375,-0.7718818187713623,-0.9054606556892395,-0.3343803882598877
1789454212036395300,8.955395263671875,-0.7074905633926392,-0.8563548922538757,-0.3196578919887543
1789454212046335500,8.96533544921875,-0.632848858833313,-0.8675012588500977,-0.3422074019908905
1789454212056275500,8.975275390625,-0.6011177897453308,-0.860520601272583,-0.3820810616016388
1789454212066215400,8.98521533203125,-0.5269690155982971,-0.6913188099861145,-0.4292179346084595
1789454212076155400,8.9951552734375,-0.42930370569229126,-0.47384506464004517,-0.44812026619911194
1789454212086096600,9.0050966796875,-0.3437296748161316,-0.23096637427806854,-0.47750452160835266
1789454212096036400,9.015036376953125,-0.2993718087673187,-0.009620669297873974,-0.5138593316078186
1789454212105976300,9.024976318359375,-0.2935706377029419,0.19269141554832458,-0.5245497822761536
1789454212115916500,9.03491650390625,-0.2817794978618622,0.3584335148334503,-0.5491094589233398
1789454212125856500,9.0448564453125,-0.27222299575805664,0.3849940299987793,-0.5827752947807312
1789454212135797500,9.054797607421875,-0.2621786296367645,0.27393007278442383,-0.6295574307441711
1789454212145737500,9.064737548828125,-0.2341557741165161,0.1927769035100937,-0.6709469556808472
1789454212155677400,9.074677490234375,-0.1547168791294098,0.1933036893606186,-0.7253921031951904
1789454212165617400,9.084617431640625,-0.08138061314821243,0.12318851053714752,-0.8060086369514465
1789454212175557400,9.094557373046875,-0.016021311283111572,0.20777903497219086,-0.810538113117218
1789454212185498400,9.104498291015625,-0.018548384308815002,0.24315565824508667,-0.7882480025291443
1789454212195438300,9.114438232421875,-0.06045908108353615,0.2684333324432373,-0.7651693224906921
1789454212205378600,9.124378662109375,-0.1321101039648056,0.32410696148872375,-0.7422855496406555
1789454212215318500,9.134318603515625,-0.2144363969564438,0.3212331533432007,-0.7246754169464111
1789454212225259500,9.144259521484376,-0.2881753444671631,0.2804489731788635,-0.7486276030540466
1789454212235199500,9.154199462890626,-0.2757021486759186,0.3752892017364502,-0.8148396611213684
1789454212245139500,9.164139404296876,-0.21486888825893402,0.4719070792198181,-0.8554547429084778
1789454212255079400,9.174079345703126,-0.18434055149555206,0.5331462025642395,-0.8190208077430725
1789454212265019400,9.184019287109376,-0.15260924398899078,0.7530394196510315,-0.7809288501739502
1789454212274960600,9.193960693359376,-0.03838014602661133,0.8678703904151917,-0.7597138285636902
1789454212284900400,9.203900390625,0.07853821665048599,0.8771256804466248,-0.7068333029747009
1789454212294840300,9.21384033203125,0.11804035305976868,0.768462061882019,-0.6116855144500732
1789454212304780500,9.223780517578126,0.0917416363954544,0.6257331371307373,-0.4859089255332947
1789454212314720500,9.233720458984376,0.022600118070840836,0.4824097752571106,-0.3778682053089142
1789454212324661500,9.24366162109375,-0.008523181080818176,0.41483792662620544,-0.32663989067077637
1789454212334601500,9.2536015625,-0.004848284646868706,0.35816800594329834,-0.30747419595718384
1789454212344541200,9.263541259765624,0.057196445763111115,0.36171427369117737,-0.321623831987381
1789454212354481400,9.2734814453125,0.13628487288951874,0.38299745321273804,-0.3192935585975647
1789454212364421400,9.28342138671875,0.157129168510437,0.43463268876075745,-0.2474265694618225
1789454212374362400,9.2933623046875,0.12220500409603119,0.4274306893348694,-0.17430149018764496
1789454212384302300,9.30330224609375,0.054617706686258316,0.334062397480011,-0.06471534818410873
1789454212394242600,9.31324267578125,-0.05079127475619316,0.39683789014816284,0.08343816548585892
1789454212404182500,9.3231826171875,-0.06626823544502258,0.27444034814834595,0.10251332819461823
1789454212414122200,9.333122314453124,-0.0805307924747467,0.2984316945075989,0.15351472795009613
1789454212424063500,9.3430634765625,-0.10175885260105133,0.22362270951271057,0.16886119544506073
1789454212434003500,9.35300341796875,-0.04572940617799759,0.2335384488105774,0.22418570518493652
1789454212443943400,9.362943359375,0.07940108329057693,0.31762856245040894,0.253324955701828
1789454212453883400,9.37288330078125,0.20653294026851654,0.39154112339019775,0.2969895899295807
1789454212463823400,9.3828232421875,0.2909591495990753,0.41402727365493774,0.3806770443916321
1789454212473764400,9.392764404296875,0.3645673096179962,0.4411965608596802,0.4282171130180359
1789454212483704300,9.402704345703125,0.40840426087379456,0.3757206201553345,0.39426180720329285
1789454212493644500,9.41264453125,0.4016459584236145,0.33551275730133057,0.38797008991241455
1789454212503584500,9.42258447265625,0.4234205186367035,0.2837667465209961,0.4293343126773834
1789454212513525500,9.432525390625,0.46300041675567627,0.2417796105146408,0.4824923574924469
1789454212523465500,9.442465576171875,0.4849669635295868,0.233808234333992,0.5392336845397949
1789454212533405400,9.452405517578125,0.5351142883300781,0.184738427400589,0.5518922209739685
1789454212543345400,9.462345458984375,0.5856927633285522,0.20318001508712769,0.5699441432952881
1789454212553285400,9.472285400390625,0.6330459117889404,0.23611772060394287,0.6024962663650513
1789454212563226400,9.482226318359375,0.678879976272583,0.2874158024787903,0.6541969776153564
1789454212573166300,9.492166259765625,0.7155866026878357,0.3633584976196289,0.6780384182929993
1789454212583106600,9.5021064453125,0.7586701512336731,0.4222947955131531,0.7256112694740295
1789454212593046500,9.512046630859375,0.8153078556060791,0.44988593459129333,0.7144909501075745
1789454212602986200,9.521986328125,0.7765492796897888,0.4489692747592926,0.7770217061042786
1789454212612927500,9.531927490234375,0.7185565233230591,0.46497753262519836,0.8981537222862244
1789454212622867500,9.541867431640625,0.769223153591156,0.3255682587623596,0.900205671787262
1789454212632807400,9.551807373046875,0.8524035811424255,0.26123398542404175,0.8589032888412476
1789454212642747400,9.561747314453125,0.9033695459365845,0.34626632928848267,0.9104524850845337
1789454212652687600,9.5716875,0.9404268860816956,0.4540007710456848,0.944121778011322
1789454212662628400,9.58162841796875,0.9571658968925476,0.4625372886657715,0.8980855345726013
1789454212672568600,9.591568603515626,0.8884356021881104,0.5827183127403259,1.0572853088378906
1789454212682508500,9.601508544921876,0.9116389155387878,0.4595060646533966,1.0149884223937988
1789454212692448500,9.611448486328126,0.9280993938446045,0.28358057141304016,0.9338187575340271
1789454212702388500,9.621388427734376,0.9018845558166504,0.3258761167526245,0.9937710762023926
1789454212712329700,9.631329833984376,0.9525445103645325,0.3808056712150574,1.0967155694961548
1789454212722269400,9.64126953125,1.054502010345459,0.2800750732421875,1.0963906049728394
1789454212732209400,9.65120947265625,1.1231218576431274,0.2180364578962326,1.102532982826233
1789454212742149600,9.661149658203126,1.1544870138168335,0.18275463581085205,1.0949461460113525
1789454212752089600,9.671089599609376,1.2183892726898193,0.12982670962810516,1.0435963869094849
1789454212762030600,9.681030517578124,1.243058681488037,0.07629157602787018,1.0216615200042725
1789454212771970600,9.690970458984374,1.2091363668441772,0.08012839406728745,1.0756187438964844
1789454212781910500,9.70091064453125,1.2192782163619995,0.0901903435587883,1.0708026885986328
1789454212791850500,9.7108505859375,1.232080340385437,0.03618809953331947,0.9093019962310791
1789454212801790500,9.72079052734375,1.1873807907104492,0.16384539008140564,0.8044688105583191
1789454212811731500,9.7307314453125,1.1535093784332275,0.2815224826335907,0.7422354817390442
1789454212821671400,9.74067138671875,1.1368589401245117,0.20475953817367554,0.5864104628562927
1789454212831611400,9.750611328125,1.0863497257232666,0.22385919094085693,0.4934576451778412
1789454212841551600,9.760551513671874,1.0254008769989014,0.25595828890800476,0.5491283535957336
1789454212851491300,9.7704912109375,0.9590365290641785,0.23441463708877563,0.5777645111083984
1789454212861432600,9.7804326171875,0.8333086967468262,0.33276861906051636,0.6544550657272339
1789454212871372500,9.79037255859375,0.7851709723472595,0.19283044338226318,0.682757556438446
1789454212881312500,9.8003125,0.8456165194511414,-0.10351654142141342,0.6522156000137329
1789454212891252500,9.81025244140625,0.9340126514434814,-0.18798960745334625,0.695090651512146
1789454212901192400,9.8201923828125,0.9602075219154358,-0.26770707964897156,0.7576855421066284
1789454212911133400,9.830133544921875,0.9697586894035339,-0.273612380027771,0.7539491653442383
1789454212921073400,9.840073486328125,0.9560474157333374,-0.3046925365924835,0.7097033858299255
1789454212931013600,9.850013671875,0.9408165216445923,-0.28578755259513855,0.7081425189971924
1789454212940953600,9.85995361328125,0.8549559116363525,-0.161237895488739,0.7681549787521362
1789454212950893300,9.869893310546875,0.8085359930992126,-0.19248422980308533,0.7411971688270569
1789454212960834600,9.87983447265625,0.8450875878334045,-0.348261296749115,0.5679110884666443
1789454212970774500,9.8897744140625,0.8831340670585632,-0.19706593453884125,0.5351515412330627
1789454212980714500,9.899714599609375,0.8942644596099854,0.0456114262342453,0.6465705037117004
1789454212990654500,9.909654541015625,0.9110375642776489,-0.075314462184906,0.6474413275718689
1789454213000594700,9.9195947265625,0.9291446805000305,-0.1948419213294983,0.5745836496353149
1789454213010535400,9.929535400390625,0.8728965520858765,0.012430837377905846,0.603645384311676
1789454213020475600,9.9394755859375,0.7697123885154724,0.25335636734962463,0.7239875197410583
1789454213030415600,9.94941552734375,0.654148280620575,0.05931844934821129,0.7390679717063904
1789454213040355300,9.959355224609375,0.5922138094902039,-0.27689871191978455,0.6598476767539978
1789454213050295600,9.969295654296875,0.5914113521575928,-0.30510610342025757,0.6588340997695923
1789454213060236500,9.979236572265625,0.5945048928260803,-0.10553281754255295,0.7368495464324951
1789454213070176500,9.989176513671875,0.6328775882720947,-0.05366802215576172,0.7740669250488281
1789454213080116500,9.999116455078125,0.6676925420761108,-0.1456349641084671,0.6946565508842468
1789454213090056400,10.009056396484375,0.6078774333000183,-0.3278084993362427,0.6166133880615234
1789454213099996700,10.01899658203125,0.5101956129074097,-0.3518400490283966,0.5697758793830872
1789454213109937400,10.0289375,0.4070708155632019,-0.108059361577034,0.5947869420051575
1789454213119877600,10.038877685546876,0.37431421875953674,-0.07492031157016754,0.60619056224823
1789454213129817600,10.048817626953126,0.3840171694755554,-0.1565493941307068,0.528627336025238
1789454213139757300,10.05875732421875,0.4381650984287262,-0.12244468927383423,0.39635372161865234
1789454213149697500,10.068697509765625,0.46841302514076233,-0.17218321561813354,0.30807074904441833
1789454213159638500,10.078638427734376,0.4433404207229614,-0.0629320964217186,0.23319970071315765
1789454213169578500,10.08857861328125,0.3680536448955536,0.0007281082216650248,0.15310965478420258
1789454213179518500,10.0985185546875,0.24174284934997559,-0.027787689119577408,0.08545231819152832
1789454213189458700,10.108458740234376,0.09818968176841736,0.033782199025154114,-0.0018375811632722616
1789454213199398400,10.1183984375,-0.014628477394580841,0.11029348522424698,-0.027393007650971413
1789454213209339600,10.128339599609374,-0.14735296368598938,0.05034333094954491,-0.027850540354847908
1789454213219279600,10.138279541015624,-0.2990484833717346,0.06221304088830948,-0.00812051072716713
1789454213229219300,10.14821923828125,-0.3961348235607147,-0.030896397307515144,-0.013715812005102634
1789454213239159600,10.15815966796875,-0.4586546719074249,-0.11756578087806702,-0.0860198363661766
1789454213249099500,10.168099609375,-0.5502426624298096,-0.3167044520378113,-0.17110542953014374
1789454213259040500,10.17804052734375,-0.6012022495269775,-0.3204222321510315,-0.2177501618862152
1789454213268980500,10.18798046875,-0.6068963408470154,-0.2961738705635071,-0.24865561723709106
1789454213278920400,10.19792041015625,-0.6046640872955322,-0.38612425327301025,-0.29959604144096375
1789454213288860700,10.207860595703124,-0.6293004155158997,-0.3908713459968567,-0.3646022081375122
1789454213298800400,10.21780029296875,-0.6405096650123596,-0.30645713210105896,-0.5005214214324951
1789454213308741600,10.22774169921875,-0.6671053171157837,-0.14844007790088654,-0.6550132632255554
1789454213318681600,10.237681640625,-0.6902069449424744,-0.054242201149463654,-0.7598863840103149
1789454213328621600,10.24762158203125,-0.7562258839607239,-0.010609234683215618,-0.7931780219078064
1789454213338561500,10.2575615234375,-0.8566504716873169,0.05535087361931801,-0.7745090126991272
1789454213348501500,10.26750146484375,-0.9730293154716492,0.16652639210224152,-0.7438973188400269
1789454213358442500,10.2774423828125,-1.006812334060669,0.19400356709957123,-0.6733488440513611
1789454213368382500,10.287382568359375,-1.0226231813430786,0.1447633057832718,-0.6055980324745178
1789454213378322700,10.29732275390625,-1.005678653717041,0.1057027280330658,-0.549176812171936
1789454213388262400,10.307262451171875,-0.9642840027809143,0.02105095610022545,-0.47176647186279297
1789454213398202400,10.317202392578125,-0.9794901609420776,0.09420772641897202,-0.36892929673194885
1789454213408143600,10.3271435546875,-0.9372372031211853,0.10965751856565475,-0.221613347530365
1789454213418083300,10.337083251953125,-0.8321006894111633,-0.013921407982707024,-0.07005258649587631
1789454213428023600,10.3470234375,-0.7517781257629395,-0.0926084965467453,0.047928377985954285
1789454213437963500,10.356963623046875,-0.6255049109458923,-0.13491255044937134,0.08914532512426376
1789454213447903500,10.366903564453125,-0.5216317772865295,-0.2469104528427124,0.07500287145376205
1789454213457844500,10.376844482421875,-0.4526628255844116,-0.256730854511261,0.020363062620162964
1789454213467784400,10.386784423828125,-0.36522752046585083,-0.2330702692270279,-0.08296812325716019
1789454213477724700,10.396724609375,-0.2929341495037079,-0.25391003489494324,-0.22200430929660797
1789454213487664400,10.406664306640625,-0.241544708609581,-0.24305365979671478,-0.349860280752182
1789454213497604600,10.4166044921875,-0.23797954618930817,-0.276608943939209,-0.4296472370624542
1789454213507545300,10.42654541015625,-0.3400720953941345,-0.34069472551345825,-0.4174683392047882
1789454213517485600,10.436485595703125,-0.4287441670894623,-0.3406555950641632,-0.351730078458786
1789454213527425500,10.446425537109375,-0.511214017868042,-0.31665492057800293,-0.31149211525917053
1789454213537365500,10.456365478515625,-0.5810977220535278,-0.1708977073431015,-0.3766639232635498
1789454213547305500,10.466305419921875,-0.5276076197624207,0.03614814952015877,-0.5036945939064026
1789454213557246500,10.47624658203125,-0.40744102001190186,-0.012692359276115894,-0.6490229964256287
1789454213567186700,10.486186767578126,-0.33143118023872375,-0.104940265417099,-0.7834580540657043
1789454213577126400,10.49612646484375,-0.24715812504291534,-0.15798111259937286,-0.8550664782524109
1789454213587066400,10.50606640625,-0.22512739896774292,-0.2531372010707855,-0.8742342591285706
1789454213597006600,10.516006591796875,-0.2793019413948059,-0.44012412428855896,-0.8947877883911133
1789454213606947300,10.525947265625,-0.3175406754016876,-0.592054009437561,-0.9364257454872131
1789454213616887600,10.535887451171876,-0.28642937541007996,-0.5738750100135803,-0.9468832015991211
1789454213626827500,10.54582763671875,-0.25197312235832214,-0.4077549874782562,-0.8941091895103455
1789454213636767700,10.555767822265626,-0.29581594467163086,-0.3254247009754181,-0.8380086421966553
1789454213646707200,10.565707275390626,-0.3280141055583954,-0.2925695478916168,-0.7522916197776794
1789454213656648400,10.5756484375,-0.330509752035141,-0.2663709819316864,-0.5946282148361206
1789454213666588400,10.58558837890625,-0.29513442516326904,-0.25359925627708435,-0.4482076168060303
1789454213676528000,10.595528076171876,-0.3311057686805725,-0.2881566882133484,-0.4000296890735626
1789454213686468400,10.60546826171875,-0.40450140833854675,-0.34161460399627686,-0.41276493668556213
1789454213696408300,10.615408203125,-0.4126006066799164,-0.39674443006515503,-0.4384295344352722
1789454213706349300,10.625349365234374,-0.44335079193115234,-0.49370959401130676,-0.4800020158290863
1789454213716289300,10.635289306640624,-0.5002122521400452,-0.5201531648635864,-0.5114797949790955
1789454213726229200,10.645229248046874,-0.5287679433822632,-0.5377321839332581,-0.532806396484375
1789454213736169200,10.655169189453124,-0.6055517196655273,-0.5084357857704163,-0.5296883583068848
1789454213746109200,10.665109130859374,-0.6394729018211365,-0.4714444875717163,-0.4724152088165283
1789454213756050400,10.675050537109374,-0.6637353897094727,-0.5083873271942139,-0.44747257232666016
1789454213765990100,10.684990234375,-0.6512134671211243,-0.37821468710899353,-0.3964155316352844
1789454213775930400,10.694930419921874,-0.5232893228530884,-0.4299716055393219,-0.4007636606693268
1789454213785870300,10.704870361328124,-0.5034783482551575,-0.5718472599983215,-0.4551403522491455
1789454213795810300,10.714810302734374,-0.5764273405075073,-0.660205602645874,-0.497507244348526
1789454213805751300,10.724751220703125,-0.6635947823524475,-0.7165714502334595,-0.5196573138237
1789454213815691300,10.734691162109375,-0.8323653936386108,-0.5773626565933228,-0.4463724195957184
1789454213825631500,10.744631591796875,-0.8409391641616821,-0.4758291244506836,-0.361368864774704
1789454213835571200,10.7545712890625,-0.8533130288124084,-0.6083884835243225,-0.40239885449409485
1789454213845511200,10.76451123046875,-0.8765794634819031,-0.7422767877578735,-0.41015130281448364
1789454213855451400,10.774451416015625,-0.8473499417304993,-0.9040054678916931,-0.5382818579673767
1789454213865392000,10.78439208984375,-0.7645807862281799,-1.0298409461975098,-0.46281638741493225
1789454213875332400,10.794332275390625,-0.7034902572631836,-1.0969732999801636,-0.43022939562797546
1789454213885272300,10.804272216796875,-0.6392196416854858,-1.1042799949645996,-0.4977613091468811
1789454213895212300,10.81421240234375,-0.582423210144043,-1.0963746309280396,-0.5890025496482849
1789454213905152300,10.82415234375,-0.5727900266647339,-1.0295506715774536,-0.6379101872444153
1789454213915093500,10.834093505859375,-0.5514695644378662,-0.7915489673614502,-0.650120198726654
1789454213925033200,10.844033203125,-0.45171764492988586,-0.689050555229187,-0.6875687837600708
1789454213934973200,10.85397314453125,-0.39122769236564636,-0.605278730392456,-0.7475176453590393
1789454213944913400,10.863913330078125,-0.3898063600063324,-0.3771936297416687,-0.7493208646774292
1789454213954853400,10.873853271484375,-0.39011847972869873,-0.27019739151000977,-0.7132089138031006
1789454213964794400,10.88379443359375,-0.4210369884967804,-0.20479096472263336,-0.6547051072120667
1789454213974734300,10.893734375,-0.3946639597415924,-0.11167167127132416,-0.6308783292770386
1789454213984674300,10.90367431640625,-0.3259783685207367,0.017719075083732605,-0.7181203365325928
1789454213994614300,10.9136142578125,-0.20675930380821228,0.0834919661283493,-0.8679758310317993
1789454214004554200,10.92355419921875,-0.10679168999195099,0.0945986732840538,-0.9871571063995361
1789454214014495500,10.93349560546875,-0.03738785162568092,-0.08773624151945114,-1.0712554454803467
1789454214024435200,10.943435302734375,-0.07908736169338226,-0.25841984152793884,-1.1043702363967896
1789454214034375200,10.953375244140625,-0.14093181490898132,-0.2711838185787201,-1.089176893234253
1789454214044315400,10.9633154296875,-0.1663743257522583,-0.25847843289375305,-1.0712437629699707
1789454214054255400,10.97325537109375,-0.215877965092659,-0.22332389652729034,-1.0448400974273682
1789454214064196400,10.9831962890625,-0.17766959965229034,-0.06397738307714462,-1.048807978630066
1789454214074136300,10.99313623046875,-0.1293574571609497,-0.06921635568141937,-1.05560302734375
1789454214084076300,11.003076171875,-0.1511024385690689,-0.036911413073539734,-1.0608856678009033
1789454214094016300,11.013016357421876,-0.17721766233444214,0.061656441539525986,-1.0764049291610718
1789454214103956200,11.022956298828126,-0.17759156227111816,0.25378406047821045,-1.081669807434082
1789454214113897200,11.032897216796876,-0.1218755692243576,0.40464335680007935,-1.1165680885314941
1789454214123837200,11.042837158203126,-0.06323036551475525,0.6331201791763306,-1.1896321773529053
1789454214133777400,11.05277734375,-0.016393620520830154,0.8503710031509399,-1.175305962562561
1789454214143717400,11.06271728515625,-0.003822967642918229,0.9789830446243286,-1.0145565271377563
1789454214153657000,11.072656982421876,0.01865544356405735,1.0006358623504639,-0.8442484140396118
1789454214163598300,11.082598388671874,0.03760170191526413,0.9377980828285217,-0.7012428045272827
1789454214173538300,11.092538330078124,0.013190902769565582,0.8978213667869568,-0.5947334170341492
1789454214183478300,11.102478271484374,-0.08798285573720932,0.9100782871246338,-0.4421595633029938
1789454214193418200,11.112418212890624,-0.13941994309425354,0.7025522589683533,-0.3174818158149719
1789454214203358500,11.1223583984375,-0.20429880917072296,0.37800508737564087,-0.2888230085372925
1789454214213298400,11.13229833984375,-0.33619850873947144,0.4284869134426117,-0.2288195937871933
1789454214223239400,11.142239501953124,-0.3355034291744232,0.3189082145690918,-0.14102183282375336
1789454214233179400,11.152179443359374,-0.35455435514450073,0.1711650937795639,-0.07234503328800201
1789454214243119400,11.162119384765624,-0.39423730969429016,0.18161027133464813,-0.0175773948431015
1789454214253059300,11.172059326171874,-0.3478940427303314,0.18456585705280304,0.041238781064748764
1789454214263000300,11.182000244140625,-0.3330080509185791,0.21386754512786865,0.10266885161399841
1789454214272940300,11.191940185546875,-0.26435789465904236,0.355351984500885,0.17317605018615723
1789454214282880300,11.20188037109375,-0.20757316052913666,0.29339221119880676,0.24679939448833466
1789454214292820200,11.2118203125,-0.26157835125923157,0.35847213864326477,0.3588865101337433
1789454214302760400,11.221760498046875,-0.2716538906097412,0.33776021003723145,0.46123871207237244
1789454214312700200,11.2317001953125,-0.27026477456092834,0.46631816029548645,0.5702860951423645
1789454214322641400,11.241641357421875,-0.21869772672653198,0.6221812963485718,0.6634376049041748
1789454214332581400,11.251581298828125,-0.10805509984493256,0.5913578271865845,0.7002129554748535
1789454214342521000,11.26152099609375,-0.08214414119720459,0.6276125311851501,0.7926613688468933
1789454214352461300,11.27146142578125,-0.05368639901280403,0.6378611922264099,0.8136633634567261
1789454214362401300,11.2814013671875,0.08834584057331085,0.600655734539032,0.7714072465896606
1789454214372342300,11.29134228515625,0.14460697770118713,0.6934887170791626,0.8374344706535339
1789454214382282200,11.3012822265625,0.18425026535987854,0.7234327793121338,0.8453128933906555
1789454214392222500,11.311222412109375,0.3146649897098541,0.686203122138977,0.7624534368515015
1789454214402162400,11.321162353515625,0.4236122667789459,0.7090232372283936,0.781170129776001
1789454214412102100,11.33110205078125,0.4605785310268402,0.6189503073692322,0.8476194739341736
1789454214422043400,11.34104345703125,0.39339736104011536,0.5207699537277222,0.94563227891922
1789454214431983400,11.3509833984375,0.2891212999820709,0.36730238795280457,0.9718695282936096
1789454214441923300,11.36092333984375,0.28608155250549316,0.1987762153148651,0.9900810122489929
1789454214451863300,11.37086328125,0.3279685378074646,0.08424670249223709,1.0143413543701172
1789454214461803300,11.38080322265625,0.3196198046207428,0.06724348664283752,1.0820761919021606
1789454214471744300,11.390744140625,0.3424433767795563,0.10782952606678009,1.2069858312606812
1789454214481684200,11.400684326171875,0.4300632178783417,0.16565634310245514,1.2693347930908203
1789454214491624400,11.41062451171875,0.5020135641098022,0.14953862130641937,1.323177456855774
1789454214501564200,11.420564208984375,0.5865702629089355,0.17185191810131073,1.3453797101974487
1789454214511504400,11.43050439453125,0.6445233225822449,0.20730525255203247,1.3519155979156494
1789454214521444400,11.4404443359375,0.6422308683395386,0.20814228057861328,1.404390811920166
1789454214531385300,11.45038525390625,0.6327484250068665,0.14540912210941315,1.3807209730148315
1789454214541325300,11.4603251953125,0.6696364283561707,0.08973041921854019,1.3215640783309937
1789454214551265300,11.470265380859376,0.686501145362854,0.15491901338100433,1.3105628490447998
1789454214561205500,11.48020556640625,0.7608603239059448,0.2946145832538605,1.2820912599563599
1789454214571145200,11.490145263671875,0.8638015985488892,0.3432987630367279,1.2407188415527344
1789454214581086500,11.50008642578125,0.9416612386703491,0.3472178876399994,1.2410197257995605
1789454214591026400,11.5100263671875,1.003687858581543,0.26419517397880554,1.1782573461532593
1789454214600966100,11.519966064453126,1.0948468446731567,0.1746051013469696,1.1083801984786987
1789454214610906400,11.52990625,1.1267240047454834,0.18873663246631622,1.1568257808685303
1789454214620846300,11.539846435546876,1.1303187608718872,0.19653649628162384,1.255645513534546
1789454214630787300,11.549787353515624,1.1434847116470337,0.05770723894238472,1.276828646659851
1789454214640727300,11.559727294921874,1.1837815046310425,-0.09923098236322403,1.2732874155044556
1789454214650667500,11.56966748046875,1.2329682111740112,-0.17709675431251526,1.2932225465774536
1789454214660607200,11.579607177734376,1.2795895338058472,-0.10858533531427383,1.306963562965393
1789454214670547500,11.58954736328125,1.3326010704040527,-0.03825870528817177,1.2870512008666992
1789454214680488400,11.599488525390624,1.3837089538574219,-0.09603971242904663,1.1223005056381226
1789454214690428400,11.609428466796874,1.3602992296218872,-0.13145042955875397,0.8709703087806702
1789454214700368400,11.619368408203124,1.2694289684295654,0.13541455566883087,0.7185655832290649
1789454214710308400,11.629308349609374,1.2386785745620728,0.20586873590946198,0.5018332600593567
1789454214720248600,11.63924853515625,1.340592384338379,0.040659014135599136,0.2775975167751312
1789454214730189300,11.649189208984374,1.3157416582107544,0.26243215799331665,0.18697787821292877
1789454214740129500,11.659129638671875,1.2005729675292969,0.4462672173976898,0.14551591873168945
1789454214750069500,11.669069580078125,1.126530408859253,0.1631377935409546,0.15410088002681732
1789454214760009200,11.67900927734375,1.0465346574783325,-0.12771694362163544,0.23629029095172882
1789454214769949400,11.688949462890625,0.8728480935096741,0.030006367713212967,0.5007752180099487
1789454214779889400,11.698889404296875,0.6849408149719238,0.08232709765434265,0.7135226130485535
1789454214789830400,11.708830322265625,0.5710235238075256,0.023997744545340538,0.8030932545661926
1789454214799770400,11.718770263671875,0.5136342644691467,-0.08923320472240448,0.8458330035209656
1789454214809710600,11.728710693359375,0.5225465297698975,-0.18062037229537964,0.9530015587806702
1789454214819650300,11.738650390625,0.5886118412017822,-0.17147694528102875,1.082046627998352
1789454214829590300,11.74859033203125,0.6547903418540955,-0.18217885494232178,1.1346977949142456
1789454214839531500,11.758531494140625,0.7617626190185547,-0.31439468264579773,1.0800340175628662
1789454214849471200,11.76847119140625,0.8343608975410461,-0.3467329144477844,0.9514414668083191
1789454214859411500,11.778411376953125,0.791931688785553,-0.15148593485355377,0.865983784198761
1789454214869351400,11.788351318359375,0.7037096619606018,-0.050273023545742035,0.7746435403823853
1789454214879291400,11.79829150390625,0.7070764303207397,-0.042510174214839935,0.6501319408416748
1789454214889232400,11.808232421875,0.6679791212081909,0.08838845044374466,0.5946721434593201
1789454214899172400,11.81817236328125,0.5721521973609924,0.30714794993400574,0.6210736632347107
1789454214909112600,11.828112548828125,0.5508604645729065,0.478305846452713,0.5636902451515198
1789454214919052300,11.83805224609375,0.57157963514328,0.466417521238327,0.4062343239784241
1789454214928992300,11.8479921875,0.536841869354248,0.3313606083393097,0.29463455080986023
1789454214938932500,11.857932373046875,0.4307015836238861,0.2955078184604645,0.2569814622402191
1789454214948873200,11.867873291015625,0.330434113740921,0.35724493861198425,0.2342119663953781
1789454214958813400,11.8778134765625,0.34553050994873047,0.3429746627807617,0.19458679854869843
1789454214968753400,11.88775341796875,0.3283099830150604,0.3346424400806427,0.11537612974643707
1789454214978693400,11.897693359375,0.24002164602279663,0.3054957389831543,0.04741625115275383
1789454214988633300,11.90763330078125,0.13675811886787415,0.24640072882175446,-0.0011462245602160692
1789454214998574600,11.91757470703125,-0.025112543255090714,0.12708763778209686,-0.04451367259025574
1789454215008514300,11.927514404296875,-0.15878884494304657,0.17005908489227295,-0.075565867125988
1789454215018454300,11.937454345703125,-0.2138153463602066,0.126307874917984,-0.09358401596546173
1789454215028394500,11.94739453125,-0.28528445959091187,-0.007655256427824497,-0.14227165281772614
1789454215038334500,11.95733447265625,-0.3608255684375763,0.01034478284418583,-0.22447118163108826
1789454215048275500,11.967275390625,-0.4071331322193146,-0.016760338097810745,-0.33093878626823425
1789454215058215400,11.97721533203125,-0.46786201000213623,-0.013972541317343712,-0.4217384457588196
1789454215068155400,11.9871552734375,-0.4921734631061554,0.05746941640973091,-0.47667786478996277
1789454215078095400,11.997095458984376,-0.5412454009056091,0.14119014143943787,-0.5447165966033936
1789454215088035300,12.007035400390626,-0.5590798258781433,0.2577196955680847,-0.6464290618896484
1789454215097975600,12.0169755859375,-0.5602965950965881,0.3260188400745392,-0.7421436309814453
1789454215107916300,12.026916259765626,-0.5957232713699341,0.33735567331314087,-0.8276550769805908
1789454215117856500,12.0368564453125,-0.6601970791816711,0.3680419325828552,-0.8996911644935608
1789454215127796500,12.04679638671875,-0.7242088317871094,0.28545916080474854,-0.9215269684791565
1789454215137736400,12.056736328125,-0.8268910050392151,0.25373613834381104,-0.8899514675140381
1789454215147676400,12.066676513671876,-0.9362044334411621,0.34949809312820435,-0.7918339371681213
1789454215157617400,12.076617431640624,-0.9678475856781006,0.40112799406051636,-0.6817681789398193
1789454215167557400,12.086557373046874,-0.981420636177063,0.39016562700271606,-0.5790196657180786
1789454215177497300,12.096497314453124,-0.9730919003486633,0.4239203929901123,-0.5314108729362488
1789454215187437300,12.106437255859374,-0.864551842212677,0.5146209597587585,-0.5158609747886658
1789454215197377500,12.11637744140625,-0.7308129668235779,0.3892287015914917,-0.5304366946220398
1789454215207318300,12.126318359375,-0.6934967041015625,0.3527679145336151,-0.542668879032135
1789454215217258500,12.136258544921875,-0.6252260804176331,0.42998385429382324,-0.5533795952796936
1789454215227198500,12.146198486328124,-0.5051279067993164,0.2939954102039337,-0.5663086771965027
1789454215237138200,12.15613818359375,-0.4398719072341919,-0.030362965539097786,-0.6042611002922058
1789454215247078400,12.166078369140624,-0.4243755042552948,-0.1217125877737999,-0.6203349232673645
1789454215257018400,12.176018310546874,-0.33587732911109924,-0.07945407927036285,-0.6413546800613403
1789454215266959400,12.18595947265625,-0.23238450288772583,-0.21131570637226105,-0.7287442088127136
1789454215276899300,12.1958994140625,-0.1693139225244522,-0.20764321088790894,-0.7909455299377441
1789454215286839600,12.205839599609375,-0.0273826215416193,-0.03230573982000351,-0.7415992617607117
1789454215296779500,12.215779541015625,0.12000443786382675,-0.0009779128013178706,-0.6884612441062927
1789454215306719200,12.22571923828125,0.1605212390422821,-0.043602339923381805,-0.617977499961853
1789454215316660500,12.235660400390625,0.15840402245521545,-0.04958007112145424,-0.5641096830368042
1789454215326600200,12.24560009765625,0.12955692410469055,-0.0795009508728981,-0.5841153860092163
1789454215336540400,12.25554052734375,0.07133756577968597,-0.1350715309381485,-0.654451310634613
1789454215346480400,12.26548046875,-0.010578075423836708,-0.14331108331680298,-0.753157913684845
1789454215356420400,12.27542041015625,-0.059353869408369064,-0.23384764790534973,-0.8326128125190735
1789454215366360300,12.2853603515625,-0.135461688041687,-0.4001157283782959,-0.8940598964691162
1789454215376301300,12.29530126953125,-0.1839570552110672,-0.49869874119758606,-0.8928329944610596
1789454215386241500,12.305241455078125,-0.22893571853637695,-0.6094852089881897,-0.8449544310569763
1789454215396181200,12.31518115234375,-0.29316049814224243,-0.7403321266174316,-0.7821632027626038
1789454215406121500,12.32512158203125,-0.31862112879753113,-0.665287435054779,-0.7055619359016418
1789454215416061400,12.3350615234375,-0.3006834089756012,-0.508305549621582,-0.6655337810516357
1789454215426002400,12.34500244140625,-0.318820059299469,-0.40574005246162415,-0.6742343306541443
1789454215435942400,12.3549423828125,-0.34263113141059875,-0.36430391669273376,-0.711830198764801
1789454215445882400,12.36488232421875,-0.3443235456943512,-0.40089496970176697,-0.7648899555206299
1789454215455822600,12.374822509765625,-0.35382357239723206,-0.4317793548107147,-0.8118222951889038
1789454215465762300,12.38476220703125,-0.39726588129997253,-0.35849663615226746,-0.8016858100891113
1789454215475703600,12.39470361328125,-0.4611106216907501,-0.16953949630260468,-0.7324406504631042
1789454215485643300,12.404643310546875,-0.5268483757972717,0.01865624263882637,-0.6517983078956604
