time,seconds_elapsed,z,y,x
1789402384575764700,0.0717646484375,0,0,0
1789402384585691000,0.08169091796875,-0.24128150939941406,0.021782875061035156,0.0917205810546875
1789402384595617300,0.0916171875,-0.617889404296875,0.1304692029953003,0.1665990948677063
1789402384605543700,0.101543701171875,-0.9234523773193359,0.16242074966430664,0.26133090257644653
1789402384615469800,0.1114697265625,-1.0257749557495117,0.22562408447265625,0.4015437364578247
1789402384625396200,0.121396240234375,-0.9210605621337891,0.23993253707885742,0.5163891315460205
1789402384635322600,0.131322509765625,-0.6280841827392578,0.11745238304138184,0.42261022329330444
1789402384645249000,0.1412490234375,-0.37494373321533203,-0.06173086166381836,0.3203046917915344
1789402384655175400,0.151175537109375,-0.3747730255126953,-0.28638672828674316,0.34125953912734985
1789402384665101800,0.161101806640625,-0.5034456253051758,-0.4593484401702881,0.289490669965744
1789402384675028000,0.171028076171875,-0.664668083190918,-0.5231916904449463,0.20432385802268982
1789402384684954400,0.180954345703125,-0.848790168762207,-0.5822553634643555,0.09213113784790039
1789402384694880800,0.190880859375,-0.9231204986572266,-0.6644691228866577,0.002955496311187744
1789402384704807000,0.200806884765625,-0.8330259323120117,-0.7053711414337158,-0.11095035076141357
1789402384714733300,0.2107333984375,-0.5560302734375,-0.7363057136535645,-0.26993870735168457
1789402384724659700,0.22065966796875,-0.25516605377197266,-0.828932523727417,-0.3343023955821991
1789402384734585900,0.2305859375,0.08936119079589844,-0.9322012662887573,-0.39619752764701843
1789402384744512300,0.24051220703125,0.3854103088378906,-0.9935092926025391,-0.44257426261901855
1789402384754438700,0.250438720703125,0.7647151947021484,-0.9855343103408813,-0.5720923542976379
1789402384764365000,0.260364990234375,1.0322751998901367,-0.9178544282913208,-0.6847682595252991
1789402384774291500,0.27029150390625,1.201803207397461,-0.8768236637115479,-0.7643458247184753
1789402384784217900,0.2802177734375,1.2145681381225586,-0.8484725952148438,-0.791170597076416
1789402384794144000,0.29014404296875,0.9625368118286133,-0.7720628976821899,-0.7688779830932617
1789402384804070400,0.3000703125,0.55828857421875,-0.6779121160507202,-0.6848128437995911
1789402384813996800,0.309996826171875,0.2265949249267578,-0.6095280647277832,-0.6335263848304749
1789402384823923000,0.3199228515625,-0.09919071197509766,-0.4851057529449463,-0.5452163815498352
1789402384833849300,0.329849365234375,-0.11406230926513672,-0.41433441638946533,-0.5109619498252869
1789402384843775700,0.339775634765625,0.2102813720703125,-0.3939124345779419,-0.4633726477622986
1789402384853702100,0.3497021484375,0.6208782196044922,-0.37389230728149414,-0.4060528874397278
1789402384863628300,0.359628173828125,0.8480358123779297,-0.36023759841918945,-0.30423951148986816
1789402384873554700,0.3695546875,0.9635562896728516,-0.31550610065460205,-0.2665975093841553
1789402384883481000,0.379481201171875,0.8718252182006836,-0.3424280881881714,-0.2863460183143616
1789402384893407500,0.389407470703125,0.4233713150024414,-0.2520899772644043,-0.2924548387527466
1789402384903334000,0.399333984375,-0.13547325134277344,-0.036647796630859375,-0.3235766291618347
1789402384913260000,0.409260009765625,-0.7613077163696289,0.15611755847930908,-0.3616634011268616
1789402384923186400,0.4191865234375,-1.2888822555541992,0.3345947265625,-0.43717437982559204
1789402384933112800,0.42911279296875,-1.6174888610839844,0.47229743003845215,-0.4872615337371826
1789402384943039200,0.439039306640625,-1.7908554077148438,0.5441453456878662,-0.5053712129592896
1789402384952965400,0.44896533203125,-1.7928500175476074,0.4806244373321533,-0.4283757209777832
1789402384962891800,0.458891845703125,-1.5952119827270508,0.363372802734375,-0.4001588225364685
1789402384972818200,0.468818115234375,-1.1460208892822266,0.2483370304107666,-0.31245461106300354
1789402384982744300,0.478744384765625,-0.6136407852172852,0.10065817832946777,-0.1778637170791626
1789402384992670700,0.488670654296875,-0.024580955505371094,0.019697189331054688,0.03829139471054077
1789402385002597000,0.49859716796875,0.4897184371948242,-0.04582858085632324,0.26339009404182434
1789402385012523500,0.5085234375,0.8030223846435547,-0.10474705696105957,0.41688230633735657
1789402385022450000,0.518449951171875,1.1995105743408203,-0.1097569465637207,0.4342373013496399
1789402385032376000,0.5283759765625,1.3812379837036133,-0.14551925659179688,0.45157063007354736
1789402385042302500,0.538302490234375,1.369964599609375,-0.2428596019744873,0.42691242694854736
1789402385052228900,0.548228759765625,0.9846363067626953,-0.3058199882507324,0.3563438653945923
1789402385062155300,0.5581552734375,0.33066749572753906,-0.3063528537750244,0.21848469972610474
1789402385072081400,0.568081298828125,-0.3484477996826172,-0.26924681663513184,0.051028840243816376
1789402385082007800,0.5780078125,-0.8937520980834961,-0.17606139183044434,-0.121040478348732
1789402385091934200,0.587934326171875,-1.125380516052246,-0.1409742832183838,-0.2686117887496948
1789402385101860400,0.5978603515625,-1.1458368301391602,-0.15684151649475098,-0.29990801215171814
1789402385111786800,0.607786865234375,-1.041234016418457,-0.1848311424255371,-0.21273589134216309
1789402385121713200,0.617713134765625,-0.9336519241333008,-0.21510934829711914,-0.00887104868888855
1789402385131639600,0.6276396484375,-0.9690933227539062,-0.1292273998260498,0.24330300092697144
1789402385141566000,0.63756591796875,-1.1952972412109375,-0.04163193702697754,0.4537081718444824
1789402385151492400,0.647492431640625,-1.3512420654296875,-0.01315450668334961,0.5965822339057922
1789402385161418500,0.65741845703125,-1.502638816833496,-0.03271007537841797,0.6080272197723389
1789402385171345000,0.667344970703125,-1.5376691818237305,0.011952638626098633,0.612074077129364
1789402385181271300,0.677271240234375,-1.263570785522461,-0.01923060417175293,0.5578347444534302
1789402385191197400,0.687197509765625,-0.6640453338623047,-0.22632050514221191,0.3909952938556671
1789402385201123800,0.697123779296875,0.20521163940429688,-0.5182597637176514,0.21685931086540222
1789402385211050200,0.70705029296875,1.0713605880737305,-0.7139315605163574,0.11018821597099304
1789402385220976400,0.716976318359375,1.7108211517333984,-0.8411734104156494,0.020517796277999878
1789402385230902800,0.72690283203125,2.0630340576171875,-0.9450547695159912,0.009002834558486938
1789402385240829200,0.7368291015625,2.0059614181518555,-0.8688995838165283,0.06156185269355774
1789402385250755600,0.746755615234375,1.569005012512207,-0.7278802394866943,0.09054917097091675
1789402385260682000,0.756681884765625,0.938262939453125,-0.5127229690551758,0.045076772570610046
1789402385270608400,0.7666083984375,0.2471017837524414,-0.292741060256958,-0.05008809268474579
1789402385280534500,0.776534423828125,-0.30248165130615234,-0.11189889907836914,-0.07782286405563354
1789402385290461000,0.7864609375,-0.4754304885864258,-0.09555530548095703,-0.13440561294555664
1789402385300387300,0.79638720703125,-0.3058319091796875,-0.13115501403808594,-0.14768362045288086
1789402385310313500,0.8063134765625,0.06970691680908203,-0.16197705268859863,-0.08287328481674194
1789402385320239900,0.816239990234375,0.651667594909668,-0.17658448219299316,-0.025361567735671997
1789402385330166300,0.826166259765625,1.3301982879638672,-0.2554171085357666,0.08910772204399109
1789402385340092700,0.8360927734375,1.8812904357910156,-0.39118218421936035,0.20961520075798035
1789402385350018800,0.846018798828125,2.1044130325317383,-0.4941892623901367,0.38715121150016785
1789402385359945200,0.8559453125,1.8478527069091797,-0.44899773597717285,0.5590528845787048
1789402385369871600,0.86587158203125,1.3838062286376953,-0.36321020126342773,0.6859754323959351
1789402385379798000,0.875798095703125,0.8148193359375,-0.17277121543884277,0.8106274604797363
1789402385389724400,0.885724365234375,0.33669567108154297,-0.048521995544433594,0.8406550884246826
1789402385399650600,0.895650634765625,0.13605594635009766,0.007676601409912109,0.7516303062438965
1789402385409577000,0.905576904296875,0.39130687713623047,-0.08761072158813477,0.5587977170944214
1789402385419503400,0.91550341796875,0.910466194152832,-0.32413148880004883,0.2901800274848938
1789402385429429500,0.925429443359375,1.4120006561279297,-0.5318493843078613,0.06043297052383423
1789402385439356000,0.93535595703125,1.7602176666259766,-0.6770036220550537,-0.07866150885820389
1789402385449282300,0.9452822265625,1.7426748275756836,-0.7159106731414795,-0.28348690271377563
1789402385459208700,0.955208740234375,1.1289749145507812,-0.8473163843154907,-0.3024771213531494
1789402385469135000,0.965135009765625,0.39586925506591797,-0.8623430728912354,-0.3492007851600647
1789402385479061500,0.9750615234375,-0.06953239440917969,-0.5547270774841309,-0.5678977966308594
1789402385488987600,0.984987548828125,-0.6537494659423828,-0.3629496097564697,-0.5182436108589172
1789402385498914000,0.9949140625,-0.8796205520629883,-0.13424253463745117,-0.3279595673084259
1789402385508840400,1.00484033203125,-0.5678253173828125,0.037053823471069336,-0.2812208831310272
1789402385518766600,1.0147666015625,0.1332559585571289,-0.06402397155761719,-0.26582610607147217
1789402385528693000,1.02469287109375,1.0265703201293945,-0.25019240379333496,0.05270940065383911
1789402385538619400,1.034619384765625,1.5867128372192383,-0.39025235176086426,0.6350133419036865
1789402385548545800,1.0445458984375,2.018315315246582,-0.43955206871032715,1.3576507568359375
1789402385558472000,1.054471923828125,2.397676467895508,0.030081748962402344,1.7725768089294434
1789402385568398300,1.0643984375,1.9178543090820312,0.02176046371459961,1.2223587036132812
1789402385578324700,1.07432470703125,1.4861059188842773,-1.2278704643249512,0.6865867376327515
1789402385588251100,1.084251220703125,1.9016304016113281,-2.1436948776245117,0.042137712240219116
1789402385598177500,1.094177490234375,1.1452722549438477,-1.343188762664795,0.23827674984931946
1789402385608103700,1.104103759765625,-0.44077205657958984,-0.946959376335144,0.39227333664894104
1789402385618030000,1.114030029296875,-1.6219711303710938,0.30157971382141113,0.21275857090950012
1789402385627956500,1.12395654296875,-2.3824462890625,0.5597009658813477,-0.3147684633731842
1789402385637882600,1.133882568359375,-2.5759410858154297,-0.18547749519348145,-0.7474879026412964
1789402385647809000,1.14380908203125,-2.2146520614624023,-0.7960243225097656,-0.8293057084083557
1789402385657735400,1.1537353515625,-1.8210973739624023,-1.0492444038391113,-0.6093710660934448
1789402385667661800,1.163661865234375,-1.7710609436035156,-0.9415631294250488,-0.33440038561820984
1789402385677588200,1.173588134765625,-1.952474594116211,-0.6874902248382568,-0.10369245707988739
1789402385687514600,1.1835146484375,-2.213864326477051,-0.5071523189544678,-0.03532537817955017
1789402385697440800,1.193440673828125,-2.2913808822631836,-0.4854469299316406,-0.040950365364551544
1789402385707367200,1.2033671875,-2.16310977935791,-0.5613281726837158,-0.13640433549880981
1789402385717293600,1.21329345703125,-1.7622013092041016,-0.664625883102417,-0.205760657787323
1789402385727219700,1.2232197265625,-1.237649917602539,-0.7081549167633057,-0.23004919290542603
1789402385737146000,1.23314599609375,-0.5649709701538086,-0.7799093723297119,-0.30556023120880127
1789402385747072500,1.243072509765625,0.22169971466064453,-0.8865830898284912,-0.372800350189209
1789402385756999000,1.2529990234375,1.02191162109375,-1.0986566543579102,-0.36338844895362854
1789402385766925300,1.26292529296875,1.6613245010375977,-1.2910878658294678,-0.3162068724632263
1789402385776851500,1.2728515625,1.8587121963500977,-1.328728199005127,-0.20179051160812378
1789402385786777900,1.28277783203125,1.3821773529052734,-1.2137293815612793,-0.03431019186973572
1789402385796704300,1.292704345703125,0.5450010299682617,-0.9735913276672363,0.12677182257175446
1789402385806630700,1.302630615234375,-0.561100959777832,-0.7521889209747314,0.14277908205986023
1789402385816557000,1.31255712890625,-1.6129446029663086,-0.5726563930511475,0.033996596932411194
1789402385826483200,1.322483154296875,-2.185018539428711,-0.5260705947875977,-0.013969749212265015
1789402385836409600,1.33240966796875,-2.1721506118774414,-0.4353981018066406,-0.030703842639923096
1789402385846336000,1.3423359375,-1.6480541229248047,-0.24476861953735352,0.08096972107887268
1789402385856262400,1.352262451171875,-0.6617326736450195,-0.1618058681488037,0.32720398902893066
1789402385866188800,1.362188720703125,-1.1779255867004395,0.000240325927734375,0.3728066384792328
1789402385876115000,1.372114990234375,-0.7700519561767578,0.0545196533203125,-0.034835875034332275
1789402385886041300,1.382041259765625,-1.0266942977905273,0.002628326416015625,-0.28512316942214966
1789402385895967700,1.3919677734375,-1.1690607070922852,-0.05376386642456055,-0.5245151519775391
1789402385905894100,1.40189404296875,-1.1921310424804688,-0.16846776008605957,-0.859563410282135
1789402385915820500,1.411820556640625,-1.1672191619873047,-0.24228596687316895,-1.0929516553878784
1789402385925746700,1.42174658203125,-0.9247274398803711,-0.07825851440429688,-1.1404204368591309
1789402385935673000,1.431673095703125,-0.5947837829589844,0.14000558853149414,-1.022326946258545
1789402385945599500,1.441599609375,-0.2319622039794922,0.29741525650024414,-1.0015480518341064
1789402385955526000,1.45152587890625,0.2406787872314453,0.35026097297668457,-1.1425873041152954
1789402385965452000,1.4614521484375,0.8763370513916016,0.19626379013061523,-1.4314069747924805
1789402385975378400,1.47137841796875,1.8711881637573242,-0.12459468841552734,-1.7815592288970947
1789402385985304800,1.481304931640625,3.056039810180664,-0.29456162452697754,-1.6523468494415283
1789402385995231200,1.491231201171875,3.716266632080078,-0.3986334800720215,-1.38154935836792
1789402386005157600,1.50115771484375,4.107064247131348,-0.33220958709716797,-1.0925297737121582
1789402386015083800,1.511083740234375,4.245396614074707,-0.2599163055419922,-0.8533080816268921
1789402386025010200,1.52101025390625,3.807323455810547,-0.29645395278930664,-0.7492972612380981
1789402386034936600,1.5309365234375,3.0739850997924805,-0.2823035717010498,-0.6683622002601624
1789402386044863000,1.540863037109375,2.093203544616699,-0.15226364135742188,-0.6440269947052002
1789402386054789400,1.550789306640625,0.9333133697509766,-0.06818842887878418,-0.7281607389450073
1789402386064715800,1.5607158203125,0.025194168090820312,0.029724597930908203,-0.8156422972679138
1789402386074642000,1.570641845703125,-0.4910125732421875,0.15570545196533203,-0.8337873220443726
1789402386084568300,1.580568359375,-0.7387142181396484,0.19141149520874023,-0.9939264059066772
1789402386094494700,1.59049462890625,-0.7916040420532227,0.20882558822631836,-1.317337989807129
1789402386104421000,1.600421142578125,-0.4037017822265625,0.11239290237426758,-1.5607620477676392
1789402386114347500,1.610347412109375,0.18242263793945312,-0.06864237785339355,-1.5291533470153809
1789402386124273700,1.620273681640625,0.4501943588256836,-0.09463286399841309,-1.2361655235290527
1789402386134200000,1.630199951171875,0.683711051940918,0.05563688278198242,-0.8913347721099854
1789402386144126500,1.64012646484375,1.1324424743652344,0.1820688247680664,-0.5622409582138062
1789402386154052900,1.650052978515625,1.3144245147705078,0.08480000495910645,-0.27447938919067383
1789402386163979300,1.659979248046875,1.1120080947875977,-0.005688667297363281,-0.15706110000610352
1789402386173905700,1.66990576171875,0.8613805770874023,-0.06785368919372559,-0.1616809368133545
1789402386183831800,1.679831787109375,0.5321512222290039,-0.1899733543395996,-0.15297681093215942
1789402386193758200,1.68975830078125,0.27199554443359375,-0.2404625415802002,-0.15053296089172363
1789402386203684600,1.6996845703125,0.06853485107421875,-0.22865605354309082,-0.14506655931472778
1789402386213611000,1.709611083984375,0.0026645660400390625,-0.041464805603027344,-0.061200737953186035
1789402386223537400,1.719537353515625,0.31739330291748047,-0.003436565399169922,-0.045768141746520996
1789402386233463800,1.7294638671875,0.6716127395629883,-0.14514541625976562,0.013888418674468994
1789402386243390000,1.739389892578125,0.7775354385375977,-0.3981451988220215,0.14909803867340088
1789402386253316400,1.74931640625,0.5715837478637695,-0.5833268165588379,0.15979892015457153
1789402386263242800,1.75924267578125,-0.06490230560302734,-0.694981575012207,0.023538708686828613
1789402386273169200,1.769169189453125,-0.8910799026489258,-0.818331241607666,-0.17868852615356445
1789402386283095600,1.779095458984375,-1.6132831573486328,-0.8968443870544434,-0.4187890887260437
1789402386293021700,1.789021728515625,-2.1387691497802734,-0.9271559715270996,-0.43597716093063354
1789402386302948000,1.798947998046875,-2.198333740234375,-0.888042688369751,-0.25822341442108154
1789402386312874500,1.80887451171875,-1.5712318420410156,-0.9282481670379639,-0.09274286031723022
1789402386322801000,1.81880078125,-0.45323944091796875,-1.037416696548462,0.034440696239471436
1789402386332727300,1.828727294921875,0.9260520935058594,-1.143552541732788,0.20500874519348145
1789402386342653700,1.83865380859375,2.0718202590942383,-1.3220045566558838,0.2907348871231079
1789402386352579800,1.848579833984375,2.7534732818603516,-1.386601448059082,0.37014663219451904
1789402386362506200,1.85850634765625,2.890439987182617,-1.4052462577819824,0.4629427194595337
1789402386372432600,1.8684326171875,2.3972082138061523,-1.4018142223358154,0.5491530895233154
1789402386382359000,1.878359130859375,1.6338119506835938,-1.2974637746810913,0.6119388341903687
1789402386392285400,1.888285400390625,1.0111894607543945,-1.1652302742004395,0.579500675201416
1789402386402211600,1.898211669921875,0.7434215545654297,-0.9754500389099121,0.6783104538917542
1789402386412138000,1.908137939453125,0.8217401504516602,-0.7546145915985107,0.9323911666870117
1789402386422064400,1.918064453125,0.7560234069824219,-0.6530160903930664,1.1559300422668457
1789402386431990800,1.92799072265625,0.18955326080322266,-0.7037715911865234,1.215038537979126
1789402386441917200,1.937917236328125,-0.6999292373657227,-0.7094535827636719,1.3126764297485352
1789402386451843600,1.947843505859375,-1.8541030883789062,-0.8022286891937256,1.2193998098373413
1789402386461769700,1.957769775390625,-3.1896886825561523,-0.9989843368530273,0.9409403204917908
1789402386471696100,1.967696044921875,-3.991589069366455,-1.0826177597045898,0.5609220266342163
1789402386481622500,1.97762255859375,-3.648859977722168,-0.8570516109466553,0.42193055152893066
1789402386491549000,1.987548828125,-2.2719240188598633,-0.4911315441131592,0.6280762553215027
1789402386501475300,1.997475341796875,-0.40017223358154297,-0.1693875789642334,0.8743930459022522
1789402386511401700,2.007401611328125,2.387308120727539,-0.06118655204772949,1.1358721256256104
1789402386521328000,2.017328125,6.008628845214844,-0.5370655059814453,1.1401093006134033
1789402386531254500,2.027254638671875,8.695322036743164,-1.2405619621276855,1.1980323791503906
1789402386541180700,2.0371806640625,9.092490196228027,-1.5548007488250732,1.1912732124328613
1789402386551107000,2.047107177734375,7.397612571716309,-1.414229393005371,0.9996182322502136
1789402386561033500,2.057033447265625,4.931926727294922,-1.2239553928375244,0.842664897441864
1789402386570960000,2.0669599609375,2.6716785430908203,-1.1214497089385986,0.7012802362442017
1789402386580886300,2.07688623046875,1.0791387557983398,-1.105107307434082,0.5000945329666138
1789402386590812400,2.0868125,0.13379478454589844,-1.1726658344268799,0.39047104120254517
1789402386600738800,2.09673876953125,-0.23348617553710938,-1.042306900024414,0.5104895234107971
1789402386610665200,2.106665283203125,-0.5248680114746094,-0.6989171504974365,0.9366862773895264
1789402386620591600,2.116591552734375,-0.8204708099365234,-0.4727468490600586,1.4369714260101318
1789402386630518000,2.12651806640625,-0.910649299621582,-0.3863201141357422,1.980785846710205
1789402386640444400,2.1364443359375,-1.1897010803222656,-0.3234856128692627,2.5418167114257812
1789402386650370800,2.146370849609375,-1.42388916015625,-0.10328078269958496,2.96543550491333
1789402386660297200,2.156297119140625,-1.9213266372680664,-0.24949860572814941,3.0070717334747314
1789402386670223400,2.166223388671875,-3.2208786010742188,-0.7527050971984863,2.651711940765381
1789402386680149800,2.176149658203125,-4.722965240478516,-1.4601407051086426,2.20028018951416
1789402386690076200,2.186076171875,-5.818729877471924,-1.833106517791748,1.6341749429702759
1789402386700002600,2.19600244140625,-5.741462230682373,-1.7787809371948242,1.4522509574890137
1789402386709929000,2.205928955078125,-4.255163192749023,-1.4994893074035645,1.064188003540039
1789402386719855400,2.21585546875,-1.4656639099121094,-1.4267752170562744,0.7824368476867676
1789402386729781800,2.22578173828125,1.971013069152832,-1.6498074531555176,0.3719508647918701
1789402386739708200,2.235708251953125,4.5507659912109375,-1.9152917861938477,-0.06241309642791748
1789402386749634300,2.24563427734375,5.593314170837402,-1.82267427444458,-0.20789390802383423
1789402386759560700,2.255560791015625,5.595433235168457,-1.5878472328186035,0.20914101600646973
1789402386769487000,2.265487060546875,4.67131233215332,-1.1050119400024414,0.482463002204895
1789402386779413500,2.27541357421875,3.0814647674560547,-0.8587687015533447,0.7990869283676147
1789402386789340000,2.28533984375,1.7748947143554688,-0.7719526290893555,1.1252270936965942
1789402386799266300,2.295266357421875,1.0617408752441406,-0.6738414764404297,1.343047022819519
1789402386809192400,2.3051923828125,0.4625215530395508,-1.1439390182495117,1.149445652961731
1789402386819119000,2.315119140625,-0.12642765045166016,-1.5801737308502197,1.131730079650879
1789402386829045200,2.325045166015625,-0.6878385543823242,-1.8241653442382812,1.1417115926742554
1789402386838971600,2.3349716796875,-1.103968620300293,-1.9645485877990723,1.332750916481018
1789402386848898000,2.34489794921875,-1.8044648170471191,-2.319930076599121,1.3085570335388184
1789402386858824400,2.354824462890625,-2.9434938430786133,-2.908616065979004,1.0017273426055908
1789402386868750800,2.364750732421875,-4.301647186279297,-3.4560656547546387,0.3159809112548828
1789402386878677200,2.37467724609375,-5.560128688812256,-4.492337703704834,-0.07022953033447266
1789402386888603400,2.384603271484375,-5.851910591125488,-5.569018363952637,-1.7507672309875488
1789402386898529800,2.39452978515625,-5.066397666931152,-6.435804843902588,-1.5874673128128052
1789402386908456200,2.404456298828125,-4.895297050476074,-6.616530895233154,-0.6591532230377197
1789402386918382600,2.414382568359375,-6.5090012550354,-8.589726448059082,-5.480008125305176
1789402386928309000,2.42430908203125,-7.568860054016113,-9.462331771850586,-5.636531352996826
1789402386938235400,2.4342353515625,-8.155904769897461,-10.1082763671875,-5.332788467407227
1789402386948161800,2.444161865234375,-8.406685829162598,-9.488325119018555,-4.2328290939331055
1789402386958088000,2.454087890625,-10.581966400146484,-9.524084091186523,-3.2514963150024414
1789402386968014300,2.464014404296875,-5.507120609283447,-7.3579630851745605,-1.7247653007507324
1789402386977941000,2.47394091796875,-1.8416023254394531,-6.7057204246521,0.2072596549987793
1789402386987867100,2.4838671875,-0.2798609733581543,-7.932183742523193,-0.5889816284179688
1789402386997793500,2.49379345703125,2.245041847229004,-8.498133659362793,-1.5859365463256836
1789402387007720000,2.503719970703125,4.4006500244140625,-9.416130065917969,-2.5235915184020996
1789402387017646300,2.513646240234375,4.2279815673828125,-9.61972427368164,-3.0438475608825684
1789402387027572700,2.52357275390625,3.539905548095703,-8.458130836486816,-2.435849189758301
1789402387037499000,2.533498779296875,2.731494903564453,-7.114606857299805,-1.3846397399902344
1789402387047425500,2.543425537109375,1.5762481689453125,-6.683015823364258,-0.13222122192382812
1789402387057352000,2.55335205078125,1.8092889785766602,-6.143336296081543,1.025303840637207
1789402387067278000,2.563278076171875,2.910740375518799,-5.356463432312012,2.387984275817871
1789402387077204500,2.57320458984375,3.830636739730835,-4.08251953125,4.680529594421387
1789402387087131000,2.583130859375,4.3030571937561035,-2.6330714225769043,6.301638603210449
1789402387097057300,2.593057373046875,4.812434673309326,-2.346674919128418,6.6623735427856445
1789402387106983700,2.602983642578125,4.816094875335693,-1.9619200229644775,6.523617744445801
1789402387116910000,2.61291015625,4.19095516204834,-1.2812626361846924,6.73775577545166
1789402387126836500,2.62283642578125,3.52558970451355,-1.1895982027053833,6.555875778198242
1789402387136762600,2.6327626953125,2.7282981872558594,-0.7736336588859558,6.504009246826172
1789402387146689000,2.64268896484375,2.200272560119629,0.6052340269088745,8.04697322845459
1789402387156615400,2.652615478515625,2.096358299255371,2.0688090324401855,10.074994087219238
1789402387166541800,2.662541748046875,2.54018497467041,2.2563858032226562,10.652167320251465
1789402387176468200,2.67246826171875,1.3934051990509033,2.560929298400879,9.912581443786621
1789402387186394600,2.68239453125,0.5008752942085266,3.0695111751556396,8.628296852111816
1789402387196321000,2.692321044921875,0.015035808086395264,3.0433506965637207,7.848459243774414
1789402387206247400,2.702247314453125,0.2661409378051758,3.1898751258850098,8.011872291564941
1789402387216173600,2.712173583984375,0.07169473171234131,3.9237751960754395,8.245012283325195
1789402387226100000,2.722099853515625,-0.07570970058441162,5.795981407165527,9.121136665344238
1789402387236026400,2.7320263671875,-0.937064528465271,8.668853759765625,10.53438949584961
1789402387245952800,2.741952880859375,-1.9355669021606445,7.646044731140137,9.839974403381348
1789402387255879200,2.751879150390625,-3.8971502780914307,8.51755142211914,8.625858306884766
1789402387265805600,2.7618056640625,-5.898251056671143,8.135478973388672,7.876382827758789
1789402387275732000,2.77173193359375,-6.952780723571777,7.4113359451293945,6.8671722412109375
1789402387285658400,2.781658447265625,-7.106871604919434,7.435230255126953,5.83652400970459
1789402387295584500,2.79158447265625,-7.186263084411621,6.305665969848633,4.447603225708008
1789402387305511000,2.801510986328125,-6.1442718505859375,5.987883567810059,3.2274160385131836
1789402387315437300,2.811437255859375,-4.3379998207092285,4.816972732543945,1.5955381393432617
1789402387325363700,2.82136376953125,-1.8190644979476929,4.005492210388184,0.8910894393920898
1789402387335290000,2.8312900390625,-0.007264196872711182,3.1938576698303223,0.7473230361938477
1789402387345216500,2.841216552734375,0.9997475743293762,2.443392038345337,0.4245414733886719
1789402387355143000,2.851142822265625,1.5831698179244995,1.2481781244277954,-0.47492122650146484
1789402387365069300,2.8610693359375,1.551008701324463,0.38234877586364746,-1.2087364196777344
1789402387374995500,2.870995361328125,1.6291314363479614,-1.4653452634811401,-2.461848258972168
1789402387384921900,2.880921875,1.3443224430084229,-2.431185722351074,-3.908217430114746
1789402387394848300,2.89084814453125,2.5262255668640137,-3.6896681785583496,-4.12884521484375
1789402387404774700,2.900774658203125,3.6785881519317627,-4.18930721282959,-3.8944244384765625
1789402387414701000,2.910701171875,3.2516095638275146,-4.646399021148682,-3.1862449645996094
1789402387424627500,2.92062744140625,2.8175904750823975,-4.995743274688721,-2.478522300720215
1789402387434553900,2.930553955078125,2.3267111778259277,-5.034970283508301,-2.4007930755615234
1789402387444480300,2.940480224609375,1.4528440237045288,-5.11803674697876,-2.239645004272461
1789402387454406400,2.950406494140625,0.5091994404792786,-4.796382904052734,-1.808304786682129
1789402387464332000,2.96033203125,-0.6680976152420044,-4.218369007110596,-1.3100767135620117
1789402387511342600,3.007342529296875,-3.1232738494873047,-0.3660764694213867,3.7055845260620117
1789402387521269000,3.01726904296875,-3.9943878650665283,0.24920916557312012,4.510777473449707
1789402387531195400,3.0271953125,-4.5704145431518555,0.6712485551834106,4.8045654296875
1789402387541121800,3.037121826171875,-5.165164470672607,1.120015263557434,4.8486328125
1789402387551048000,3.0470478515625,-5.820444107055664,0.057971954345703125,4.015073776245117
1789402387560974300,3.056974365234375,-3.928687334060669,-0.20936059951782227,2.266486167907715
1789402387570900700,3.066900634765625,-2.9146604537963867,-0.4319746494293213,2.135110855102539
1789402387580827100,3.0768271484375,-2.118854284286499,-0.6526699066162109,1.310689926147461
1789402387590753500,3.08675341796875,-1.166802167892456,-0.7324879169464111,-0.050538063049316406
1789402387600680000,3.096679931640625,-0.1671002209186554,-1.1758854389190674,-0.8875179290771484
1789402387610606300,3.1066064453125,0.34850385785102844,-1.7575759887695312,-1.6359930038452148
1789402387620532700,3.11653271484375,0.5518007278442383,-2.1831676959991455,-2.4910778999328613
1789402387630459000,3.126458984375,0.6039454936981201,-2.565366506576538,-3.1369996070861816
1789402387640385300,3.13638525390625,0.7078204154968262,-2.874626874923706,-3.550234317779541
1789402387650311700,3.146311767578125,0.926311731338501,-3.007016658782959,-3.5696048736572266
1789402387660238000,3.156238037109375,1.050915241241455,-3.0839219093322754,-3.6025495529174805
1789402387670164500,3.16616455078125,1.0145595073699951,-3.2521369457244873,-3.8733372688293457
1789402387680091000,3.1760908203125,0.8318818807601929,-3.5513150691986084,-4.185126781463623
1789402387690017300,3.186017333984375,0.724334716796875,-3.621842384338379,-4.179693222045898
1789402387699943700,3.195943603515625,0.5110060572624207,-3.4372828006744385,-3.8869619369506836
1789402387709869800,3.205869873046875,0.13657015562057495,-3.190882444381714,-3.6229357719421387
1789402387719796200,3.215796142578125,-0.29600661993026733,-3.158111810684204,-3.406118869781494
1789402387729722600,3.22572265625,-0.9113948345184326,-3.1546833515167236,-2.911099433898926
1789402387739649000,3.23564892578125,-1.825355052947998,-2.9519054889678955,-2.6618056297302246
1789402387749575400,3.245575439453125,-1.9901187419891357,-2.5208497047424316,-1.8707246780395508
1789402387759501800,3.255501708984375,-1.590611457824707,-1.9895353317260742,-0.7754383087158203
1789402387769428200,3.26542822265625,-1.2329673767089844,-1.2289345264434814,0.10618019104003906
1789402387779354400,3.275354248046875,-1.1361536979675293,-0.775883674621582,0.8649263381958008
1789402387789280800,3.28528076171875,-1.29270601272583,-0.5330719947814941,1.3185062408447266
1789402387799207200,3.295207275390625,-0.8389249444007874,-0.7441830635070801,0.9518613815307617
1789402387809133600,3.305133544921875,-1.1770241260528564,-0.5244612693786621,0.5381460189819336
1789402387819060000,3.31506005859375,-1.0928751230239868,-0.7451813220977783,0.40673160552978516
1789402387828986400,3.324986328125,-0.8105665445327759,-0.7054178714752197,0.4145832061767578
1789402387838912800,3.334912841796875,-0.32463788986206055,-0.35329556465148926,0.5614871978759766
1789402387848839000,3.3448388671875,0.09140074253082275,-0.11215806007385254,0.7508096694946289
1789402387858765300,3.354765380859375,0.06848514080047607,0.13025450706481934,0.8913402557373047
1789402387868691700,3.364691650390625,0.013374805450439453,0.27596116065979004,0.8822546005249023
1789402387878618000,3.3746181640625,-0.054921507835388184,0.3801405429840088,0.7948179244995117
1789402387888544500,3.38454443359375,-0.030483603477478027,0.4047813415527344,0.7104396820068359
1789402387898471000,3.394470947265625,-0.08401548862457275,0.49242734909057617,0.7530403137207031
1789402387908397000,3.40439697265625,-0.25268006324768066,0.4520590305328369,0.5310869216918945
1789402387918323500,3.414323486328125,-0.5510767698287964,0.19120121002197266,-0.03505706787109375
1789402387928249900,3.424249755859375,-0.7506051063537598,-0.20519638061523438,-0.47591114044189453
1789402387938176300,3.43417626953125,-0.8842508792877197,-0.5967819690704346,-0.5049953460693359
1789402387948102700,3.4441025390625,-0.6285041570663452,-0.7214198112487793,-0.10457706451416016
1789402387958029000,3.454029052734375,-0.19152402877807617,-0.7208926677703857,0.37901782989501953
1789402387967955500,3.46395556640625,-0.09721386432647705,-0.8393166065216064,0.2764129638671875
1789402387977881900,3.4738818359375,-0.4582405090332031,-1.3205432891845703,-0.37189769744873047
1789402387987808000,3.48380810546875,-0.9723602533340454,-1.8823187351226807,-1.0524730682373047
1789402387997734400,3.493734375,-1.3525079488754272,-2.234734535217285,-1.735560417175293
1789402388007660800,3.503660888671875,-1.613150954246521,-2.455660343170166,-2.4050941467285156
1789402388017587200,3.513587158203125,-1.7898807525634766,-2.6068084239959717,-2.5541491508483887
1789402388027513600,3.523513671875,-1.7624725103378296,-2.9321272373199463,-2.427003860473633
1789402388037440000,3.53343994140625,-1.5422900915145874,-3.1828184127807617,-2.0001401901245117
1789402388047366100,3.5433662109375,-1.2002840042114258,-3.3885631561279297,-1.1885671615600586
1789402388057292500,3.55329248046875,-0.7969513535499573,-3.5784125328063965,-0.24652481079101562
1789402388067219000,3.563218994140625,-0.37802135944366455,-3.6617865562438965,0.8012790679931641
1789402388077145300,3.573145263671875,-0.28829312324523926,-3.4602906703948975,1.724447250366211
1789402388087071700,3.58307177734375,-0.5685936212539673,-3.167983293533325,2.9366140365600586
1789402388096998100,3.592998046875,-0.7727262377738953,-3.0545170307159424,3.704756736755371
1789402388106924500,3.602924560546875,-0.7221767902374268,-2.806356906890869,3.83834171295166
1789402388116851000,3.612850830078125,-1.7651536464691162,-1.9851293563842773,3.9197893142700195
1789402388126777000,3.622777099609375,-2.3685998916625977,-1.9249262809753418,3.5390138626098633
1789402388136703500,3.632703369140625,-3.074704885482788,-1.5636844635009766,2.903026580810547
1789402388146630000,3.6426298828125,-3.41377592086792,-1.6808233261108398,1.923299789428711
1789402388156556300,3.652556396484375,-3.6170766353607178,-1.8785321712493896,0.23610782623291016
1789402388166482700,3.662482666015625,-2.9679605960845947,-1.9347436428070068,0.7864408493041992
1789402388176408800,3.672408935546875,-2.8951821327209473,-1.0083584785461426,0.5945873260498047
1789402388186335200,3.682335205078125,-0.40887880325317383,-3.228581428527832,-0.2743568420410156
1789402388196261600,3.69226171875,-2.2295756340026855,-2.5780818462371826,-0.9318389892578125
1789402388206188000,3.70218798828125,3.914175271987915,-2.669358015060425,1.751774787902832
1789402388216114400,3.712114501953125,4.723147392272949,-3.184542179107666,0.8458089828491211
1789402388226040800,3.722040771484375,-3.6247878074645996,-2.771573305130005,0.12010002136230469
1789402388235967200,3.73196728515625,-6.332078456878662,-1.595963478088379,-0.7790250778198242
1789402388245893600,3.7418935546875,2.108250141143799,-1.283519983291626,1.638575553894043
1789402388255819800,3.75181982421875,0.9264464378356934,-1.416506052017212,0.10149097442626953
1789402388265746200,3.76174609375,2.9458882808685303,-1.1931045055389404,0.8377084732055664
1789402388275672600,3.771672607421875,0.9253183007240295,-1.062161922454834,-0.6714096069335938
1789402388285599000,3.781598876953125,-9.094478607177734,0.6104381084442139,-2.3425941467285156
1789402388295525400,3.791525390625,-11.745352745056152,3.257363796234131,-1.9767684936523438
1789402388305451800,3.80145166015625,-2.634186029434204,2.1506333351135254,0.22194576263427734
1789402388315378000,3.8113779296875,-2.7972493171691895,1.3158907890319824,-2.9666552543640137
1789402388325304300,3.82130419921875,-5.590734958648682,1.5538177490234375,-3.942049026489258
1789402388335230700,3.831230712890625,-4.764278888702393,2.2657570838928223,-4.073103904724121
1789402388345157000,3.8411572265625,1.569561243057251,1.6368894577026367,-3.074054718017578
1789402388355083500,3.85108349609375,8.571403503417969,2.315819025039673,-2.3099708557128906
1789402388365009700,3.861009765625,-5.112389087677002,3.976335048675537,-2.735032558441162
1789402388374936000,3.87093603515625,-2.669349431991577,4.324133396148682,-2.9231748580932617
1789402388384862500,3.880862548828125,7.315215110778809,4.73824405670166,1.1612157821655273
1789402388394788900,3.890788818359375,10.655755043029785,3.9076523780822754,-1.337986946105957
1789402388404715300,3.90071533203125,6.104880332946777,2.9751527309417725,-8.349492073059082
1789402388414641700,3.9106416015625,-14.305463790893555,3.7253708839416504,-15.12728500366211
1789402388424567800,3.92056787109375,-7.7568230628967285,7.26513147354126,-12.60043716430664
1789402388434494200,3.930494140625,-7.338344097137451,7.457099437713623,-7.394025802612305
1789402388444420600,3.940420654296875,-9.623443603515625,10.07332706451416,-2.489342212677002
1789402388454347000,3.950346923828125,-3.6140353679656982,9.642691612243652,-2.474781036376953
1789402388464273400,3.9602734375,-3.8748416900634766,6.224544525146484,-2.400541305541992
1789402388474199800,3.97019970703125,-4.5045342445373535,2.981858968734741,-3.2766776084899902
1789402388484126200,3.980126220703125,-5.508482456207275,0.3437488079071045,-3.8320865631103516
1789402388494052600,3.990052490234375,-4.920694351196289,-2.1317944526672363,0.99493408203125
1789402388503978800,3.999978759765625,-1.8724040985107422,0.49888157844543457,3.9436864852905273
1789402388513905200,4.0099052734375,0.789333164691925,-3.410632848739624,4.930940628051758
1789402388523831600,4.01983154296875,1.8204585313796997,-3.2087132930755615,5.957533836364746
1789402388533758000,4.029758056640625,-7.285168170928955,0.40581846237182617,0.791046142578125
1789402388543684400,4.039684326171875,-7.085503578186035,0.05743002891540527,0.3265981674194336
1789402388553610500,4.049610595703125,0.5219146609306335,-5.841843605041504,-3.0040717124938965
1789402388563537000,4.059536865234375,4.116445064544678,-5.434345245361328,-7.611104488372803
1789402388573463300,4.06946337890625,8.310800552368164,-10.42764663696289,-5.201481342315674
1789402388583389700,4.0793896484375,8.44067096710205,-8.501993179321289,-1.8517017364501953
1789402388593316000,4.089316162109375,1.4519667625427246,-9.01162338256836,1.0760622024536133
1789402388603242500,4.099242431640625,1.0174258947372437,-7.673735618591309,2.8274307250976562
1789402388613169000,4.1091689453125,-0.37651610374450684,-8.963828086853027,2.1368846893310547
1789402388623095300,4.11909521484375,-2.26176118850708,-9.006513595581055,1.0407772064208984
1789402388633021400,4.129021484375,-3.5338640213012695,-8.115269660949707,0.9340229034423828
1789402388642947800,4.13894775390625,-3.154298782348633,-7.236433982849121,1.0448932647705078
1789402388652874200,4.148874267578125,-2.143897294998169,-6.4143266677856445,0.7790842056274414
1789402388662800600,4.158800537109375,-1.3112730979919434,-6.94296407699585,-2.223996639251709
1789402388672727000,4.16872705078125,-1.482569932937622,-5.856741905212402,-1.0610527992248535
1789402388682653400,4.1786533203125,-1.2638314962387085,-5.229509353637695,-1.5380144119262695
1789402388692579600,4.18857958984375,-3.9762589931488037,-3.8328065872192383,0.20090770721435547
1789402388702506000,4.198506103515625,-2.6520469188690186,-1.7459144592285156,2.957577705383301
1789402388712432400,4.208432373046875,-1.5519044399261475,0.6310186386108398,6.509578704833984
1789402388722358800,4.21835888671875,-0.20599472522735596,3.375600576400757,9.386430740356445
1789402388732285200,4.22828515625,2.3192825317382812,3.528688669204712,8.275633811950684
1789402388742211300,4.23821142578125,5.741576194763184,2.9314022064208984,6.75300407409668
1789402388752137700,4.2481376953125,6.55655574798584,2.533081531524658,6.617216110229492
1789402388762064100,4.258064208984375,6.797568321228027,3.1664164066314697,5.421442985534668
1789402388771990500,4.267990478515625,6.131596565246582,2.8045434951782227,6.273848533630371
1789402388781917000,4.2779169921875,2.2701542377471924,2.346755266189575,8.031574249267578
1789402388791843300,4.28784326171875,-0.8091537952423096,0.00027871131896972656,5.417507171630859
1789402388801769500,4.29776953125,-1.754267930984497,-1.8894121646881104,1.956242561340332
1789402388811695900,4.30769580078125,-0.38965070247650146,-4.491574764251709,0.5347814559936523
1789402388821622300,4.317622314453125,1.262174129486084,-7.370697498321533,1.511549949645996
1789402388831548700,4.327548583984375,-1.6432934999465942,-8.088534355163574,-0.4355459213256836
1789402388841475000,4.33747509765625,-3.831787109375,-9.347643852233887,-2.2673001289367676
1789402388851401500,4.3474013671875,-4.816828727722168,-8.125250816345215,-1.8165950775146484
1789402388861328000,4.357327880859375,-5.0342607498168945,-5.70333194732666,-1.7326812744140625
1789402388871254300,4.367254150390625,-8.078682899475098,-4.146502494812012,-1.2054729461669922
1789402388881180400,4.377180419921875,-2.9010555744171143,-6.889649868011475,-1.5304412841796875
1789402388891106800,4.38710693359375,13.753401756286621,-14.421515464782715,14.7508544921875
1789402388901033200,4.397033203125,1.8305087089538574,5.383386611938477,9.273629188537598
1789402388910959600,4.406959716796875,-5.859615325927734,2.1016786098480225,3.817959785461426
1789402388920886000,4.416885986328125,-12.627204895019531,-3.27919864654541,-2.1632590293884277
1789402388930812200,4.426812255859375,-7.616786956787109,0.475858598947525,-6.898468017578125
1789402388940738600,4.436738525390625,0.1833893060684204,-0.8622817397117615,-8.615036010742188
1789402388950665000,4.4466650390625,7.903038024902344,-4.769695281982422,-8.139678001403809
1789402388960591400,4.45659130859375,10.530766487121582,-5.330779075622559,-6.160083770751953
1789402388970517800,4.466517822265625,9.877614974975586,-4.730160713195801,-2.3655781745910645
1789402388980444200,4.476444091796875,4.220976829528809,-2.9530608654022217,2.1619129180908203
1789402388990370300,4.486370361328125,-5.604865074157715,-1.65126371383667,4.104408264160156
1789402389000296700,4.496296630859375,-15.888851165771484,-3.8911890983581543,-0.7004203796386719
1789402389010223000,4.50622314453125,-18.575130462646484,-1.8260343074798584,-4.8273420333862305
1789402389020149500,4.5161494140625,-22.670780181884766,-0.26874348521232605,-5.4126739501953125
1789402389030076000,4.526075927734375,-24.202932357788086,-1.8758400678634644,-4.877159595489502
1789402389040002300,4.536002197265625,-19.990076065063477,-2.2526562213897705,-5.688810348510742
1789402389049928400,4.545928466796875,-17.60885238647461,-2.9763941764831543,-9.108843803405762
1789402389059854800,4.555854736328125,-19.16551971435547,-2.72918438911438,-12.360013961791992
1789402389069781200,4.56578125,-21.816722869873047,-1.8159215450286865,-15.758896827697754
1789402389079707600,4.575707763671875,-23.674827575683594,-0.08800646662712097,-18.222990036010742
1789402389089634000,4.585634033203125,-25.132240295410156,1.347217321395874,-18.76163101196289
1789402389099560200,4.595560302734375,-22.538610458374023,1.3812241554260254,-15.21727180480957
1789402389109486600,4.605486572265625,-17.935993194580078,0.4814566373825073,-9.238532066345215
1789402389119413000,4.6154130859375,-14.988288879394531,-0.019051313400268555,-1.8831849098205566
1789402389129339400,4.62533935546875,-12.628353118896484,-0.8354120254516602,5.911674499511719
1789402389139265800,4.635265869140625,-7.103830814361572,-3.411003589630127,12.228606224060059
1789402389149192200,4.645192138671875,4.088235855102539,-4.817138195037842,18.601436614990234
1789402389159118600,4.65511865234375,13.380815505981445,-5.862504482269287,19.202922821044922
1789402389169045000,4.665044921875,20.951698303222656,-4.838418006896973,17.25164794921875
1789402389178971100,4.67497119140625,26.560447692871094,-0.25926876068115234,15.757271766662598
1789402389188897500,4.6848974609375,30.756460189819336,1.2973411083221436,14.514206886291504
1789402389198824000,4.694823974609375,32.61984634399414,1.1323049068450928,14.28322982788086
1789402389208750300,4.704750244140625,33.500728607177734,-0.3872182369232178,14.697670936584473
1789402389218676700,4.7146767578125,28.863676071166992,-3.702136993408203,11.313300132751465
1789402389228603100,4.72460302734375,21.470518112182617,-8.02251148223877,6.336063385009766
1789402389238529300,4.734529296875,14.309528350830078,-12.343720436096191,1.3975238800048828
1789402389248455700,4.74445556640625,10.144108772277832,-15.67009162902832,-1.9607653617858887
1789402389258382000,4.754382080078125,5.248077392578125,-17.713031768798828,-4.684415340423584
1789402389268308500,4.76430859375,-0.7926456928253174,-17.71442985534668,-4.098794460296631
1789402389278235000,4.77423486328125,-5.287271976470947,-17.21787452697754,-0.7010526657104492
1789402389288161000,4.7841611328125,-22.1629638671875,-15.288467407226562,-0.05453681945800781
1789402389298087400,4.79408740234375,-78.73983001708984,-11.117093086242676,-5.866286277770996
1789402389308013800,4.804013916015625,-32.13970184326172,-8.81377124786377,-0.32527923583984375
1789402389317940200,4.813940185546875,-3.729213237762451,-11.680380821228027,2.463613510131836
1789402389327866600,4.82386669921875,11.00887393951416,-10.208251953125,1.4291105270385742
1789402389337793000,4.83379296875,2.856640338897705,-10.325298309326172,4.460076332092285
1789402389347719200,4.84371923828125,-6.0068159103393555,-9.276933670043945,3.1723546981811523
1789402389357645600,4.8536455078125,-4.524115085601807,-7.299925804138184,2.246091842651367
1789402389367572000,4.863572021484375,-2.422168731689453,-5.128876686096191,1.2265253067016602
1789402389377498400,4.873498291015625,-0.9018714427947998,-3.939802646636963,1.0237770080566406
1789402389387424800,4.8834248046875,-0.7289540767669678,-2.4087579250335693,2.1242904663085938
1789402389397351000,4.893350830078125,-1.889115333557129,-3.88919734954834,5.601491928100586
1789402389407277300,4.90327734375,-5.129638671875,3.4301538467407227,0.9974489212036133
1789402389417204000,4.913203857421875,-4.979985237121582,0.22632241249084473,-7.695831775665283
1789402389427130000,4.923130126953125,8.63632583618164,-0.26191139221191406,-1.0950136184692383
1789402389437056500,4.933056396484375,-7.4673380851745605,6.892932891845703,-5.887548446655273
1789402389446983000,4.94298291015625,3.8476004600524902,2.4861197471618652,-0.9828500747680664
1789402389456909300,4.952909423828125,2.6987743377685547,3.3298964500427246,2.38124942779541
1789402389466835700,4.962835693359375,0.22436368465423584,6.327228546142578,-8.237640380859375
1789402389476761900,4.972761962890625,-5.223247528076172,4.079864025115967,-11.107585906982422
1789402389486688300,4.982688232421875,-3.301903486251831,6.598515510559082,-4.23298978805542
1789402389496614700,4.99261474609375,-2.246227741241455,6.64882755279541,-4.654683589935303
1789402389506541000,5.002541015625,-2.9269182682037354,6.600658416748047,-7.542308807373047
1789402389516467500,5.012467529296875,-2.7774672508239746,6.2860517501831055,-6.572289943695068
1789402389526393900,5.022393798828125,-2.3693935871124268,7.490809440612793,-4.33506965637207
1789402389536320000,5.032320068359375,-2.859426498413086,8.37966537475586,-4.296564102172852
1789402389546246400,5.042246337890625,-4.011696815490723,10.000569343566895,-5.346975803375244
1789402389556172800,5.0521728515625,-1.4677289724349976,8.405963897705078,-2.9204306602478027
1789402389566099200,5.06209912109375,-0.038008928298950195,8.217755317687988,-4.449137210845947
1789402389576025600,5.072025634765625,-0.2432175874710083,8.071762084960938,-0.615814208984375
1789402389585951700,5.08195166015625,2.1885814666748047,7.10445499420166,1.1315717697143555
1789402389595878100,5.091878173828125,4.43528413772583,7.777926445007324,1.6550121307373047
1789402389605804500,5.101804443359375,0.28834861516952515,2.3872768878936768,0.5280666351318359
1789402389615731000,5.11173095703125,-9.499161720275879,1.9756224155426025,1.9437475204467773
1789402389625657300,5.1216572265625,-6.190197944641113,-0.08867096900939941,-3.0384159088134766
1789402389635583700,5.131583740234375,-7.203219890594482,-6.27797794342041,-1.328378677368164
1789402389645510000,5.141510009765625,-5.541783332824707,-9.044150352478027,-5.625633239746094
1789402389655436300,5.151436279296875,0.26170969009399414,-12.033141136169434,-3.742830753326416
1789402389665362700,5.16136279296875,10.45324993133545,-16.38046646118164,0.4119720458984375
1789402389675289000,5.1712890625,15.379071235656738,-17.97254180908203,11.998638153076172
1789402389685215500,5.181215576171875,-1.2450342178344727,-14.735350608825684,7.447751998901367
1789402389695142000,5.191141845703125,-3.489062786102295,-15.023021697998047,1.1932563781738281
1789402389705068000,5.201068115234375,-1.4743571281433105,-12.824350357055664,1.354252815246582
1789402389714994400,5.210994384765625,-1.7767233848571777,-11.806275367736816,-1.0599913597106934
1789402389724920800,5.2209208984375,-2.108427047729492,-11.178356170654297,-3.9718151092529297
1789402389734847200,5.23084716796875,-0.6248683929443359,-11.207695007324219,-5.713639259338379
1789402389744773600,5.240773681640625,0.5822160243988037,-12.54035472869873,-9.276069641113281
1789402389754699800,5.25069970703125,1.2417967319488525,-13.423654556274414,-11.03797721862793
1789402389764626200,5.260626220703125,2.9707579612731934,-12.362466812133789,-11.68248462677002
1789402389774552600,5.270552490234375,6.649898529052734,-12.92464828491211,-15.092412948608398
1789402389784479000,5.28047900390625,6.161508083343506,-9.480119705200195,-5.940810203552246
1789402389794405400,5.2904052734375,7.9396281242370605,-4.707016468048096,-0.7078843116760254
1789402389804331800,5.300331787109375,1.9865565299987793,-2.5282559394836426,10.360634803771973
1789402389814258000,5.3102578125,-0.4394867420196533,7.454673767089844,22.527429580688477
1789402389824184300,5.320184326171875,-10.986079216003418,11.108697891235352,21.489482879638672
1789402389834110700,5.33011083984375,-8.028411865234375,9.199481964111328,11.713266372680664
1789402389844037000,5.340037109375,-5.470240592956543,10.853246688842773,10.103132247924805
1789402389853963500,5.349963623046875,-3.9929893016815186,11.382646560668945,8.168737411499023
1789402389863889700,5.3598896484375,-4.9429731369018555,13.989988327026367,5.947695732116699
1789402389873816000,5.369816162109375,-5.058106422424316,14.668550491333008,3.2192931175231934
1789402389883742500,5.379742431640625,-4.296938419342041,14.18848705291748,2.8103294372558594
1789402389893668900,5.3896689453125,-2.2608165740966797,13.665399551391602,3.1739234924316406
1789402389903595300,5.39959521484375,-1.3640596866607666,13.36672592163086,2.599135398864746
1789402389913521700,5.409521728515625,-4.044138431549072,11.925992965698242,3.231435775756836
1789402389923447800,5.41944775390625,-1.7846009731292725,10.948347091674805,4.3384881019592285
1789402389933374200,5.429374267578125,-5.207620620727539,11.741846084594727,6.360870361328125
1789402389943300600,5.439300537109375,-8.71139144897461,5.065814971923828,4.5063090324401855
1789402389953227000,5.44922705078125,1.0694561004638672,-2.8463644981384277,-1.5558104515075684
1789402389963153400,5.4591533203125,3.5141749382019043,-1.8377161026000977,-2.121593952178955
1789402389973079600,5.46907958984375,1.9922122955322266,3.6540584564208984,4.893807411193848
1789402389983006000,5.479005859375,-14.237093925476074,-11.009040832519531,-2.1368465423583984
1789402389992932400,5.488932373046875,11.795537948608398,-24.699840545654297,-14.127931594848633
1789402390002858800,5.498858642578125,9.10045051574707,-25.877456665039062,-13.937374114990234
1789402390012785200,5.50878515625,2.700899362564087,-15.228699684143066,-4.914279937744141
1789402390022711600,5.518711669921875,1.6027724742889404,-12.24465274810791,-0.8105306625366211
1789402390032637700,5.5286376953125,1.7286245822906494,-13.302423477172852,-0.43874120712280273
1789402390042564000,5.538564208984375,0.1832263469696045,-11.675873756408691,-1.1785612106323242
1789402390052490500,5.548490478515625,-0.7538323402404785,-11.667574882507324,-2.193787097930908
1789402390062417000,5.5584169921875,-1.9135890007019043,-8.00136947631836,-1.0575804710388184
1789402390072343300,5.56834326171875,-2.8954358100891113,-6.661508560180664,0.13039350509643555
1789402390082269700,5.578269775390625,-2.962285041809082,1.949385643005371,-10.254681587219238
1789402390092195800,5.58819580078125,0.52309250831604,0.7012143135070801,-2.793234348297119
1789402390102122200,5.598122314453125,0.0484926700592041,0.675631046295166,-0.49604225158691406
1789402390112048600,5.608048583984375,-0.26928281784057617,-1.0613150596618652,1.3039402961730957
1789402390121975000,5.61797509765625,1.054839849472046,-4.359833717346191,2.102609634399414
1789402390131901200,5.627901123046875,-2.9056315422058105,-2.7323050498962402,-0.21820735931396484
1789402390141827600,5.63782763671875,-3.4584689140319824,-4.497735977172852,-3.1150083541870117
1789402390151754000,5.64775390625,-2.8723435401916504,-7.0364813804626465,-4.485629558563232
1789402390161680400,5.657680419921875,-0.8885455131530762,-5.56121301651001,-3.031101703643799
1789402390171606800,5.667606689453125,3.7179293632507324,3.8403100967407227,0.1686234474182129
1789402390181533000,5.677532958984375,0.930396556854248,8.080439567565918,0.4266204833984375
1789402390191459300,5.687459228515625,-2.3085403442382812,10.946174621582031,0.4201807975769043
1789402390201385700,5.6973857421875,-1.594466209411621,17.468982696533203,-2.2580037117004395
1789402390211312000,5.70731201171875,3.3284382820129395,19.542142868041992,-3.5707173347473145
1789402390221238500,5.717238525390625,-8.118429183959961,18.993080139160156,-1.0123567581176758
1789402390231164700,5.72716455078125,-9.667957305908203,12.765369415283203,1.350517749786377
1789402390241091000,5.737091064453125,-3.459251642227173,26.22634506225586,-3.8349571228027344
1789402390251017500,5.747017578125,-8.85851764678955,25.4515438079834,-2.3020033836364746
1789402390260944000,5.75694384765625,-14.410994529724121,22.613605499267578,-9.897944450378418
1789402390270870300,5.766870361328125,18.217824935913086,-19.259918212890625,2.2092232704162598
1789402390280796700,5.776796630859375,11.44985580444336,-9.939937591552734,4.1548943519592285
1789402390290722800,5.786722900390625,-8.409774780273438,-30.868751525878906,2.0793304443359375
1789402390300649200,5.796649169921875,-14.167119979858398,-23.270111083984375,14.428784370422363
1789402390310575600,5.80657568359375,5.961445331573486,-30.844547271728516,4.807255268096924
1789402390320502000,5.816501953125,-0.9394629001617432,-15.071685791015625,1.7161736488342285
1789402390330428400,5.826428466796875,-5.266531467437744,-8.579551696777344,-1.252133846282959
1789402390340354600,5.8363544921875,-4.983975887298584,-4.851878643035889,-4.247225284576416
1789402390350281000,5.846281005859375,-2.861891746520996,-3.1309661865234375,-11.988947868347168
1789402390360207000,5.85620703125,-6.260434150695801,-4.150706768035889,-9.943099975585938
1789402390370133500,5.866133544921875,-2.830970287322998,-6.493868350982666,2.0830020904541016
1789402390380060000,5.876059814453125,1.683427095413208,-3.0512709617614746,5.025748252868652
1789402390389986000,5.885986083984375,3.4103140830993652,-0.10997581481933594,3.0220236778259277
1789402390399912400,5.895912353515625,3.303757905960083,0.7489361763000488,1.0663981437683105
1789402390409838800,5.9058388671875,1.3612165451049805,0.38655900955200195,-0.4785318374633789
1789402390419765000,5.915764892578125,-0.19292497634887695,-0.10436820983886719,-0.6965866088867188
1789402390429691400,5.92569140625,-1.0549678802490234,0.6233935356140137,-1.153001070022583
1789402390439617800,5.93561767578125,-0.29054737091064453,1.4465937614440918,-2.1073927879333496
1789402390449544000,5.9455439453125,0.2821812629699707,3.591438055038452,-3.4594218730926514
1789402390459470300,5.95547021484375,1.6268324851989746,5.335053443908691,-3.7198331356048584
1789402390469396700,5.965396728515625,3.5018699169158936,5.063187599182129,-4.35359001159668
1789402390479323100,5.9753232421875,4.765077114105225,5.294422626495361,-1.9990649223327637
1789402390489249500,5.98524951171875,3.7302231788635254,3.915769577026367,3.2546520233154297
1789402390499176000,5.995176025390625,0.3223090171813965,2.3424363136291504,4.253571510314941
1789402390509102000,6.00510205078125,-1.514357566833496,1.4357500076293945,1.5891361236572266
1789402390519028500,6.015028564453125,0.10463094711303711,-1.5433235168457031,1.0628881454467773
1789402390528955000,6.024954833984375,-0.6394014358520508,-0.4268937110900879,2.1543149948120117
1789402390538881300,6.03488134765625,-4.455268383026123,-1.9782075881958008,3.6680006980895996
1789402390548807700,6.0448076171875,-4.690665245056152,-2.5356688499450684,3.753669261932373
1789402390558733800,6.05473388671875,-6.431970596313477,-2.6145215034484863,3.601673126220703
1789402390568660200,6.06466015625,-3.951007843017578,-2.559603214263916,2.82767391204834
1789402390578586600,6.074586669921875,-0.6717748641967773,-3.7886040210723877,2.462911605834961
1789402390588513000,6.084512939453125,-1.7103333473205566,-4.185657501220703,3.595752716064453
1789402390598439400,6.094439453125,-2.2191429138183594,-3.512587070465088,3.2582921981811523
1789402390608365800,6.10436572265625,-3.7813501358032227,-2.9492835998535156,2.2783327102661133
1789402390618292000,6.1142919921875,-4.715201377868652,-2.914886713027954,2.8668718338012695
1789402390628218400,6.12421826171875,-3.1436476707458496,-4.949577331542969,2.6731338500976562
1789402390638144800,6.134144775390625,-1.4029059410095215,-7.408621788024902,3.5170822143554688
1789402390648071200,6.1440712890625,-1.9461026191711426,-9.478208541870117,3.629857063293457
1789402390657997600,6.15399755859375,-3.1412253379821777,-8.360328674316406,3.415773391723633
1789402390667924000,6.163924072265625,-1.2265806198120117,-7.2862467765808105,1.9668445587158203
1789402390677850000,6.17385009765625,-0.1804203987121582,-3.895768642425537,-1.7761192321777344
1789402390687776500,6.183776611328125,6.828329563140869,0.7956968545913696,-5.124352931976318
1789402390697703000,6.193702880859375,9.20921516418457,5.26973295211792,-7.629195213317871
1789402390707629300,6.20362939453125,8.90335464477539,8.48373794555664,-10.568489074707031
1789402390717555700,6.2135556640625,7.072919845581055,10.76923656463623,-12.78643798828125
1789402390727481900,6.22348193359375,4.629126071929932,8.187600135803223,-14.537381172180176
1789402390737408300,6.233408203125,2.0923454761505127,4.802794456481934,-12.674591064453125
1789402390747334700,6.243334716796875,0.05913066864013672,2.67914080619812,-7.491438865661621
1789402390757261000,6.253260986328125,-0.37072134017944336,1.0695844888687134,-3.064624309539795
1789402390767187500,6.2631875,1.464559555053711,-0.09713888168334961,-1.6804184913635254
1789402390777113900,6.27311376953125,2.3856725692749023,-0.9306514263153076,-2.0474462509155273
1789402390787040000,6.2830400390625,0.6144452095031738,-1.1277475357055664,-2.576422691345215
1789402390796966400,6.29296630859375,-0.8678755760192871,-1.6331948041915894,-2.993856906890869
1789402390806892800,6.302892822265625,-2.7377700805664062,-0.9895055294036865,-2.4940929412841797
1789402390816819200,6.312819091796875,-3.492661952972412,-0.6619964838027954,-1.2991328239440918
1789402390826745600,6.32274560546875,-1.312675952911377,-0.7886879444122314,-0.38797903060913086
1789402390836671700,6.332671630859375,-0.44817161560058594,-0.05618774890899658,0.2541961669921875
1789402390846598100,6.34259814453125,-0.8112368583679199,0.36514532566070557,0.7256174087524414
1789402390856524500,6.352524658203125,-1.0389618873596191,0.4143526554107666,1.3088712692260742
1789402390866450700,6.36245068359375,-2.2372922897338867,-0.12169027328491211,1.4491205215454102
1789402390876377000,6.372377197265625,-3.89471435546875,-0.5393033027648926,1.609471321105957
1789402390886303200,6.38230322265625,-3.803643226623535,-1.1537768840789795,1.608677864074707
1789402390896229600,6.392229736328125,-2.3334951400756836,-1.4810800552368164,0.7161483764648438
1789402390906156000,6.402156005859375,-1.9783620834350586,-1.4045405387878418,-0.025352001190185547
1789402390916082200,6.412082275390625,-1.6516780853271484,-1.0017554759979248,-0.9235591888427734
1789402390926008600,6.422008544921875,-1.1145548820495605,-0.1907961368560791,-1.354478359222412
1789402390935935000,6.43193505859375,-0.5983805656433105,0.7426519393920898,-1.6156272888183594
1789402390945861000,6.441861083984375,0.5467491149902344,1.3967593908309937,-2.0860090255737305
1789402390955787500,6.45178759765625,0.9633455276489258,2.0197653770446777,-2.5716710090637207
1789402390965714000,6.4617138671875,0.8150568008422852,2.6490049362182617,-2.9207282066345215
1789402390975640300,6.471640380859375,1.2162165641784668,2.873493194580078,-2.907989978790283
1789402390985566700,6.481566650390625,0.7891392707824707,2.7229690551757812,-2.803659439086914
1789402390995493000,6.4914931640625,0.054439544677734375,2.499823570251465,-2.2799606323242188
1789402391005419300,6.501419189453125,0.11413002014160156,2.2787177562713623,-1.4721522331237793
1789402391015345700,6.511345703125,-0.004210948944091797,2.2296526432037354,-0.8813447952270508
1789402391025272000,6.52127197265625,-0.6372685432434082,2.193530797958374,-0.03752279281616211
1789402391035198500,6.531198486328125,-0.19293689727783203,1.992966651916504,0.606328010559082
1789402391045124900,6.541124755859375,0.32908010482788086,1.4066720008850098,0.9728784561157227
1789402391055051300,6.55105126953125,-0.8382663726806641,1.1185131072998047,0.8674683570861816
1789402391064977400,6.560977294921875,-1.6454887390136719,0.9095301628112793,1.2278504371643066
1789402391074903800,6.57090380859375,-1.756363868713379,0.7302150726318359,1.6467390060424805
1789402391084830200,6.580830322265625,-1.9506468772888184,0.580113410949707,1.6531181335449219
1789402391094756600,6.590756591796875,-0.9542169570922852,0.6051650047302246,1.6997909545898438
1789402391104683000,6.60068310546875,-0.2957639694213867,0.3929572105407715,0.9345793724060059
1789402391114609200,6.610609130859375,-0.4347095489501953,0.5569262504577637,0.17293167114257812
1789402391124535600,6.62053564453125,0.4179699420928955,0.7091836929321289,-0.7344489097595215
1789402391134462000,6.6304619140625,0.37865424156188965,0.5655536651611328,-1.5660090446472168
1789402391144388000,6.64038818359375,-0.5012049674987793,0.07336235046386719,-1.9876360893249512
1789402391154314500,6.650314453125,0.2902822494506836,-0.41309404373168945,-1.9399933815002441
1789402391164241000,6.660240966796875,-1.4622082710266113,-1.0128874778747559,-1.1639323234558105
1789402391174167000,6.6701669921875,-1.2501907348632812,-1.078885555267334,0.22363042831420898
1789402391184093400,6.680093505859375,-2.185680866241455,-0.4937443733215332,2.1713075637817383
1789402391194019800,6.690019775390625,-1.7270145416259766,-0.09789133071899414,2.684563159942627
1789402391203946000,6.699946044921875,-1.2343716621398926,0.47412776947021484,2.7600579261779785
1789402391213872400,6.709872314453125,-0.5448722839355469,0.8278136253356934,2.1805238723754883
1789402391223798500,6.719798583984375,-1.8332066535949707,1.268669605255127,2.049757957458496
1789402391233725000,6.729724853515625,-2.2678542137145996,1.1936044692993164,2.2430267333984375
1789402391243651300,6.7396513671875,-2.2743334770202637,0.6846365928649902,2.7843399047851562
1789402391253577700,6.74957763671875,-2.2995080947875977,-0.22549152374267578,2.8824410438537598
1789402391263504100,6.759504150390625,-2.246185779571533,-0.8829421997070312,2.726271152496338
1789402391273430500,6.769430419921875,-1.9782371520996094,-1.353259563446045,2.48720645904541
1789402391283356700,6.779356689453125,-1.2141103744506836,-1.514678955078125,2.423201560974121
1789402391293283000,6.789282958984375,-0.14812755584716797,-1.9546756744384766,1.7334847450256348
1789402391303209500,6.79920947265625,-0.04002809524536133,-2.2642874717712402,0.44844818115234375
1789402391313135900,6.809135986328125,-0.9834604263305664,-2.194826126098633,0.2813687324523926
1789402391323062300,6.819062255859375,-1.4337482452392578,-2.550075054168701,-0.23702526092529297
1789402391332988400,6.828988525390625,-1.9494194984436035,-2.679647922515869,-0.7138195037841797
1789402391342914800,6.838914794921875,-1.914536476135254,-2.4102840423583984,-0.4736156463623047
1789402391352841000,6.848841064453125,-1.9117717742919922,-2.149609088897705,-0.10118961334228516
1789402391362767400,6.858767333984375,-1.2008743286132812,-1.6341767311096191,-0.4971003532409668
1789402391372693800,6.86869384765625,0.1770620346069336,-0.28441953659057617,1.33799409866333
1789402391382620000,6.878619873046875,2.3967251777648926,-0.23951148986816406,1.6014108657836914
1789402391392546300,6.88854638671875,2.428234815597534,-0.297396183013916,1.5756011009216309
1789402391402472700,6.89847265625,2.087287187576294,-0.7999343872070312,0.3304309844970703
1789402391412398800,6.90839892578125,1.0760364532470703,-0.847010612487793,-0.8794355392456055
1789402391422325200,6.9183251953125,0.14141130447387695,-0.9161105155944824,-1.3145971298217773
1789402391432251600,6.928251708984375,-0.962831974029541,-0.6153960227966309,-0.5888142585754395
1789402391442177800,6.938177734375,-2.1075854301452637,-0.20053815841674805,0.7329468727111816
1789402391452104200,6.948104248046875,-1.9845452308654785,0.13452482223510742,1.541614055633545
1789402391462030600,6.958030517578125,-1.345907211303711,0.34468889236450195,1.7772345542907715
1789402391471957000,6.96795703125,-0.7621622085571289,0.4375300407409668,1.5510644912719727
1789402391481883400,6.97788330078125,-0.47859811782836914,0.3708653450012207,1.5905814170837402
1789402391491809800,6.987809814453125,-0.12294912338256836,0.07991170883178711,1.368762493133545
1789402391501736000,6.99773583984375,-0.5225262641906738,-0.458282470703125,0.9043154716491699
1789402391511662300,7.007662353515625,-1.5592479705810547,-0.7974848747253418,0.1457657814025879
1789402391521588700,7.017588623046875,-1.6081132888793945,-0.6227774620056152,-0.7447872161865234
1789402391531515100,7.02751513671875,-0.8839631080627441,-0.046312808990478516,-1.719529628753662
1789402391541441300,7.037441162109375,-1.7006945610046387,0.45875978469848633,-1.3411402702331543
1789402391551367700,7.04736767578125,-0.9288239479064941,1.0512824058532715,-0.5693631172180176
1789402391561293800,7.0572939453125,-0.24190473556518555,1.413008451461792,0.48286914825439453
1789402391571220200,7.06722021484375,-0.18023443222045898,1.6336650848388672,1.8949923515319824
1789402391581146600,7.077146728515625,-0.6168746948242188,1.486943244934082,3.0206799507141113
1789402391591072800,7.08707275390625,-1.299102783203125,1.1155898571014404,3.5613722801208496
1789402391600999200,7.096999267578125,-1.399672031402588,0.690253734588623,3.357217311859131
1789402391610925600,7.106925537109375,-0.6197566986083984,0.3224186897277832,2.6250786781311035
1789402391620851700,7.116851806640625,0.6801915168762207,0.2647895812988281,2.1715521812438965
1789402391630778000,7.126778076171875,0.5769271850585938,0.3176302909851074,2.34629487991333
1789402391640704500,7.13670458984375,-0.5455417633056641,0.030731201171875,2.2108330726623535
1789402391650631000,7.146630859375,-1.8332648277282715,-0.384096622467041,1.4864230155944824
1789402391660557000,7.15655712890625,-1.9938478469848633,-0.8319768905639648,0.6526684761047363
1789402391670483500,7.1664833984375,-1.5349369049072266,-0.9819645881652832,0.3217277526855469
1789402391680409900,7.176409912109375,-0.8812570571899414,-1.039717435836792,0.475311279296875
1789402391690336300,7.186336181640625,-0.15218877792358398,-1.074744462966919,0.7878727912902832
1789402391700262700,7.1962626953125,0.7044310569763184,-1.50620698928833,0.45997190475463867
1789402391710189000,7.20618896484375,1.4055438041687012,-1.8830945491790771,-0.36687707901000977
1789402391720115200,7.216115234375,2.041679859161377,-1.9577383995056152,-1.363215446472168
1789402391730041600,7.22604150390625,3.227813959121704,-1.6619422435760498,-2.2591428756713867
1789402391739968000,7.235968017578125,4.088430404663086,-1.026867151260376,-3.090561866760254
1789402391749894100,7.24589404296875,4.728955268859863,-0.07676982879638672,-3.9283413887023926
1789402391759820500,7.255820556640625,4.313286781311035,0.5306956768035889,-4.7042236328125
1789402391769746700,7.26574658203125,3.913322925567627,0.7896728515625,-5.42146110534668
1789402391779673000,7.275673095703125,4.064517498016357,0.8072216510772705,-6.4227495193481445
1789402391789599500,7.285599609375,4.800156116485596,1.0896180868148804,-6.258572101593018
1789402391799525600,7.295525634765625,5.118145942687988,1.225381851196289,-6.102043628692627
1789402391809452000,7.3054521484375,4.299822807312012,1.1716091632843018,-6.0100250244140625
1789402391819378400,7.31537841796875,3.0472617149353027,0.5929547548294067,-6.338544845581055
1789402391829304600,7.3253046875,2.483102798461914,0.16623175144195557,-6.26971435546875
1789402391839231000,7.33523095703125,2.0622119903564453,0.5784649848937988,-5.178892135620117
1789402391849157000,7.3451572265625,2.02333927154541,1.2412822246551514,-3.776228666305542
1789402391859083500,7.35508349609375,1.8275465965270996,1.3228304386138916,-2.9396233558654785
1789402391869010000,7.365010009765625,1.0122175216674805,0.8271560072898865,-2.4963455200195312
1789402391878936000,7.37493603515625,-0.6280169486999512,0.49353253841400146,-1.150008201599121
1789402391888862500,7.384862548828125,-0.8733696937561035,-0.21321630477905273,0.05891847610473633
1789402391898788900,7.394788818359375,-0.8459229469299316,-0.9197348356246948,1.1490554809570312
1789402391908715000,7.404715087890625,-0.49367189407348633,-1.9309625625610352,1.2812352180480957
1789402391918641400,7.414641357421875,-0.8639101982116699,-2.3369216918945312,0.9958477020263672
1789402391928567800,7.42456787109375,-1.3377208709716797,-2.638854503631592,0.4443531036376953
1789402391938494000,7.434493896484375,-2.5231194496154785,-2.642548084259033,0.05193805694580078
1789402391948420400,7.44442041015625,-3.48307466506958,-2.6108386516571045,-0.07624006271362305
1789402391958346800,7.4543466796875,-2.5093483924865723,-2.609184503555298,0.25221681594848633
1789402391968273200,7.464273193359375,-2.111083507537842,-2.586884021759033,0.42928171157836914
1789402391978199600,7.474199462890625,-2.0272703170776367,-2.5363991260528564,0.3346400260925293
1789402391988125700,7.484125732421875,-2.097522258758545,-2.0629255771636963,0.5305027961730957
1789402391998052000,7.494052001953125,-2.8474364280700684,-1.2882716655731201,1.0699853897094727
1789402392007978500,7.503978515625,-1.668208122253418,-0.718172550201416,1.3945155143737793
1789402392017905000,7.51390478515625,-1.489753246307373,-0.23096704483032227,1.15201997756958
1789402392027831300,7.523831298828125,-0.8333644866943359,0.2947962284088135,0.7894840240478516
1789402392037757400,7.53375732421875,-0.925865650177002,0.7694203853607178,0.6568589210510254
1789402392047683800,7.543683837890625,-1.4214353561401367,1.0849652290344238,0.7835297584533691
1789402392057610000,7.55360986328125,0.0760049819946289,0.8530263900756836,0.29726219177246094
1789402392067536400,7.563536376953125,0.47404050827026367,0.5618054866790771,-0.2233891487121582
1789402392077462800,7.573462890625,-0.6330447196960449,0.15830087661743164,-1.1091666221618652
1789402392087389000,7.583388916015625,-1.1272320747375488,-0.5303049087524414,-1.1509814262390137
1789402392097315300,7.5933154296875,-2.2628469467163086,-0.8432707786560059,0.08688640594482422
1789402392107241700,7.60324169921875,-2.097850799560547,-0.8444266319274902,1.821009635925293
1789402392117167900,7.61316796875,-0.7958049774169922,-0.8831372261047363,2.6231722831726074
1789402392127094300,7.62309423828125,-1.3103022575378418,-1.1796069145202637,2.3049120903015137
1789402392137020400,7.6330205078125,-1.3227362632751465,-1.0260086059570312,2.0981998443603516
1789402392146946800,7.64294677734375,0.1458272933959961,-0.16011762619018555,1.9889740943908691
1789402392156873200,7.652873291015625,0.7671928405761719,0.7996459007263184,1.8581647872924805
1789402392166799400,7.66279931640625,1.0140278339385986,1.1865863800048828,1.234954833984375
1789402392176725800,7.672725830078125,0.4574317932128906,1.24379301071167,0.5547914505004883
1789402392186652000,7.68265185546875,-0.5914936065673828,0.9226412773132324,0.25221729278564453
1789402392196578300,7.692578369140625,-1.7768325805664062,-0.06629514694213867,0.34944772720336914
1789402392206504700,7.702504638671875,-1.6672630310058594,-0.954948902130127,0.034033775329589844
1789402392216430800,7.712430908203125,-2.037360668182373,-1.226449966430664,-0.46227264404296875
1789402392226357200,7.722357177734375,-2.0356602668762207,-1.0597405433654785,0.03383636474609375
1789402392236283600,7.73228369140625,-0.9140987396240234,-0.6148104667663574,-0.04107952117919922
1789402392246209800,7.742209716796875,-0.9623928070068359,0.21044349670410156,-0.6545019149780273
1789402392256136200,7.75213623046875,-0.6147687435150146,1.5276918411254883,-0.9044804573059082
1789402392266062300,7.762062255859375,-1.0166840553283691,2.734431743621826,-0.7248544692993164
1789402392275988700,7.77198876953125,-0.9358487129211426,3.512024402618408,-0.31786441802978516
1789402392285915100,7.7819150390625,-0.9702982902526855,3.702270746231079,-0.14249897003173828
1789402392295841300,7.79184130859375,-1.5082604885101318,3.525628089904785,0.10126161575317383
1789402392305767700,7.801767578125,-0.955181360244751,2.860842704772949,0.29782724380493164
1789402392315693800,7.81169384765625,-1.4373762607574463,2.2455601692199707,1.2225351333618164
1789402392325620200,7.8216201171875,-1.100830316543579,1.9532947540283203,2.0556039810180664
1789402392335546600,7.831546630859375,-0.6851832866668701,1.2730684280395508,1.9238901138305664
1789402392345472800,7.84147265625,-1.5100977420806885,0.3233628273010254,0.9769706726074219
1789402392355399200,7.851399169921875,-2.264678478240967,-0.19276666641235352,0.2015376091003418
1789402392365325600,7.86132568359375,-1.836073875427246,-0.1355762481689453,-0.2767515182495117
1789402392375251700,7.871251708984375,-0.8540358543395996,0.334867000579834,-0.27851438522338867
1789402392385178000,7.88117822265625,0.526198148727417,0.8802294731140137,-0.32422685623168945
1789402392395104300,7.891104248046875,1.5611276626586914,1.2836170196533203,-0.5463128089904785
1789402392405030700,7.90103076171875,1.84128999710083,1.4706568717956543,-0.459195613861084
1789402392414957000,7.91095703125,1.9984586238861084,1.4388113021850586,-0.508185863494873
1789402392424883200,7.92088330078125,1.4439716339111328,1.294266700744629,-0.1881561279296875
1789402392434809600,7.9308095703125,0.5295910835266113,0.7757883071899414,0.5638880729675293
1789402392444736000,7.940736083984375,-0.9018449783325195,-0.06981611251831055,1.857712745666504
1789402392454662100,7.950662109375,-2.6541495323181152,-1.6517181396484375,2.531592845916748
1789402392464588500,7.960588623046875,-5.514963626861572,-3.23970365524292,2.7692418098449707
1789402392474514700,7.9705146484375,-7.79411506652832,-4.457437515258789,3.109344005584717
1789402392484441000,7.980441162109375,-5.922423362731934,-5.474560260772705,3.2111597061157227
1789402392494367500,7.990367431640625,-3.1595864295959473,-5.812307834625244,3.0781097412109375
1789402392504293600,8.000293701171875,-2.1014370918273926,-5.125961780548096,2.829324722290039
1789402392514220000,8.010219970703124,-1.0127630233764648,-4.105825901031494,1.8697924613952637
1789402392524146400,8.020146484375,0.18501949310302734,-2.8008012771606445,0.9467782974243164
1789402392534072600,8.030072509765626,0.23634624481201172,-1.2221055030822754,0.24950647354125977
1789402392543999000,8.0399990234375,-1.2288389205932617,-0.3937077522277832,0.14366865158081055
1789402392553925400,8.04992529296875,-2.5174264907836914,-0.08927536010742188,0.6859045028686523
1789402392563851800,8.059851806640625,-1.990532398223877,-0.47563648223876953,1.3108391761779785
1789402392573778200,8.069778076171875,-2.1093826293945312,-0.15990257263183594,2.6955060958862305
1789402392583704600,8.07970458984375,-2.634610176086426,-0.5019736289978027,3.23189115524292
1789402392593630700,8.089630615234375,-2.602835178375244,-0.9980053901672363,3.3657684326171875
1789402392603557000,8.09955712890625,-3.317772388458252,-1.6151189804077148,2.6489381790161133
1789402392613483500,8.1094833984375,-1.259028434753418,-1.7653007507324219,1.1217494010925293
1789402392623409700,8.11940966796875,1.260103702545166,-1.1899194717407227,0.006174564361572266
1789402392633335800,8.129335693359375,2.5264222621917725,-0.5929365158081055,-0.4954104423522949
1789402392643262200,8.13926220703125,2.9990673065185547,-0.5113077163696289,-1.3884611129760742
1789402392653188400,8.149188232421874,3.0182714462280273,-0.17553138732910156,-1.6491265296936035
1789402392663114500,8.159114501953125,3.268343925476074,0.1580030918121338,-2.2309136390686035
1789402392673040600,8.16904052734375,2.268153667449951,0.33757710456848145,-1.210190773010254
1789402392682967000,8.178967041015625,0.8118710517883301,-0.1195070743560791,-0.34562206268310547
1789402392692893200,8.18889306640625,-1.0942473411560059,-0.8746864795684814,-0.5754947662353516
1789402392702819300,8.1988193359375,-1.360640525817871,-1.5863888263702393,-1.919501781463623
1789402392712745500,8.208745361328125,1.326608657836914,-1.7338290214538574,-3.0420944690704346
1789402392722671900,8.218671875,3.7283568382263184,-1.2409343719482422,-2.992448091506958
1789402392732598000,8.228597900390625,4.203336238861084,-0.0893256664276123,-2.363184928894043
1789402392742524400,8.2385244140625,3.6846466064453125,0.7267630100250244,-1.7743916511535645
1789402392752450800,8.248450927734375,1.7759547233581543,0.7251577377319336,-1.398465633392334
1789402392762377000,8.258376953125,0.9083399772644043,0.20906877517700195,-1.5947542190551758
1789402392772303400,8.268303466796874,2.0493040084838867,-0.22359848022460938,-2.161574363708496
1789402392782229500,8.2782294921875,3.367755174636841,-0.23891019821166992,-2.3771276473999023
1789402392792156000,8.288156005859374,3.7670369148254395,0.26442253589630127,-3.2194747924804688
1789402392802082300,8.298082275390625,4.142536163330078,0.6750373840332031,-4.2770915031433105
1789402392812008400,8.308008544921876,4.29025936126709,1.209934949874878,-4.340975761413574
1789402392821934800,8.317934814453125,4.1955366134643555,1.2088487148284912,-4.494258403778076
1789402392831861200,8.327861328125,3.6023366451263428,1.3509728908538818,-4.858033180236816
1789402392841787400,8.337787353515624,3.8820152282714844,1.3338403701782227,-5.02410888671875
1789402392851713800,8.3477138671875,2.9478204250335693,1.112186074256897,-4.444817543029785
1789402392861640000,8.357639892578124,2.0317821502685547,0.5552816390991211,-3.345832347869873
1789402392871566300,8.36756640625,1.665802001953125,-0.21887660026550293,-2.593975067138672
1789402392881492700,8.37749267578125,-0.9307808876037598,-0.6864640712738037,-0.9766292572021484
1789402392891419000,8.3874189453125,-3.233778476715088,-1.0685874223709106,1.815263271331787
1789402392901345300,8.39734521484375,-3.8492136001586914,-0.9979097843170166,4.078763484954834
1789402392911271400,8.407271484375,-1.7516508102416992,-1.2579840421676636,3.729336738586426
1789402392921197800,8.41719775390625,-1.3121919631958008,-1.5875461101531982,1.5989727973937988
1789402392931124000,8.4271240234375,-1.8482937812805176,-1.4877277612686157,0.21545934677124023
1789402392941050400,8.43705029296875,0.01111745834350586,-1.7707202434539795,-1.5490703582763672
1789402392950976500,8.4469765625,0.43355417251586914,-1.4280173778533936,-2.439274787902832
1789402392960903000,8.45690283203125,0.04878425598144531,-0.6776914596557617,-2.6487131118774414
1789402392970829000,8.4668291015625,2.0560827255249023,-0.4529438018798828,-3.352210760116577
1789402392980755200,8.476755126953124,2.9139578342437744,0.24103426933288574,-3.942530632019043
1789402392990681600,8.486681640625,2.061190605163574,1.1433522701263428,-3.9531009197235107
1789402393000607700,8.496607666015626,1.2922019958496094,1.5841081142425537,-3.7052931785583496
1789402393010534100,8.5065341796875,0.9073805809020996,1.7564442157745361,-3.3806703090667725
1789402393020460300,8.516460205078126,1.0348563194274902,1.8726507425308228,-2.968935012817383
1789402393030386700,8.52638671875,1.3871970176696777,1.471017837524414,-2.6654672622680664
1789402393040313000,8.53631298828125,0.7030096054077148,0.9703278541564941,-1.8609366416931152
1789402393050239500,8.546239501953124,-0.7518887519836426,0.8185725212097168,-0.45447874069213867
1789402393060166000,8.556165771484375,-0.19238996505737305,0.2394707202911377,0.6421828269958496
1789402393070092300,8.56609228515625,1.4580304622650146,-0.057708740234375,1.5839104652404785
1789402393080018400,8.576018310546875,-2.3182520866394043,0.2980470657348633,2.4582529067993164
1789402393089944800,8.58594482421875,-4.4857401847839355,-0.6315350532531738,1.325119972229004
1789402393099871200,8.595871337890625,-6.1086225509643555,-0.8147673606872559,3.6956210136413574
1789402393109797600,8.605797607421875,-2.8231453895568848,-1.3586769104003906,6.772393703460693
1789402393119723800,8.615723876953124,0.5335078239440918,-3.36958646774292,6.22456693649292
1789402393129650000,8.62564990234375,-3.591866970062256,-2.8556628227233887,6.121131420135498
1789402393139576000,8.635576171875,1.5249369144439697,-2.607914924621582,3.659059524536133
1789402393149502500,8.64550244140625,1.6392345428466797,-2.2548270225524902,-0.17887639999389648
1789402393159428600,8.6554287109375,-4.238710880279541,-0.4699211120605469,-1.7860198020935059
1789402393169354800,8.665354736328124,-1.2155570983886719,0.9635186195373535,-2.5699572563171387
1789402393179281000,8.675281005859375,1.9480412006378174,1.8084585666656494,-3.0839333534240723
1789402393189207300,8.685207275390624,0.904306173324585,2.0056352615356445,-2.9939072132110596
1789402393199133400,8.695133544921875,1.6268846988677979,1.2089991569519043,-3.447836399078369
1789402393209059600,8.7050595703125,-1.172438621520996,0.6771349906921387,-2.1485595703125
1789402393218986000,8.714986083984375,-2.6212081909179688,-0.20908689498901367,-0.3672456741333008
1789402393228912000,8.724912109375,-0.2715153694152832,-1.61838960647583,0.5657706260681152
1789402393238838500,8.734838623046874,-0.9577052593231201,-2.2525973320007324,1.677779197692871
1789402393248765000,8.744764892578125,-2.538853645324707,-1.9740514755249023,2.4997572898864746
1789402393258691000,8.754691162109374,-3.310826301574707,-1.122006893157959,4.0352959632873535
1789402393268617500,8.764617431640625,-3.8474912643432617,-0.26229429244995117,5.092668056488037
1789402393278543600,8.774543701171876,-0.5964908599853516,-0.4277358055114746,3.8599042892456055
1789402393288470000,8.784469970703125,0.33721065521240234,-0.3468785285949707,1.722653865814209
1789402393298396400,8.794396484375,-0.710925817489624,0.430511474609375,-0.07227611541748047
1789402393308322600,8.804322509765624,-1.6627514362335205,1.6529078483581543,-0.625086784362793
1789402393318249000,8.8142490234375,-2.976536750793457,2.5684454441070557,0.7114534378051758
1789402393328175000,8.824175048828126,-2.4883828163146973,2.7781474590301514,2.503089427947998
1789402393338101500,8.8341015625,-0.34999513626098633,1.2723636627197266,1.9881958961486816
1789402393348027600,8.844027587890626,0.8294839859008789,0.2825446128845215,1.1242966651916504
1789402393357954000,8.8539541015625,0.9234743118286133,0.11140871047973633,0.1773967742919922
1789402393367880200,8.863880126953125,0.7954127788543701,-0.660377025604248,-2.2562413215637207
1789402393377806300,8.873806396484374,0.5948765277862549,-1.614133358001709,-5.055948734283447
1789402393387732700,8.883732666015625,-1.8356256484985352,-0.9925827980041504,-3.527893543243408
1789402393397659000,8.893658935546876,-4.265944004058838,-0.3013639450073242,-1.2297115325927734
1789402393407585300,8.903585205078125,-3.405377149581909,-0.8514237403869629,-1.4727592468261719
1789402393417511400,8.913511474609376,0.2559084892272949,-2.9512953758239746,-2.1943531036376953
1789402393427437800,8.923437744140625,1.0625262260437012,-2.684053897857666,-0.5345969200134277
1789402393437364000,8.933364013671875,-1.4925003051757812,-0.8656597137451172,2.1597166061401367
1789402393447290400,8.943290283203124,-4.009609699249268,0.13539695739746094,5.852686405181885
1789402393457216800,8.953216796875,-1.6612868309020996,-0.668604850769043,6.572641849517822
1789402393467143000,8.963142822265626,0.8588781356811523,-1.8106741905212402,4.345557689666748
1789402393477069300,8.9730693359375,1.463512897491455,-1.826690673828125,1.9239296913146973
1789402393486995500,8.982995361328125,0.7613027095794678,-1.6198205947875977,0.06241035461425781
1789402393496921900,8.992921875,-2.463879108428955,-1.5404205322265625,0.0479578971862793
1789402393506848300,9.00284814453125,-3.567765712738037,-1.7772254943847656,0.4239168167114258
1789402393516774400,9.0127744140625,-2.4783687591552734,-2.516655445098877,0.520047664642334
1789402393526700800,9.02270068359375,-1.2785882949829102,-2.6544394493103027,0.4032707214355469
1789402393536627200,9.032627197265626,-1.195241928100586,-1.6303696632385254,1.1949706077575684
1789402393546553600,9.0425537109375,-1.0991449356079102,-0.11026239395141602,2.302428722381592
1789402393556480000,9.05247998046875,-0.6844873428344727,0.7948384284973145,2.5985889434814453
1789402393566406100,9.06240625,0.6221208572387695,0.9307775497436523,1.9303741455078125
1789402393576332500,9.07233251953125,1.597200870513916,0.9120025634765625,1.2897624969482422
1789402393586259000,9.082259033203124,-0.4705042839050293,0.8472919464111328,1.0954809188842773
1789402393596185300,9.092185302734375,-2.9756298065185547,0.4853067398071289,0.8895068168640137
1789402393606111700,9.10211181640625,-4.296768665313721,-0.13714027404785156,0.7513580322265625
1789402393616038000,9.112037841796875,-1.9346494674682617,-0.41536951065063477,1.6081676483154297
1789402393625964000,9.121964111328126,2.2650644779205322,-0.2931556701660156,2.794234275817871
1789402393635890200,9.13189013671875,3.0394575595855713,-0.22511720657348633,2.895064353942871
1789402393645816300,9.14181640625,1.9635400772094727,-0.9216756820678711,1.5699987411499023
1789402393655742700,9.15174267578125,-1.086301326751709,-1.3256187438964844,0.5049252510070801
1789402393665668900,9.1616689453125,-3.2670164108276367,-1.6649842262268066,-1.389699935913086
1789402393675595000,9.171594970703126,-0.3122415542602539,-1.980665922164917,-3.088101387023926
1789402393685521200,9.181521240234375,4.028602123260498,-1.2744338512420654,-3.432628631591797
1789402393695447300,9.191447265625,4.948382377624512,0.6228852272033691,-1.5610747337341309
1789402393705373400,9.20137353515625,2.5645265579223633,1.9465395212173462,-0.36897706985473633
1789402393715299600,9.211299560546875,0.9816150665283203,1.534968376159668,-0.5507693290710449
1789402393725225700,9.221225830078126,0.529017448425293,0.7129945755004883,-1.1919527053833008
1789402393735151900,9.23115185546875,1.647352695465088,-0.3118467330932617,-2.0220999717712402
1789402393745078300,9.241078369140626,3.637779474258423,-0.6226027011871338,-1.6283483505249023
1789402393755004400,9.25100439453125,2.9770030975341797,0.0466763973236084,-0.7569212913513184
1789402393764930800,9.260930908203125,1.9479093551635742,0.41571760177612305,-0.9159364700317383
1789402393774857000,9.27085693359375,3.7713441848754883,0.3451821804046631,-2.152730941772461
1789402393784783000,9.280783203125,4.008209228515625,1.1786431074142456,-2.9959020614624023
1789402393794709500,9.29070947265625,1.6878743171691895,1.7536230087280273,-3.384305953979492
1789402393804635600,9.3006357421875,1.8459820747375488,1.1471445560455322,-3.960972785949707
1789402393814562000,9.31056201171875,3.5988669395446777,0.40766310691833496,-4.793088912963867
1789402393824488200,9.32048828125,4.759195327758789,-0.16133999824523926,-5.729515552520752
1789402393834414600,9.33041455078125,4.519430160522461,0.4601689577102661,-6.517846584320068
1789402393844340700,9.3403408203125,1.6887969970703125,3.024507999420166,-4.185152530670166
1789402393854267000,9.350266845703125,1.0236592292785645,2.9572484493255615,-2.892361640930176
1789402393864193300,9.360193359375,3.275533676147461,1.2593684196472168,-2.595386505126953
1789402393874119400,9.370119384765625,3.717378854751587,-0.06541132926940918,-2.4271411895751953
1789402393884045800,9.3800458984375,1.301955223083496,-1.2983384132385254,-2.3329806327819824
1789402393893972000,9.389971923828124,-3.181027412414551,-1.525436282157898,-0.29038190841674805
1789402393903898000,9.399898193359375,-3.877735137939453,-1.4177627563476562,1.1778640747070312
1789402393913824500,9.409824462890626,-2.199326515197754,-1.407726764678955,1.7045083045959473
1789402393923750700,9.419750732421875,1.3514800071716309,-1.4346920251846313,0.9585752487182617
1789402393933677000,9.429677001953126,0.7360596656799316,-1.0409654378890991,0.3342013359069824
1789402393943603200,9.439603271484375,-1.9540843963623047,-1.3795528411865234,-0.549375057220459
1789402393953529300,9.449529296875,-1.7195587158203125,-2.041346549987793,-0.9100465774536133
1789402393963455700,9.459455810546874,-0.5425782203674316,-2.118603467941284,-0.5089607238769531
1789402393973382000,9.4693818359375,-0.5796027183532715,-1.6882777214050293,0.0715785026550293
1789402393983308300,9.479308349609376,0.5040879249572754,-1.4135565757751465,-0.6028995513916016
1789402393993234400,9.489234375,-0.44736433029174805,-0.7407031059265137,-1.21807861328125
1789402394003160800,9.499160888671875,-2.065206527709961,-0.18918967247009277,-0.9557490348815918
1789402394013087000,9.5090869140625,-0.5237836837768555,-0.20683002471923828,-0.4992656707763672
1789402394023013400,9.519013427734375,0.4251575469970703,-0.43912172317504883,-0.49451351165771484
1789402394032939800,9.528939697265624,0.16858959197998047,-0.5120987892150879,0.4904608726501465
1789402394042866000,9.538865966796875,-0.8946151733398438,-1.0633468627929688,-1.222074031829834
1789402394052792300,9.548792236328126,0.14773082733154297,-1.3540935516357422,-1.5247721672058105
1789402394062718700,9.55871875,-1.6267333030700684,-1.5621986389160156,-1.7512707710266113
1789402394072645000,9.56864501953125,-0.45882511138916016,-1.2463316917419434,-1.280698299407959
1789402394082571500,9.578571533203124,-0.12578535079956055,-1.0493125915527344,-1.2231574058532715
1789402394092498000,9.588497802734375,-1.0345802307128906,-0.9698486328125,-0.9823307991027832
1789402394102424000,9.598424072265624,-1.1200294494628906,-0.1150960922241211,0.9308819770812988
1789402394112350500,9.6083505859375,-0.969548225402832,0.6840300559997559,3.1707305908203125
1789402394122276600,9.618276611328126,0.3370356559753418,0.31553220748901367,3.3575010299682617
1789402394132202800,9.62820263671875,1.2985336780548096,0.09029197692871094,2.886601448059082
1789402394142129000,9.63812890625,1.679438591003418,0.36269044876098633,2.2236862182617188
1789402394152055000,9.648054931640624,1.5792763233184814,0.712733268737793,1.2639594078063965
1789402394161981200,9.657981201171875,-0.3824615478515625,0.8884296417236328,-0.3044919967651367
1789402394171907300,9.6679072265625,-1.830284595489502,1.2537016868591309,-1.3470377922058105
1789402394181833500,9.67783349609375,1.055436372756958,1.3280596733093262,-2.2347888946533203
1789402394191759600,9.687759521484375,1.1102941036224365,1.1769013404846191,-1.70725679397583
1789402394201685800,9.697685791015624,-3.3107805252075195,1.5114436149597168,0.5016107559204102
1789402394211612000,9.70761181640625,-2.3970272541046143,1.217726230621338,1.3730883598327637
1789402394221538300,9.717538330078124,-0.5431389808654785,1.1835856437683105,1.790693759918213
1789402394231464400,9.72746435546875,0.8216795921325684,0.32926082611083984,0.8480286598205566
1789402394241390600,9.737390625,-1.892554759979248,0.14649105072021484,0.7435421943664551
1789402394251317000,9.74731689453125,-3.5126264095306396,0.8318500518798828,2.098606586456299
1789402394261243100,9.7572431640625,-3.3904802799224854,1.6669697761535645,3.540964126586914
1789402394271169500,9.76716943359375,-3.452270030975342,2.302694320678711,5.965680122375488
1789402394281095700,9.777095703125,-1.901669979095459,1.536604881286621,7.220882892608643
1789402394291022000,9.78702197265625,0.023511886596679688,-0.8408503532409668,5.424984931945801
1789402394300948200,9.7969482421875,-1.2156963348388672,-1.7527270317077637,3.200674057006836
1789402394310874400,9.806874267578126,-3.303008556365967,-0.5389409065246582,2.3540329933166504
1789402394320800800,9.81680078125,-2.3855233192443848,0.32314014434814453,2.771568775177002
1789402394330727000,9.826726806640625,0.3318204879760742,-0.12263965606689453,2.651259422302246
1789402394340653000,9.836653076171874,2.214372396469116,-1.5107579231262207,-0.12927627563476562
1789402394350579200,9.8465791015625,1.4995651245117188,-2.4500842094421387,-2.324331760406494
1789402394360505300,9.85650537109375,-1.8876433372497559,-2.3002357482910156,-0.897730827331543
1789402394370431700,9.866431640625,-3.4404640197753906,-2.052459716796875,1.4794516563415527
1789402394380358000,9.87635791015625,-1.8952813148498535,-3.1695942878723145,1.298017978668213
1789402394390284000,9.886283935546874,-0.9848079681396484,-4.079336643218994,1.1189451217651367
1789402394400210200,9.896210205078125,-2.6772027015686035,-4.6149001121521,0.26784420013427734
1789402394410136600,9.906136474609376,-3.788285732269287,-4.351964950561523,-0.018793106079101562
1789402394420062700,9.916062744140625,-2.0169525146484375,-3.3384084701538086,1.0120091438293457
1789402394429988900,9.92598876953125,0.4806075096130371,-3.2044992446899414,1.5249004364013672
1789402394439915300,9.935915283203125,0.987980842590332,-3.1172471046447754,1.2267746925354004
1789402394449841400,9.94584130859375,0.14060163497924805,-2.2063474655151367,0.7843537330627441
1789402394459767800,9.955767822265624,-0.11339473724365234,-1.4699463844299316,0.34662866592407227
1789402394469694000,9.96569384765625,-0.8126530647277832,-0.13037776947021484,0.7982816696166992
1789402394479620000,9.9756201171875,-1.1370744705200195,1.0678491592407227,1.5925354957580566
1789402394489546500,9.98554638671875,-0.06520938873291016,1.6726226806640625,2.3859190940856934
1789402394499472600,9.99547265625,1.1451537609100342,1.2300314903259277,2.485353469848633
1789402394509399000,10.00539892578125,0.7143168449401855,1.0005145072937012,2.397521495819092
1789402394519325200,10.0153251953125,-0.7669081687927246,0.7778830528259277,2.5994858741760254
1789402394529251600,10.02525146484375,-3.3259363174438477,0.14042234420776367,2.4736461639404297
1789402394539177700,10.035177734375,-2.4958481788635254,-1.0082221031188965,0.8822412490844727
1789402394549104000,10.045104248046876,0.5843839645385742,-1.2288060188293457,-0.575800895690918
1789402394559030500,10.055030517578125,1.277909278869629,-1.0086288452148438,-1.36299467086792
1789402394568956700,10.064956787109375,0.8759708404541016,-0.4752535820007324,-1.7728981971740723
1789402394578883000,10.074883056640624,1.6173973083496094,0.0068149566650390625,-1.8521904945373535
1789402394588809500,10.0848095703125,2.532816171646118,-0.12169790267944336,-1.9347829818725586
1789402394598735600,10.094735595703124,2.589137554168701,-0.07514619827270508,-1.3537092208862305
1789402394608662000,10.104662109375,1.6660552024841309,-0.3020896911621094,-0.4546208381652832
1789402394618588200,10.114588134765626,0.7672863006591797,-0.5948901176452637,-0.4665565490722656
1789402394628514300,10.124514404296875,-0.3733654022216797,-0.2730398178100586,-0.5382227897644043
1789402394638440400,10.1344404296875,0.7355270385742188,-0.18499755859375,-1.022641658782959
1789402394648366600,10.14436669921875,1.5897083282470703,0.17702221870422363,-0.6452598571777344
1789402394658292700,10.154292724609375,1.0121726989746094,0.6259810924530029,0.05452299118041992
1789402394668219000,10.164218994140626,1.07725191116333,0.30512380599975586,-0.2893409729003906
1789402394678145000,10.17414501953125,1.4739151000976562,0.3361074924468994,-0.9777359962463379
1789402394688071200,10.1840712890625,3.281952142715454,-0.3502500057220459,-2.2585487365722656
1789402394697997300,10.193997314453124,6.25032377243042,-1.1933305263519287,-3.8355188369750977
1789402394707923500,10.20392333984375,2.4433364868164062,1.123895287513733,-1.9915103912353516
1789402394717849900,10.213849853515624,-0.737513542175293,2.530167818069458,-0.46117639541625977
1789402394727776000,10.22377587890625,0.5974183082580566,1.3628013134002686,-1.4096622467041016
1789402394737702100,10.2337021484375,4.496095657348633,0.7516957521438599,-2.5724668502807617
1789402394747628300,10.243628173828125,7.344226360321045,0.11218571662902832,-4.220353603363037
1789402394757554400,10.253554443359375,4.446148872375488,0.1881880760192871,-4.260011672973633
1789402394767480800,10.263480712890624,0.30697011947631836,0.33652162551879883,-3.56740140914917
1789402394777407000,10.273406982421875,1.057546615600586,0.3748049736022949,-3.250317096710205
1789402394787333000,10.2833330078125,3.0395798683166504,0.2579202651977539,-4.030064105987549
1789402394797259300,10.29325927734375,2.0197391510009766,0.694301426410675,-2.9661402702331543
1789402394807185400,10.303185302734375,1.637984275817871,0.13607752323150635,-1.7612738609313965
1789402394817111800,10.31311181640625,0.6379561424255371,-0.2104588747024536,-1.1618475914001465
1789402394827038000,10.323037841796875,1.0528225898742676,-1.108709454536438,-2.479896068572998
1789402394836964000,10.332964111328126,1.6408700942993164,-1.9251571893692017,-2.8337769508361816
1789402394846890500,10.342890380859375,2.192464828491211,-3.1127662658691406,-3.240713119506836
1789402394856816600,10.352816650390626,-2.3290295600891113,-2.992007255554199,-1.204939842224121
1789402394866743000,10.362742919921875,-5.08586311340332,-2.6750998497009277,1.1654772758483887
1789402394876669200,10.372669189453125,-2.35673189163208,-1.9591355323791504,0.6718978881835938
1789402394886595600,10.382595703125,-1.701209545135498,-0.4533116817474365,0.3419051170349121
1789402394896521700,10.392521728515625,-1.482090950012207,0.4967489242553711,0.8500356674194336
1789402394906448000,10.40244775390625,-0.12447023391723633,0.3261854648590088,0.939638614654541
1789402394916374300,10.412374267578125,-1.0790114402770996,-1.1462843418121338,0.06992816925048828
1789402394926300400,10.422300537109376,3.1510932445526123,-2.3965916633605957,-2.942674160003662
1789402394936226600,10.4322265625,3.275463104248047,-1.2725772857666016,-4.617980003356934
1789402394946152700,10.442152587890625,0.08118724822998047,0.13772082328796387,-4.84623384475708
1789402394956079000,10.4520791015625,-1.2011833190917969,1.5802617073059082,-4.198182106018066
1789402394966005200,10.462005126953125,0.13234901428222656,2.752544641494751,-3.244117021560669
1789402394975931400,10.471931396484376,2.5531246662139893,2.7891616821289062,-3.004730701446533
1789402394985857500,10.481857421875,2.948429822921753,2.0106334686279297,-2.398838996887207
1789402394995783700,10.49178369140625,0.6140475273132324,1.1330349445343018,-1.6203598976135254
1789402395005710000,10.5017099609375,-0.7859573364257812,0.364804744720459,-0.5582513809204102
1789402395015636200,10.51163623046875,-1.1828255653381348,0.005609035491943359,0.36702775955200195
1789402395025562400,10.521562255859376,-0.5679192543029785,-0.5849108695983887,1.0225086212158203
1789402395035488800,10.53148876953125,0.051360130310058594,-1.5173468589782715,0.947629451751709
1789402395045415200,10.541415283203126,-1.5405397415161133,-2.2520484924316406,1.2807998657226562
1789402395055341300,10.55134130859375,-5.123158931732178,-1.5787286758422852,4.10248327255249
1789402395065267700,10.561267822265625,-6.437978267669678,-0.29946184158325195,8.105447769165039
1789402395075194000,10.571194091796874,-2.223968505859375,-1.629958152770996,9.635543823242188
1789402395085120300,10.581120361328125,-0.6505966186523438,-3.566239356994629,9.178475379943848
1789402395095046700,10.591046630859376,0.09482192993164062,-5.356332302093506,6.857974529266357
1789402395104972800,10.600972900390625,-2.821896553039551,-5.864634037017822,3.877591609954834
1789402395114899200,10.610899169921876,-6.302062034606934,-4.046656608581543,2.454904556274414
1789402395124825600,10.62082568359375,-0.8219294548034668,-1.8722047805786133,0.3927726745605469
1789402395134751700,10.630751708984375,2.229076385498047,-0.14005613327026367,-1.8380680084228516
1789402395144678100,10.64067822265625,1.769533634185791,0.9517545700073242,-3.8365633487701416
1789402395154604500,10.6506044921875,0.9008405208587646,1.799314022064209,-4.914515495300293
1789402395164530700,10.66053076171875,-1.6848022937774658,3.2786829471588135,-2.657475471496582
1789402395174457000,10.67045703125,-0.8843824863433838,3.4402194023132324,-1.2316699028015137
1789402395184383200,10.68038330078125,0.6780986785888672,2.8818109035491943,-0.7035064697265625
1789402395194308900,10.690308837890624,-0.11085867881774902,2.4447245597839355,-0.23599863052368164
1789402395204234200,10.700234130859375,1.26542329788208,1.2982492446899414,-1.413102626800537
1789402395214160600,10.71016064453125,-1.6784558296203613,0.3591747283935547,-0.2936129570007324
1789402395224086800,10.720086669921875,-2.2860231399536133,-0.4196462631225586,1.565575122833252
1789402395234013200,10.73001318359375,-2.392568349838257,-0.8639426231384277,3.317223072052002
1789402395243939300,10.739939208984374,-1.2103867530822754,-1.2798614501953125,3.056375026702881
1789402395253865500,10.749865478515625,0.6260545253753662,-1.449605941772461,0.6156506538391113
1789402395263791600,10.75979150390625,1.0067710876464844,-2.1042394638061523,-2.610625743865967
1789402395273717800,10.7697177734375,-3.2229161262512207,-1.5393781661987305,-0.09564352035522461
1789402395283644200,10.77964404296875,-4.789036750793457,-1.0523314476013184,2.8824262619018555
1789402395293570300,10.7895703125,-7.565666675567627,-0.32152271270751953,6.914719581604004
1789402395303496400,10.799496337890625,-5.366535186767578,-0.9864063262939453,8.00691032409668
1789402395313422800,10.8094228515625,-0.3086056709289551,-1.9684743881225586,5.656850337982178
1789402395323349000,10.819348876953125,2.801360845565796,-2.5912351608276367,2.2694644927978516
1789402395333275100,10.829275146484376,2.73347806930542,-3.0387978553771973,-2.106605052947998
1789402395343201300,10.839201171875,-1.2351155281066895,-1.3430705070495605,-1.5919175148010254
1789402395353127400,10.84912744140625,-1.3945679664611816,0.12799882888793945,-0.3874082565307617
1789402395363053800,10.8590537109375,0.41609787940979004,-0.3051786422729492,-2.463435173034668
1789402395372980000,10.86897998046875,1.2962963581085205,-1.6054773330688477,-4.744746208190918
1789402395382906000,10.878906005859376,1.5469846725463867,-1.517733097076416,-4.316206932067871
1789402395392832300,10.888832275390625,0.22494745254516602,-1.231130599975586,-2.815337657928467
1789402395402758700,10.898758544921876,-1.9036478996276855,-0.4215536117553711,-0.8702282905578613
1789402395412684800,10.908684814453125,-2.559342861175537,-0.2617068290710449,0.25353384017944336
1789402395422611000,10.91861083984375,-2.496835708618164,-0.48805809020996094,0.5564823150634766
1789402395432537300,10.928537353515624,-2.5112576484680176,0.04701662063598633,1.8927254676818848
1789402395442463500,10.93846337890625,-1.5857863426208496,-0.02318096160888672,3.0714712142944336
1789402395452389600,10.9483896484375,-0.9681606292724609,0.20238447189331055,4.588725566864014
1789402395462315800,10.958315673828125,-0.05692005157470703,0.24860620498657227,5.320846080780029
1789402395472242000,10.968241943359375,0.9627730846405029,-0.14662694931030273,4.404526710510254
1789402395482168300,10.978168212890624,0.911820650100708,0.21683168411254883,3.239163398742676
1789402395492094500,10.988094482421875,-1.3785834312438965,0.5048284530639648,1.0882935523986816
1789402395502020600,10.9980205078125,-1.940110206604004,0.5287370681762695,-1.7376880645751953
1789402395511946800,11.00794677734375,-0.8582963943481445,0.8499350547790527,-3.10957670211792
1789402395521873000,11.017872802734376,2.428469657897949,1.1512961387634277,-2.559333324432373
1789402395531799300,11.02779931640625,2.741819381713867,1.0798094272613525,-0.4977893829345703
1789402395541725400,11.037725341796875,0.004136085510253906,0.7784101963043213,1.8344907760620117
1789402395551651600,11.047651611328124,-1.902139663696289,-0.8194890022277832,2.375408172607422
1789402395561577700,11.05757763671875,-1.732381820678711,-2.271827220916748,0.766080379486084
1789402395571504000,11.067504150390626,0.964026927947998,-2.678860902786255,-0.6963095664978027
1789402395581430300,11.07743017578125,3.156691312789917,-2.375694513320923,-1.28300142288208
1789402395591356400,11.0873564453125,2.482332706451416,-0.30430126190185547,0.2810478210449219
1789402395601282600,11.097282470703124,1.454634189605713,1.002898931503296,1.2904715538024902
1789402395611208700,11.107208740234375,0.23361587524414062,1.323760747909546,1.7042717933654785
1789402395621135000,11.117135009765626,-0.9379801750183105,0.11469507217407227,1.5100836753845215
1789402395631061200,11.127061279296875,-1.5704245567321777,-1.433260440826416,0.5129151344299316
1789402395640987400,11.1369873046875,-0.3888216018676758,-2.198619842529297,-0.826838493347168
1789402395650913500,11.14691357421875,2.862588882446289,-1.9744160175323486,-2.130688190460205
1789402395660840000,11.15683984375,5.366787433624268,-0.5005595684051514,-2.4762253761291504
1789402395670766000,11.16676611328125,5.064504623413086,0.8928759098052979,-2.381992816925049
1789402395680692200,11.176692138671875,4.139158725738525,0.6914341449737549,-3.475411891937256
1789402395690618400,11.186618408203126,4.089611053466797,0.13759469985961914,-5.466963291168213
1789402395700544800,11.196544677734375,4.377974987030029,0.08169198036193848,-7.127018451690674
1789402395710471000,11.206470947265625,4.23179817199707,2.484156608581543,-6.234831809997559
1789402395720397000,11.21639697265625,3.1671268939971924,3.0351979732513428,-5.079612731933594
1789402395730323200,11.2263232421875,1.8545751571655273,1.3898956775665283,-4.096236228942871
1789402395740249300,11.236249267578126,1.8704423904418945,0.2105618715286255,-2.827756881713867
1789402395750175700,11.24617578125,3.3876113891601562,-0.7560724020004272,-3.22111439704895
1789402395760102000,11.256101806640626,4.0621795654296875,-0.5555214881896973,-3.561032295227051
1789402395770028000,11.266028076171875,2.6256165504455566,0.4862985610961914,-3.531090021133423
1789402395779954200,11.2759541015625,0.19417428970336914,0.06576645374298096,-4.190665245056152
1789402395789880600,11.285880615234374,-1.519083023071289,-0.8515329360961914,-3.785292863845825
1789402395799806700,11.295806640625,-1.896618366241455,-1.206655740737915,-0.834136962890625
1789402395809732900,11.30573291015625,-0.4806194305419922,-1.6813766956329346,1.5734200477600098
1789402395819659000,11.315658935546875,0.12191581726074219,-1.276242971420288,1.921891689300537
1789402395829585200,11.325585205078125,-0.39111852645874023,-1.0380382537841797,0.8529386520385742
1789402395839511600,11.335511474609374,-0.37565135955810547,-1.4576342105865479,-1.319718837738037
1789402395849437700,11.345437744140625,-0.9921698570251465,-1.0009043216705322,-2.2923340797424316
1789402395859363800,11.35536376953125,-0.8476734161376953,-0.4780097007751465,-2.930835723876953
1789402395869290000,11.3652900390625,1.0450615882873535,-0.13337016105651855,-3.526067018508911
1789402395879216000,11.375216064453125,0.7240653038024902,0.6903741359710693,-2.8191614151000977
1789402395889142500,11.385142578125,0.6051344871520996,1.3584728240966797,-0.9817905426025391
1789402395899068700,11.395068603515625,0.6109046936035156,1.442152976989746,0.20057106018066406
1789402395908994800,11.404994873046874,-0.7778768539428711,1.0483241081237793,0.3541736602783203
1789402395918921000,11.4149208984375,-0.8483963012695312,-0.018765926361083984,-0.2603330612182617
1789402395928847000,11.42484716796875,-1.899965763092041,-0.45196533203125,-0.2082376480102539
1789402395938773200,11.434773193359375,-2.5919480323791504,-0.6195611953735352,0.6459646224975586
1789402395948699600,11.44469970703125,1.028456211090088,-1.860429286956787,0.0022449493408203125
1789402395958625800,11.454625732421874,-0.0021309852600097656,-1.3272056579589844,-0.13175725936889648
1789402395968552000,11.464552001953125,-0.4726734161376953,-1.3373475074768066,-0.938413143157959
1789402395978478000,11.47447802734375,-0.8478713035583496,-1.3391690254211426,-1.468111515045166
1789402395988404200,11.484404296875,-3.016955852508545,-0.32396364212036133,0.07661867141723633
1789402395998330600,11.49433056640625,-3.4808006286621094,0.5949006080627441,2.3815197944641113
1789402396008256800,11.5042568359375,-0.493253231048584,-0.40462493896484375,3.3389134407043457
1789402396018183000,11.514182861328125,0.8924973011016846,-1.7992486953735352,3.422985553741455
1789402396028109000,11.524109130859374,0.7318515777587891,-2.6633071899414062,3.232771396636963
1789402396038035200,11.53403515625,-1.944878101348877,-2.840303421020508,2.7524547576904297
1789402396047961600,11.543961669921876,-4.8092522621154785,-1.826056957244873,3.282081127166748
1789402396057887700,11.5538876953125,0.2514042854309082,-1.1230435371398926,1.3583130836486816
1789402396067814000,11.56381396484375,2.8252203464508057,-0.9143576622009277,-1.6447267532348633
1789402396077740000,11.573739990234374,0.3453946113586426,-0.556950569152832,-3.8510754108428955
1789402396087666200,11.583666259765625,-4.793266296386719,0.9572038650512695,-1.4905447959899902
1789402396097592600,11.593592529296876,-5.061940670013428,2.2006611824035645,2.3722805976867676
1789402396107518700,11.603518798828125,-1.2881205081939697,1.892941951751709,4.690921306610107
1789402396117444900,11.61344482421875,1.3368732929229736,0.07955074310302734,3.623408317565918
1789402396127371000,11.62337109375,0.26524996757507324,-0.5510449409484863,1.878934383392334
1789402396137297400,11.63329736328125,-2.2786779403686523,-0.10383749008178711,1.3425226211547852
1789402396147223600,11.6432236328125,-3.5208826065063477,1.0400629043579102,2.219404697418213
1789402396157149700,11.653149658203125,-1.361492395401001,1.4068799018859863,2.308685779571533
1789402396167075800,11.663075927734376,0.8672468662261963,0.6550083160400391,0.32813453674316406
1789402396177002000,11.673001953125,-0.5679543018341064,0.25243568420410156,-0.685112476348877
1789402396186928000,11.68292822265625,-2.206317663192749,0.7501325607299805,-0.04274797439575195
1789402396196854300,11.692854248046874,-1.5752902030944824,1.0079383850097656,0.6331558227539062
1789402396206780700,11.70278076171875,-0.5267291069030762,0.6633691787719727,0.7731599807739258
1789402396216706800,11.712706787109376,-0.07744026184082031,0.1103978157043457,0.7959551811218262
1789402396226633000,11.722633056640625,0.29036450386047363,-0.6117935180664062,0.08680438995361328
1789402396236559000,11.73255908203125,-0.621516227722168,-1.0954627990722656,-0.2266230583190918
1789402396246485200,11.7424853515625,-2.743481159210205,-0.9530558586120605,1.1238007545471191
1789402396256411600,11.75241162109375,-2.809408187866211,-1.0152711868286133,2.237781524658203
1789402396266337800,11.762337890625,-4.057466983795166,-1.319645881652832,3.6249122619628906
1789402396276264000,11.772263916015625,-2.242727279663086,-2.2161831855773926,3.1042652130126953
1789402396286190000,11.782190185546876,1.2627067565917969,-3.28515625,1.1910400390625
1789402396296116200,11.7921162109375,2.114442825317383,-3.7403664588928223,0.1356215476989746
1789402396306042400,11.80204248046875,-0.10028982162475586,-2.993370532989502,0.5600385665893555
1789402396315968500,11.811968505859374,-0.9891057014465332,-2.240849018096924,0.8284473419189453
1789402396325895000,11.82189501953125,-1.1259074211120605,-1.81549072265625,0.5003008842468262
1789402396335821000,11.831821044921876,-1.1401829719543457,-1.2514824867248535,0.5711202621459961
1789402396345747200,11.841747314453125,-0.44725799560546875,-1.146139144897461,0.9657149314880371
1789402396355673300,11.85167333984375,-0.6211705207824707,-1.1699891090393066,1.524500846862793
1789402396365599700,11.861599853515624,-2.9213643074035645,-0.4873061180114746,2.633021354675293
1789402396375526000,11.87152587890625,-3.2339110374450684,-0.45882558822631836,2.289065361022949
1789402396385452000,11.8814521484375,-2.26698637008667,-0.3694190979003906,1.8690528869628906
1789402396395378200,11.891378173828125,-1.2324471473693848,0.10531139373779297,1.9169244766235352
1789402396405304300,11.90130419921875,0.4861564636230469,-0.030211448669433594,1.8660783767700195
1789402396415230500,11.91123046875,1.9719581604003906,-0.2695498466491699,1.1973071098327637
1789402396425156600,11.921156494140625,1.8277137279510498,-0.3010377883911133,0.20889759063720703
1789402396435083000,11.9310830078125,-0.09025144577026367,0.47858715057373047,0.8098812103271484
1789402396445009200,11.941009033203125,-2.277949333190918,1.2036018371582031,2.841366767883301
1789402396454935300,11.950935302734376,-2.8225879669189453,0.42714977264404297,3.840613842010498
1789402396464861400,11.960861328125,-0.937589168548584,-1.183755874633789,2.7330288887023926
1789402396474787600,11.97078759765625,0.7358193397521973,-2.1723122596740723,1.3778419494628906
1789402396484713700,11.980713623046874,1.7919859886169434,-2.106295585632324,-0.805086612701416
1789402396494639900,11.990639892578125,3.0297107696533203,-0.6170673370361328,-1.7190074920654297
1789402396504566300,12.000566162109376,3.6044695377349854,0.7761845588684082,-1.0633625984191895
1789402396514492400,12.010492431640625,2.964763641357422,1.0166642665863037,-0.6346769332885742
1789402396524418600,12.02041845703125,1.0131025314331055,0.370542049407959,-0.5190825462341309
1789402396534344700,12.0303447265625,0.4496726989746094,-0.49129796028137207,-1.1925654411315918
1789402396544271000,12.04027099609375,2.1785178184509277,-0.6107432842254639,-1.3588361740112305
1789402396554197200,12.050197265625,2.281383991241455,0.6689529418945312,0.28537893295288086
1789402396564123400,12.060123291015625,2.269627094268799,0.22417187690734863,0.543419361114502
1789402396574049500,12.070049560546876,3.0498409271240234,-0.16867637634277344,-1.145158290863037
1789402396583975700,12.0799755859375,5.062758445739746,-0.1611318588256836,-3.269592046737671
1789402396593901800,12.08990185546875,8.239832878112793,-0.03126335144042969,-5.208169937133789
1789402396603828000,12.099827880859374,7.372372627258301,1.7981029748916626,-4.639225959777832
1789402396613754400,12.10975439453125,2.492213726043701,2.9181950092315674,-4.078827857971191
1789402396623680500,12.119680419921876,-1.5484628677368164,2.323906898498535,-3.895209550857544
1789402396633606700,12.129606689453125,-0.6704921722412109,1.5203293561935425,-2.054882049560547
1789402396643532800,12.13953271484375,3.5768518447875977,-0.019560575485229492,-0.6183443069458008
1789402396653459000,12.149458984375,4.522309303283691,-1.1764339208602905,-0.985722541809082
1789402396663385000,12.159385009765625,3.1808016300201416,-1.364301323890686,-3.8839874267578125
1789402396673311200,12.169311279296876,1.2592883110046387,-0.2935068607330322,-5.32889986038208
1789402396683237600,12.179237548828125,1.127805233001709,0.11620736122131348,-4.690925121307373
1789402396693163800,12.189163818359376,1.8864612579345703,-0.1278630495071411,-3.290147066116333
1789402396703090000,12.19908984375,2.12211275100708,-0.5536328554153442,-2.347805976867676
1789402396713016000,12.20901611328125,2.1774911880493164,0.21413958072662354,-2.2127370834350586
1789402396722942200,12.218942138671874,1.4419803619384766,0.665919303894043,-1.9820051193237305
1789402396732868400,12.228868408203125,-0.02224874496459961,0.8855161666870117,-1.2476110458374023
1789402396742794800,12.238794677734376,2.435360908508301,-0.29601430892944336,-2.6596860885620117
1789402396752721000,12.248720947265625,4.449359893798828,-2.3093652725219727,-4.766016006469727
1789402396762647000,12.25864697265625,2.153256893157959,-3.321608304977417,-4.704766273498535
1789402396772573200,12.2685732421875,-3.2101736068725586,-2.239325523376465,-1.7130703926086426
1789402396782499300,12.278499267578125,-3.995828151702881,-1.6024088859558105,0.2529892921447754
1789402396792425500,12.288425537109376,-2.5893402099609375,-1.324739933013916,0.9006571769714355
1789402396802351600,12.2983515625,-0.6836872100830078,-1.1899335384368896,0.9803833961486816
1789402396812278000,12.308278076171876,0.36028051376342773,-0.7629258632659912,1.7012577056884766
1789402396822204200,12.3182041015625,-0.6874074935913086,-0.6668426990509033,1.854525089263916
1789402396832130300,12.32813037109375,-1.3376879692077637,-0.6475415229797363,1.5330986976623535
1789402396842056400,12.338056396484374,-0.7425007820129395,-0.8010737895965576,1.2084035873413086
1789402396851982600,12.347982666015625,1.5892081260681152,-1.301649570465088,-0.11334228515625
1789402396861908700,12.35790869140625,2.3603148460388184,-1.0244684219360352,-1.1523857116699219
1789402396871835000,12.3678349609375,0.49149084091186523,-0.15115976333618164,-1.8504667282104492
1789402396881761000,12.377760986328125,-0.7188858985900879,0.7819719314575195,-2.1264634132385254
1789402396891687200,12.387687255859374,-0.6653761863708496,1.582531213760376,-2.2565760612487793
1789402396901613600,12.397613525390625,-0.2635970115661621,1.8588101863861084,-1.391622543334961
1789402396911539700,12.407539794921876,-0.4160804748535156,1.433401107788086,-0.5070891380310059
1789402396921465900,12.4174658203125,1.4801862239837646,0.7633943557739258,0.102783203125
1789402396931392000,12.42739208984375,3.9388887882232666,0.07191753387451172,-0.6645269393920898
1789402396941318100,12.437318115234374,3.5939207077026367,-0.4424705505371094,-1.926955223083496
1789402396951244300,12.447244384765625,-0.5087356567382812,-1.0111594200134277,-1.7902522087097168
1789402396961170700,12.457170654296876,-6.951085090637207,-0.5711913108825684,1.6292505264282227
1789402396971096800,12.467096923828125,-6.116271018981934,-0.1073760986328125,7.045166492462158
1789402396981023000,12.47702294921875,-2.8828375339508057,-1.632075309753418,10.724756240844727
1789402396990949000,12.48694921875,-1.799713134765625,-3.710136890411377,11.42983627319336
1789402397000875300,12.496875244140625,-0.9438328742980957,-4.009008407592773,10.261297225952148
1789402397010801400,12.506801513671874,-0.9564709663391113,-2.683161735534668,9.110389709472656
1789402397020727600,12.5167275390625,0.06946468353271484,-1.2141098976135254,3.9853854179382324
1789402397030653700,12.52665380859375,1.4348087310791016,-0.5512428283691406,-2.368203639984131
1789402397040579800,12.536579833984375,-1.8546724319458008,0.4526510238647461,-4.457842826843262
1789402397050506200,12.54650634765625,-3.8747446537017822,2.2739315032958984,-3.3488998413085938
1789402397060432400,12.556432373046874,-3.0272111892700195,3.146740436553955,-0.010636329650878906
1789402397070358500,12.566358642578125,-1.7596039772033691,1.9613652229309082,2.3157753944396973
1789402397080284700,12.57628466796875,-1.0877633094787598,0.838132381439209,2.919330596923828
1789402397090210800,12.5862109375,1.14278244972229,0.2847719192504883,1.281872272491455
