time,seconds_elapsed,z,y,x
1789402384605543700,0.101543701171875,0.5180133581161499,-0.023212861269712448,0.3549124300479889
1789402384615469800,0.1114697265625,0.4862483739852905,-0.14782927930355072,0.4404335021972656
1789402384625396200,0.121396240234375,0.4172206521034241,-0.2620609998703003,0.5308414697647095
1789402384635322600,0.131322509765625,0.3500255048274994,-0.2987128794193268,0.5986474752426147
1789402384645249000,0.1412490234375,0.29077163338661194,-0.23823726177215576,0.6255255341529846
1789402384655175400,0.151175537109375,0.25411975383758545,-0.12156209349632263,0.5919279456138611
1789402384665101800,0.161101806640625,0.22907429933547974,0.02260199747979641,0.49541133642196655
1789402384675028000,0.171028076171875,0.20708316564559937,0.14233149588108063,0.37690356373786926
1789402384684954400,0.180954345703125,0.18387030065059662,0.20280711352825165,0.26450446248054504
1789402384694880800,0.190880859375,0.1533270627260208,0.20219624042510986,0.16126830875873566
1789402384704807000,0.200806884765625,0.13072505593299866,0.17287473380565643,0.07024945318698883
1789402384714733300,0.2107333984375,0.11178825795650482,0.13561198115348816,-0.000610864779446274
1789402384724659700,0.22065966796875,0.1081230640411377,0.09162971377372742,-0.053756099194288254
1789402384734585900,0.2305859375,0.11728604137897491,0.06780599057674408,-0.0873536616563797
1789402384744512300,0.24051220703125,0.13622283935546875,0.04459312930703163,-0.10018182545900345
1789402384754438700,0.250438720703125,0.16615521907806396,0.020769402384757996,-0.08918625861406326
1789402384764365000,0.260364990234375,0.20402882993221283,0.008552107028663158,-0.05742128938436508
1789402384774291500,0.27029150390625,0.24556763470172882,0.013439024798572063,-0.003665188793092966
1789402384784217900,0.2802177734375,0.29077163338661194,0.027488915249705315,0.06352993845939636
1789402384794144000,0.29014404296875,0.33169957995414734,0.0256563201546669,0.12583814561367035
1789402384804070400,0.3000703125,0.370184063911438,-0.017715077847242355,0.17653992772102356
1789402384813996800,0.309996826171875,0.4043924808502197,-0.0922405794262886,0.22357651591300964
1789402384823923000,0.3199228515625,0.4257727563381195,-0.2009745091199875,0.24801109731197357
1789402384833849300,0.329849365234375,0.4508182108402252,-0.2864955961704254,0.2461785078048706
1789402384843775700,0.339775634765625,0.48502662777900696,-0.3139844834804535,0.23212862014770508
1789402384853702100,0.3497021484375,0.5180133581161499,-0.27855435013771057,0.22235478460788727
1789402384863628300,0.359628173828125,0.5534434914588928,-0.19120067358016968,0.22724169492721558
1789402384873554700,0.3695546875,0.5992583632469177,-0.06352993845939636,0.25411975383758545
1789402384883481000,0.379481201171875,0.6603448390960693,0.06719512492418289,0.3023780584335327
1789402384893407500,0.389407470703125,0.6994401812553406,0.14233149588108063,0.3634645342826843
1789402384903334000,0.399333984375,0.7171552777290344,0.1545487940311432,0.4312705397605896
1789402384913260000,0.409260009765625,0.7159335017204285,0.10323614627122879,0.4819723069667816
1789402384923186400,0.4191865234375,0.7049379348754883,-0.001832594396546483,0.5057960152626038
1789402384933112800,0.42911279296875,0.6933315396308899,-0.11728604137897491,0.4984656572341919
1789402384943039200,0.439039306640625,0.6768381595611572,-0.23212862014770508,0.4508182108402252
1789402384952965400,0.44896533203125,0.6676751971244812,-0.33658650517463684,0.36774060130119324
1789402384962891800,0.458891845703125,0.6652317643165588,-0.40927940607070923,0.26939135789871216
1789402384972818200,0.468818115234375,0.6646208763122559,-0.4367683231830597,0.18325942754745483
1789402384982744300,0.478744384765625,0.66645348072052,-0.43493571877479553,0.11728604137897491
1789402384992670700,0.488670654296875,0.6640099883079529,-0.40317076444625854,0.06963858753442764
1789402385002597000,0.49859716796875,0.6579013466835022,-0.35613417625427246,0.028099779039621353
1789402385012523500,0.5085234375,0.6621774435043335,-0.3176496922969818,0.001221729558892548
1789402385022450000,0.518449951171875,0.6646208763122559,-0.2620609998703003,0.017104214057326317
1789402385032376000,0.5283759765625,0.6640099883079529,-0.185092031955719,0.07391463965177536
1789402385042302500,0.538302490234375,0.6682860851287842,-0.08002328872680664,0.1649334877729416
1789402385052228900,0.548228759765625,0.6768381595611572,0.000610864779446274,0.26878049969673157
1789402385062155300,0.5581552734375,0.6878337264060974,0.020769402384757996,0.3652971386909485
1789402385072081400,0.568081298828125,0.7037162184715271,-0.017715077847242355,0.43860089778900146
1789402385082007800,0.5780078125,0.7263182401657104,-0.0922405794262886,0.48441576957702637
1789402385091934200,0.587934326171875,0.7556397318840027,-0.1545487940311432,0.5119046568870544
1789402385101860400,0.5978603515625,0.7880155444145203,-0.18325942754745483,0.5259546041488647
1789402385111786800,0.607786865234375,0.8118392825126648,-0.16798780858516693,0.5369501113891602
1789402385121713200,0.617713134765625,0.8252783417701721,-0.12705987691879272,0.545502245426178
1789402385131639600,0.6276396484375,0.8045089244842529,-0.0769689604640007,0.5442805290222168
1789402385141566000,0.63756591796875,0.7483093738555908,-0.037262752652168274,0.5131264328956604
1789402385151492400,0.647492431640625,0.6805033683776855,-0.009162971749901772,0.4526508152484894
1789402385161418500,0.65741845703125,0.6126973628997803,-0.024434590712189674,0.3585776388645172
1789402385171345000,0.667344970703125,0.5387827157974243,-0.07391463965177536,0.22846342623233795
1789402385181271300,0.677271240234375,0.47525280714035034,-0.1130099818110466,0.07330377399921417
1789402385191197400,0.687197509765625,0.4422661066055298,-0.10384701192378998,-0.0824667438864708
1789402385201123800,0.697123779296875,0.44348782300949097,-0.033597562462091446,-0.2003636509180069
1789402385211050200,0.70705029296875,0.462424635887146,0.059864748269319534,-0.25045454502105713
1789402385220976400,0.716976318359375,0.4886918365955353,0.15577052533626556,-0.21930044889450073
1789402385230902800,0.72690283203125,0.5216785073280334,0.25473061203956604,-0.12034036219120026
1789402385240829200,0.7368291015625,0.5412262082099915,0.33719736337661743,0.012217295356094837
1789402385250755600,0.746755615234375,0.5467239618301392,0.3707949221134186,0.13683371245861053
1789402385260682000,0.756681884765625,0.545502245426178,0.3597993552684784,0.22785256803035736
1789402385270608400,0.7666083984375,0.5326740741729736,0.2974911332130432,0.2675587832927704
1789402385280534500,0.776534423828125,0.5112938284873962,0.19181154668331146,0.24801109731197357
1789402385290461000,0.7864609375,0.4990765154361725,0.10384701192378998,0.18814635276794434
1789402385300387300,0.79638720703125,0.49602219462394714,0.053756099194288254,0.10995566099882126
1789402385310313500,0.8063134765625,0.49541133642196655,0.02871064469218254,0.03848448023200035
1789402385320239900,0.816239990234375,0.4990765154361725,0.036651886999607086,-0.004276053514331579
1789402385330166300,0.826166259765625,0.5094612240791321,0.07574722915887833,0.0030543238390237093
1789402385340092700,0.8360927734375,0.5222893953323364,0.1594357043504715,0.06719512492418289
1789402385350018800,0.846018798828125,0.5210676789283752,0.25411975383758545,0.1637117564678192
1789402385359945200,0.8559453125,0.49480047821998596,0.31031930446624756,0.2577849328517914
1789402385369871600,0.86587158203125,0.4526508152484894,0.3194822669029236,0.32009315490722656
1789402385379798000,0.875798095703125,0.3897317349910736,0.2932150959968567,0.3243691921234131
1789402385389724400,0.885724365234375,0.31031930446624756,0.23457208275794983,0.2724456787109375
1789402385399650600,0.895650634765625,0.23518294095993042,0.15638138353824615,0.1740964651107788
1789402385409577000,0.905576904296875,0.19120067358016968,0.10873392969369888,0.06719512492418289
1789402385419503400,0.91550341796875,0.19303326308727264,0.1588248461484909,-0.02871064469218254
1789402385429429500,0.925429443359375,0.23212862014770508,0.2730565667152405,-0.10445787757635117
1789402385439356000,0.93535595703125,0.30115634202957153,0.39767298102378845,-0.14049890637397766
1789402385449282300,0.9452822265625,0.39828383922576904,0.4630354940891266,-0.14599667489528656
1789402385459208700,0.955208740234375,0.4917461574077606,0.4276053309440613,-0.1649334877729416
1789402385469135000,0.965135009765625,0.573602020740509,0.3543015718460083,-0.2052505612373352
1789402385479061500,0.9750615234375,0.6438514590263367,0.2510654330253601,-0.23762640357017517
1789402385488987600,0.984987548828125,0.6847794055938721,0.021991131827235222,-0.27427828311920166
1789402385498914000,0.9949140625,0.6988292932510376,-0.2828303873538971,-0.3090975880622864
1789402385508840400,1.00484033203125,0.7373138070106506,-0.5668824911117554,-0.3237583339214325
1789402385518766600,1.0147666015625,0.8197805285453796,-0.721431314945221,-0.28405213356018066
1789402385528693000,1.02469287109375,0.8753692507743835,-0.6817250847816467,-0.19120067358016968
1789402385538619400,1.034619384765625,0.8698714375495911,-0.4923570156097412,-0.0769689604640007
1789402385548545800,1.0445458984375,0.850934624671936,-0.23273947834968567,0.05803215503692627
1789402385558472000,1.054471923828125,0.8283326625823975,0.10995566099882126,0.18692462146282196
1789402385568398300,1.0643984375,0.8381064534187317,0.4410443603992462,0.33047783374786377
1789402385578324700,1.07432470703125,1.2479966878890991,0.8179479241371155,0.6914989352226257
1789402385588251100,1.084251220703125,1.6578869819641113,1.32985258102417,1.0763437747955322
1789402385598177500,1.094177490234375,1.6242893934249878,1.5106686353683472,1.2913681268692017
1789402385608103700,1.104103759765625,1.304807186126709,1.388495683670044,1.2528836727142334
1789402385618030000,1.114030029296875,0.8466585874557495,1.1410953998565674,1.035415768623352
1789402385627956500,1.12395654296875,0.554665207862854,0.7507528066635132,0.8796452879905701
1789402385637882600,1.133882568359375,0.5290089249610901,0.47464191913604736,0.7867938280105591
1789402385647809000,1.14380908203125,0.6200277805328369,0.3946186602115631,0.7159335017204285
1789402385657735400,1.1537353515625,0.7238747477531433,0.43493571877479553,0.6316341757774353
1789402385667661800,1.163661865234375,0.7935133576393127,0.49113526940345764,0.5235111117362976
1789402385677588200,1.173588134765625,0.8112284541130066,0.4862483739852905,0.4172206521034241
1789402385687514600,1.1835146484375,0.7996219992637634,0.3946186602115631,0.3182605504989624
1789402385697440800,1.193440673828125,0.7776308655738831,0.2632827162742615,0.22174391150474548
1789402385707367200,1.2033671875,0.7666352987289429,0.13561198115348816,0.12156209349632263
1789402385717293600,1.21329345703125,0.7312051653862,0.011606430634856224,0.01588248461484909
1789402385727219700,1.2232197265625,0.6554579138755798,-0.12583814561367035,-0.08063415437936783
1789402385737146000,1.23314599609375,0.5839866995811462,-0.24740023910999298,-0.1288924664258957
1789402385747072500,1.243072509765625,0.5326740741729736,-0.3384190797805786,-0.10201441496610641
1789402385756999000,1.2529990234375,0.5137372612953186,-0.3695732057094574,-0.002443459117785096
1789402385766925300,1.26292529296875,0.5210676789283752,-0.29077163338661194,0.13988803327083588
1789402385776851500,1.2728515625,0.5369501113891602,-0.14294235408306122,0.2809978127479553
1789402385786777900,1.28277783203125,0.5351175665855408,-0.020158538594841957,0.4050033390522003
1789402385796704300,1.292704345703125,0.5100721120834351,0.046425722539424896,0.5045742988586426
1789402385806630700,1.302630615234375,0.481361448764801,0.023212861269712448,0.5583304166793823
1789402385816557000,1.31255712890625,0.46486809849739075,-0.07147117704153061,0.5571087002754211
1789402385826483200,1.322483154296875,0.46425724029541016,-0.16676609218120575,0.5186241865158081
1789402385836409600,1.33240966796875,0.46425724029541016,-0.21746785938739777,0.4770853817462921
1789402385846336000,1.3423359375,0.4428769648075104,-0.09346231073141098,0.4428769648075104
1789402385856262400,1.352262451171875,0.3811796307563782,0.015271619893610477,0.40927940607070923
1789402385866188800,1.362188720703125,0.30970844626426697,-0.004276053514331579,0.36651885509490967
1789402385876115000,1.372114990234375,0.2620609998703003,0.037262752652168274,0.33597561717033386
1789402385886041300,1.382041259765625,0.2156352698802948,-0.007941242307424545,0.29626941680908203
1789402385895967700,1.3919677734375,0.19608759880065918,-0.07330377399921417,0.24495677649974823
1789402385905894100,1.40189404296875,0.21807873249053955,-0.143553227186203,0.16004657745361328
1789402385915820500,1.411820556640625,0.2675587832927704,-0.20830489695072174,0.034208428114652634
1789402385925746700,1.42174658203125,0.3084867000579834,-0.2559523284435272,-0.11972949653863907
1789402385935673000,1.431673095703125,0.3237583339214325,-0.31459537148475647,-0.28588470816612244
1789402385945599500,1.441599609375,0.3176496922969818,-0.41294458508491516,-0.44470956921577454
1789402385955526000,1.45152587890625,0.3194822669029236,-0.546113133430481,-0.5864301919937134
1789402385965452000,1.4614521484375,0.34697118401527405,-0.657290518283844,-0.6890554428100586
1789402385975378400,1.47137841796875,0.4221075773239136,-0.6719512343406677,-0.7134900689125061
1789402385985304800,1.481304931640625,0.5094612240791321,-0.5937605500221252,-0.6633991599082947
1789402385995231200,1.491231201171875,0.5711585879325867,-0.5198459029197693,-0.5540543794631958
1789402386005157600,1.50115771484375,0.5998691916465759,-0.4459312856197357,-0.3756818473339081
1789402386015083800,1.511083740234375,0.6023126840591431,-0.3445277214050293,-0.15515965223312378
1789402386025010200,1.52101025390625,0.5913171172142029,-0.24984370172023773,0.06841685622930527
1789402386034936600,1.5309365234375,0.5681042671203613,-0.164322629570961,0.268169641494751
1789402386044863000,1.540863037109375,0.5326740741729736,-0.1386663019657135,0.3995055556297302
1789402386054789400,1.550789306640625,0.49602219462394714,-0.164322629570961,0.4477638900279999
1789402386064715800,1.5607158203125,0.45020735263824463,-0.1698204129934311,0.4172206521034241
1789402386074642000,1.570641845703125,0.4105011224746704,-0.1331685185432434,0.3090975880622864
1789402386084568300,1.580568359375,0.3970620930194855,-0.10567960888147354,0.1441640853881836
1789402386094494700,1.59049462890625,0.41233372688293457,-0.1026252806186676,-0.04459312930703163
1789402386104421000,1.600421142578125,0.4581485986709595,-0.06597339361906052,-0.22357651591300964
1789402386114347500,1.610347412109375,0.5155698657035828,0.03237583488225937,-0.3750709891319275
1789402386124273700,1.620273681640625,0.5491674542427063,0.12034036219120026,-0.5180133581161499
1789402386134200000,1.630199951171875,0.5619956254959106,0.21380266547203064,-0.6200277805328369
1789402386144126500,1.64012646484375,0.5558869242668152,0.3433060050010681,-0.6548470258712769
1789402386154052900,1.650052978515625,0.536339282989502,0.4465421438217163,-0.6371319890022278
1789402386163979300,1.659979248046875,0.5192350745201111,0.48991355299949646,-0.5772672295570374
1789402386173905700,1.66990576171875,0.5180133581161499,0.5100721120834351,-0.4929678738117218
1789402386183831800,1.679831787109375,0.5302306413650513,0.49968740344047546,-0.4068359434604645
1789402386193758200,1.68975830078125,0.5510000586509705,0.4874700903892517,-0.3249800503253937
1789402386203684600,1.6996845703125,0.5681042671203613,0.4465421438217163,-0.25045454502105713
1789402386213611000,1.709611083984375,0.5784889459609985,0.37140578031539917,-0.1692095398902893
1789402386223537400,1.719537353515625,0.5858193039894104,0.3078758418560028,-0.037262752652168274
1789402386233463800,1.7294638671875,0.5790998339653015,0.2712239623069763,0.1496618688106537
1789402386243390000,1.739389892578125,0.5668824911117554,0.2663370370864868,0.3530798554420471
1789402386253316400,1.74931640625,0.5540543794631958,0.28954991698265076,0.5308414697647095
1789402386263242800,1.75924267578125,0.5302306413650513,0.29138249158859253,0.6432406306266785
1789402386273169200,1.769169189453125,0.5314523577690125,0.24312418699264526,0.6737838387489319
1789402386283095600,1.779095458984375,0.5583304166793823,0.143553227186203,0.6126973628997803
1789402386293021700,1.789021728515625,0.5729911923408508,0.001832594396546483,0.4868592321872711
1789402386302948000,1.798947998046875,0.5668824911117554,-0.1539379209280014,0.3329212963581085
1789402386312874500,1.80887451171875,0.5510000586509705,-0.25411975383758545,0.18692462146282196
1789402386322801000,1.81880078125,0.5345066785812378,-0.2779434621334076,0.0873536616563797
1789402386332727300,1.828727294921875,0.5192350745201111,-0.21868959069252014,0.0616973415017128
1789402386342653700,1.83865380859375,0.5076286196708679,-0.10140355676412582,0.10384701192378998
1789402386352579800,1.848579833984375,0.5051851868629456,0.039706211537122726,0.1954767256975174
1789402386362506200,1.85850634765625,0.5094612240791321,0.1899789422750473,0.2938259541988373
1789402386372432600,1.8684326171875,0.5204567909240723,0.3078758418560028,0.3646862804889679
1789402386382359000,1.878359130859375,0.5314523577690125,0.37262752652168274,0.4050033390522003
1789402386392285400,1.888285400390625,0.5393936038017273,0.3799578845500946,0.4312705397605896
1789402386402211600,1.898211669921875,0.5338957905769348,0.35613417625427246,0.4685332775115967
1789402386412138000,1.908137939453125,0.49602219462394714,0.38240134716033936,0.5283980369567871
1789402386422064400,1.918064453125,0.4367683231830597,0.45937031507492065,0.5882627964019775
1789402386431990800,1.92799072265625,0.3652971386909485,0.5235111117362976,0.6261364221572876
1789402386441917200,1.937917236328125,0.2730565667152405,0.5516108870506287,0.6212494969367981
1789402386451843600,1.947843505859375,0.18814635276794434,0.5479456782341003,0.5259546041488647
1789402386461769700,1.957769775390625,0.1331685185432434,0.4770853817462921,0.3121519088745117
1789402386471696100,1.967696044921875,0.10506874322891235,0.33108872175216675,0.023212861269712448
1789402386481622500,1.97762255859375,0.0873536616563797,0.1545487940311432,-0.2816086709499359
1789402386491549000,1.987548828125,0.05436696484684944,0.004276053514331579,-0.5809323787689209
1789402386501475300,1.997475341796875,-0.006108647678047419,-0.13927717506885529,-0.8497129082679749
1789402386511401700,2.007401611328125,-0.05925388261675835,-0.18631376326084137,-0.9804379940032959
1789402386521328000,2.017328125,-0.056810423731803894,0.007941242307424545,-0.870482325553894
1789402386531254500,2.027254638671875,-0.021991131827235222,0.3652971386909485,-0.5662716627120972
1789402386541180700,2.0371806640625,0.02626718580722809,0.6560688018798828,-0.20463970303535461
1789402386551107000,2.047107177734375,0.07574722915887833,0.7519745230674744,0.1178968995809555
1789402386561033500,2.057033447265625,0.13011419773101807,0.6707295179367065,0.36712974309921265
1789402386570960000,2.0669599609375,0.19853104650974274,0.4972439408302307,0.5571087002754211
1789402386580886300,2.07688623046875,0.287106454372406,0.2919933497905731,0.7116574645042419
1789402386590812400,2.0868125,0.3848448097705841,0.1026252806186676,0.8491020202636719
1789402386600738800,2.09673876953125,0.45509424805641174,-0.040317077189683914,1.0079269409179688
1789402386610665200,2.106665283203125,0.4819723069667816,-0.18264856934547424,1.173471212387085
1789402386620591600,2.116591552734375,0.47097674012184143,-0.28466299176216125,1.2956441640853882
1789402386630518000,2.12651806640625,0.4214966893196106,-0.2926042377948761,1.3585633039474487
1789402386640444400,2.1364443359375,0.318871408700943,-0.24556763470172882,1.3536763191223145
1789402386650370800,2.146370849609375,0.18875721096992493,-0.10629047453403473,1.29503333568573
1789402386660297200,2.156297119140625,0.04764745384454727,0.053145237267017365,1.1716386079788208
1789402386670223400,2.166223388671875,-0.08063415437936783,0.08429934084415436,0.9883792400360107
1789402386680149800,2.176149658203125,-0.19303326308727264,-0.04825831577181816,0.739757239818573
1789402386690076200,2.186076171875,-0.2822195291519165,-0.2779434621334076,0.4422661066055298
1789402386700002600,2.19600244140625,-0.3433060050010681,-0.5430588126182556,0.12644900381565094
1789402386709929000,2.205928955078125,-0.38240134716033936,-0.7476984858512878,-0.16126830875873566
1789402386719855400,2.21585546875,-0.38179048895835876,-0.7776308655738831,-0.34636032581329346
1789402386729781800,2.22578173828125,-0.2981020212173462,-0.5925388336181641,-0.3652971386909485
1789402386739708200,2.235708251953125,-0.15210533142089844,-0.35796675086021423,-0.20891575515270233
1789402386749634300,2.24563427734375,-0.03237583488225937,-0.2632827162742615,0.07574722915887833
1789402386759560700,2.255560791015625,0.043982263654470444,-0.3640754222869873,0.45998117327690125
1789402386769487000,2.265487060546875,0.08063415437936783,-0.6010909676551819,0.8491020202636719
1789402386779413500,2.27541357421875,0.08063415437936783,-0.850934624671936,1.130099892616272
1789402386789340000,2.28533984375,0.050090912729501724,-1.0152572393417358,1.3060288429260254
1789402386799266300,2.295266357421875,0.023823726922273636,-1.0861176252365112,1.4227041006088257
1789402386809192400,2.3051923828125,0.028099779039621353,-1.128878116607666,1.527161955833435
1789402386819119000,2.315119140625,0.03909534588456154,-1.204014539718628,1.64566969871521
1789402386829045200,2.325045166015625,0.04153880476951599,-1.36772620677948,1.7806708812713623
1789402386838971600,2.3349716796875,0.017715077847242355,-1.5418226718902588,1.9126176834106445
1789402386848898000,2.34489794921875,0.008552107028663158,-1.6872085332870483,1.9840887784957886
1789402386858824400,2.354824462890625,0.031154103577136993,-1.839924693107605,1.9834779500961304
1789402386868750800,2.364750732421875,0.07452550530433655,-2.103818416595459,1.9388848543167114
1789402386878677200,2.37467724609375,0.4318813979625702,-2.5827362537384033,1.9211697578430176
1789402386888603400,2.384603271484375,1.1441497802734375,-2.9883503913879395,2.0531165599823
1789402386898529800,2.39452978515625,1.472795009613037,-3.236361503601074,2.2950189113616943
1789402386908456200,2.404456298828125,1.6743803024291992,-3.4947574138641357,2.360381603240967
1789402386918382600,2.414382568359375,2.218660831451416,-3.6450300216674805,2.1642940044403076
1789402386928309000,2.42430908203125,2.564410448074341,-3.8185157775878906,1.9639302492141724
1789402386938235400,2.4342353515625,2.7727153301239014,-4.214355945587158,1.7318016290664673
1789402386948161800,2.444161865234375,2.6285512447357178,-5.055516719818115,1.202792763710022
1789402386958088000,2.454087890625,2.6389358043670654,-6.445234298706055,0.6023126840591431
1789402386968014300,2.464014404296875,2.8209736347198486,-6.170956134796143,-0.1130099818110466
1789402386977941000,2.47394091796875,2.9633049964904785,-5.822762966156006,-0.6035344004631042
1789402386987867100,2.4838671875,3.092808485031128,-5.446470260620117,-0.8686497211456299
1789402386997793500,2.49379345703125,3.331045627593994,-4.715265274047852,-1.065959095954895
1789402387007720000,2.503719970703125,3.7708683013916016,-4.1141743659973145,-0.9584468603134155
1789402387017646300,2.513646240234375,4.084852695465088,-3.917475938796997,-0.6493492722511292
1789402387027572700,2.52357275390625,4.1196722984313965,-3.819737434387207,-0.389120876789093
1789402387037499000,2.533498779296875,4.104400634765625,-3.833787441253662,-0.3090975880622864
1789402387047425500,2.543425537109375,4.167319297790527,-4.048811912536621,-0.37812530994415283
1789402387057352000,2.55335205078125,4.250397205352783,-3.9718427658081055,-0.5601630210876465
1789402387067278000,2.563278076171875,4.320035934448242,-3.4910922050476074,-0.8374956250190735
1789402387077204500,2.57320458984375,4.202749729156494,-2.671311616897583,-1.125823736190796
1789402387087131000,2.583130859375,3.97672963142395,-1.8649702072143555,-1.4245367050170898
1789402387097057300,2.593057373046875,3.8484480381011963,-1.1166608333587646,-1.6432262659072876
1789402387106983700,2.602983642578125,3.7537641525268555,-0.6010909676551819,-1.748905897140503
1789402387116910000,2.61291015625,3.6205954551696777,-0.328645259141922,-1.813657522201538
1789402387126836500,2.62283642578125,3.5723371505737305,-0.38789913058280945,-1.7440189123153687
1789402387136762600,2.6327626953125,3.517970323562622,-0.8943060636520386,-1.3182462453842163
1789402387146689000,2.64268896484375,3.2064292430877686,-1.6352850198745728,-0.6609556674957275
1789402387156615400,2.652615478515625,2.7818782329559326,-2.0237951278686523,-0.19914191961288452
1789402387166541800,2.662541748046875,2.523482322692871,-1.8448116779327393,-0.23823726177215576
1789402387176468200,2.67246826171875,2.453843832015991,-1.464242935180664,-0.5479456782341003
1789402387186394600,2.68239453125,2.506989002227783,-0.8906408548355103,-0.9376774430274963
1789402387196321000,2.692321044921875,2.582125425338745,-0.12095122784376144,-1.2614357471466064
1789402387206247400,2.702247314453125,2.5442519187927246,0.6774490475654602,-1.3365721702575684
1789402387216173600,2.712173583984375,2.2974624633789062,1.2009601593017578,-1.1319323778152466
1789402387226100000,2.722099853515625,1.739132046699524,1.2834268808364868,-0.6695078015327454
1789402387236026400,2.7320263671875,1.0671807527542114,1.1123847961425781,-0.10201441496610641
1789402387245952800,2.741952880859375,0.6243038177490234,1.0574069023132324,0.22785256803035736
1789402387255879200,2.751879150390625,0.20952661335468292,0.7422007322311401,0.37751442193984985
1789402387265805600,2.7618056640625,-0.1386663019657135,0.3402516841888428,0.3274235129356384
1789402387275732000,2.77173193359375,-0.4007273018360138,0.11667517572641373,0.06352993845939636
1789402387285658400,2.781658447265625,-0.6059778332710266,0.049480047076940536,-0.32131487131118774
1789402387295584500,2.79158447265625,-0.7483093738555908,-0.05864302068948746,-0.7635809779167175
1789402387305511000,2.801510986328125,-0.8393282294273376,-0.21441353857517242,-1.1612539291381836
1789402387315437300,2.811437255859375,-0.7788525819778442,-0.3536907136440277,-1.349400281906128
1789402387325363700,2.82136376953125,-0.7947350740432739,-0.2706131041049957,-1.390328288078308
1789402387335290000,2.8312900390625,-0.8857539296150208,-0.08002328872680664,-1.3255765438079834
1789402387345216500,2.841216552734375,-0.9718858599662781,-0.03176496922969818,-1.072678565979004
1789402387355143000,2.851142822265625,-0.963333785533905,0.02626718580722809,-0.8087849617004395
1789402387365069300,2.8610693359375,-0.9181297421455383,0.14721840620040894,-0.6829468011856079
1789402387374995500,2.870995361328125,-0.7898481488227844,0.07024945318698883,-0.5986474752426147
1789402387384921900,2.880921875,-0.6212494969367981,-0.3915643095970154,-0.37812530994415283
1789402387394848300,2.89084814453125,-0.3689623177051544,-0.8185588121414185,0.08429934084415436
1789402387404774700,2.900774658203125,-0.16554436087608337,-0.9425643682479858,0.430659681558609
1789402387414701000,2.910701171875,-0.07819069176912308,-0.8979712128639221,0.6652317643165588
1789402387424627500,2.92062744140625,-0.009773836471140385,-0.8484911918640137,0.860708475112915
1789402387434553900,2.930553955078125,0.15210533142089844,-0.6352993845939636,0.952949047088623
1789402387444480300,2.940480224609375,0.337808221578598,-0.3396408259868622,0.9718858599662781
1789402387454406400,2.950406494140625,0.4764745235443115,-0.15638138353824615,0.9553925395011902
1789402387464332000,2.96033203125,0.5510000586509705,-0.2003636509180069,0.9395100474357605
1789402387511342600,3.007342529296875,0.4886918365955353,-0.7415898442268372,1.1789690256118774
1789402387521269000,3.01726904296875,0.3591884970664978,-0.7623592615127563,1.0665699243545532
1789402387531195400,3.0271953125,0.19425499439239502,-0.7159335017204285,0.8210022449493408
1789402387541121800,3.037121826171875,-0.06597339361906052,-0.6047561168670654,0.42882707715034485
1789402387551048000,3.0470478515625,-0.287106454372406,-0.5876519083976746,-0.028099779039621353
1789402387560974300,3.056974365234375,-0.1905898153781891,-0.5852084755897522,-0.35796675086021423
1789402387570900700,3.066900634765625,-0.22235478460788727,-0.2809978127479553,-0.6707295179367065
1789402387580827100,3.0768271484375,-0.3017672002315521,-0.14782927930355072,-0.8185588121414185
1789402387590753500,3.08675341796875,-0.3274235129356384,-0.10629047453403473,-0.8625410795211792
1789402387600680000,3.096679931640625,-0.34086254239082336,-0.11484257876873016,-0.758694052696228
1789402387610606300,3.1066064453125,-0.3591884970664978,-0.17104214429855347,-0.5583304166793823
1789402387620532700,3.11653271484375,-0.3494146466255188,-0.2675587832927704,-0.32009315490722656
1789402387630459000,3.126458984375,-0.3176496922969818,-0.3909534513950348,-0.08063415437936783
1789402387640385300,3.13638525390625,-0.27488914132118225,-0.5253437161445618,0.11606431007385254
1789402387650311700,3.146311767578125,-0.23945899307727814,-0.6096430420875549,0.25900667905807495
1789402387660238000,3.156238037109375,-0.21868959069252014,-0.6023126840591431,0.3481929302215576
1789402387670164500,3.16616455078125,-0.18325942754745483,-0.5314523577690125,0.39828383922576904
1789402387680091000,3.1760908203125,-0.11606431007385254,-0.4557051360607147,0.43371400237083435
1789402387690017300,3.186017333984375,-0.034208428114652634,-0.3970620930194855,0.4728093445301056
1789402387699943700,3.195943603515625,0.03298669680953026,-0.3445277214050293,0.5094612240791321
1789402387709869800,3.205869873046875,0.08429934084415436,-0.3066541254520416,0.536339282989502
1789402387719796200,3.215796142578125,0.15271618962287903,-0.28588470816612244,0.5314523577690125
1789402387729722600,3.22572265625,0.2516762912273407,-0.2883281707763672,0.44348782300949097
1789402387739649000,3.23564892578125,0.4043924808502197,-0.3481929302215576,0.25411975383758545
1789402387749575400,3.245575439453125,0.5204567909240723,-0.42271843552589417,0.040317077189683914
1789402387759501800,3.255501708984375,0.5485565662384033,-0.44837474822998047,-0.1026252806186676
1789402387769428200,3.26542822265625,0.5277871489524841,-0.40317076444625854,-0.18325942754745483
1789402387779354400,3.275354248046875,0.4825831651687622,-0.37629270553588867,-0.20158538222312927
1789402387789280800,3.28528076171875,0.3958403766155243,-0.32131487131118774,-0.2101374864578247
1789402387799207200,3.295207275390625,0.3530798554420471,-0.09651663154363632,-0.2663370370864868
1789402387809133600,3.305133544921875,0.36163195967674255,-0.012217295356094837,-0.2614501118659973
1789402387819060000,3.31506005859375,0.35674503445625305,0.03298669680953026,-0.2932150959968567
1789402387828986400,3.324986328125,0.3860665261745453,0.06963858753442764,-0.3481929302215576
1789402387838912800,3.334912841796875,0.41294458508491516,0.0818558782339096,-0.36163195967674255
1789402387848839000,3.3448388671875,0.40805765986442566,0.09162971377372742,-0.3298669755458832
1789402387858765300,3.354765380859375,0.370184063911438,0.056199558079242706,-0.2467893660068512
1789402387868691700,3.364691650390625,0.3017672002315521,0.012217295356094837,-0.13194678723812103
1789402387878618000,3.3746181640625,0.20769402384757996,-0.03176496922969818,-0.013439024798572063
1789402387888544500,3.38454443359375,0.11484257876873016,-0.08307760953903198,0.09529490768909454
1789402387898471000,3.394470947265625,0.014660755172371864,-0.1441640853881836,0.18814635276794434
1789402387908397000,3.40439697265625,-0.08429934084415436,-0.2101374864578247,0.27000224590301514
1789402387918323500,3.414323486328125,-0.15515965223312378,-0.2663370370864868,0.34208428859710693
1789402387928249900,3.424249755859375,-0.19181154668331146,-0.31154105067253113,0.4068359434604645
1789402387938176300,3.43417626953125,-0.2101374864578247,-0.3591884970664978,0.45448338985443115
1789402387948102700,3.4441025390625,-0.22968515753746033,-0.39339691400527954,0.4838049113750458
1789402387958029000,3.454029052734375,-0.277332603931427,-0.35796675086021423,0.5155698657035828
1789402387967955500,3.46395556640625,-0.328645259141922,-0.2370155304670334,0.5473348498344421
1789402387977881900,3.4738818359375,-0.3347539007663727,-0.06841685622930527,0.5571087002754211
1789402387987808000,3.48380810546875,-0.287106454372406,0.10995566099882126,0.5180133581161499
1789402387997734400,3.493734375,-0.19792018830776215,0.2968802750110626,0.4324922561645508
1789402388007660800,3.503660888671875,-0.06475166976451874,0.43860089778900146,0.31642794609069824
1789402388017587200,3.513587158203125,0.07574722915887833,0.5009090900421143,0.19303326308727264
1789402388027513600,3.523513671875,0.20891575515270233,0.49480047821998596,0.09162971377372742
1789402388037440000,3.53343994140625,0.3384190797805786,0.43860089778900146,0.03787361457943916
1789402388047366100,3.5433662109375,0.45448338985443115,0.35674503445625305,0.03176496922969818
1789402388057292500,3.55329248046875,0.5632173418998718,0.29077163338661194,0.07574722915887833
1789402388067219000,3.563218994140625,0.6682860851287842,0.28954991698265076,0.16249002516269684
1789402388077145300,3.573145263671875,0.7440332770347595,0.34208428859710693,0.27488914132118225
1789402388087071700,3.58307177734375,0.7452550530433655,0.3811796307563782,0.3836230933666229
1789402388096998100,3.592998046875,0.675616443157196,0.41294458508491516,0.46547895669937134
1789402388106924500,3.602924560546875,0.5876519083976746,0.4789179861545563,0.5253437161445618
1789402388116851000,3.612850830078125,0.44959646463394165,0.5290089249610901,0.5351175665855408
1789402388126777000,3.622777099609375,0.3029889166355133,0.4630354940891266,0.4984656572341919
1789402388136703500,3.632703369140625,0.16126830875873566,0.26878049969673157,0.4459312856197357
1789402388146630000,3.6426298828125,0.06108647957444191,0.002443459117785096,0.4043924808502197
1789402388156556300,3.652556396484375,0.06719512492418289,-0.13927717506885529,0.3347539007663727
1789402388166482700,3.662482666015625,0.04153880476951599,-0.17592905461788177,0.3652971386909485
1789402388176408800,3.672408935546875,-0.030543239787220955,-0.44348782300949097,0.6010909676551819
1789402388186335200,3.682335205078125,-0.028099779039621353,-0.4214966893196106,0.7171552777290344
1789402388196261600,3.69226171875,0.3066541254520416,0.03909534588456154,0.42271843552589417
1789402388206188000,3.70218798828125,0.17348559200763702,0.40805765986442566,0.9847140312194824
1789402388216114400,3.712114501953125,0.003665188793092966,1.0177006721496582,1.8655810356140137
1789402388226040800,3.722040771484375,0.09896009415388107,0.4935787320137024,1.6395610570907593
1789402388235967200,3.73196728515625,0.06841685622930527,-0.4935787320137024,1.110552191734314
1789402388245893600,3.7418935546875,-0.15271618962287903,-0.46425724029541016,1.284037709236145
1789402388255819800,3.75181982421875,-0.16126830875873566,-0.11239911615848541,1.480736255645752
1789402388265746200,3.76174609375,-0.22846342623233795,0.11606431007385254,1.8277074098587036
1789402388275672600,3.771672607421875,-0.3799578845500946,-0.04276053607463837,2.3261730670928955
1789402388285599000,3.781598876953125,-0.3652971386909485,-0.962722897529602,1.5308271646499634
1789402388295525400,3.791525390625,-0.46425724029541016,-1.7751730680465698,0.5009090900421143
1789402388305451800,3.80145166015625,-0.7757982611656189,-1.2986985445022583,0.4776962697505951
1789402388315378000,3.8113779296875,-0.6181951761245728,-0.26878049969673157,0.740368127822876
1789402388325304300,3.82130419921875,-0.2883281707763672,0.09651663154363632,0.43982264399528503
1789402388335230700,3.831230712890625,-0.05253437161445618,0.3494146466255188,0.1539379209280014
1789402388345157000,3.8411572265625,0.11606431007385254,1.0580178499221802,0.411722868680954
1789402388355083500,3.85108349609375,0.2993237376213074,1.9901974201202393,1.0458004474639893
1789402388365009700,3.861009765625,0.21868959069252014,1.5149446725845337,0.6414080262184143
1789402388374936000,3.87093603515625,-0.04276053607463837,0.9541707634925842,0.1747073233127594
1789402388384862500,3.880862548828125,-0.4153880476951599,1.2815942764282227,0.9810488224029541
1789402388394788900,3.890788818359375,-0.5925388336181641,1.7006475925445557,2.4459025859832764
1789402388404715300,3.90071533203125,-0.3347539007663727,0.94439697265625,2.8845036029815674
1789402388414641700,3.9106416015625,0.2370155304670334,-1.0775654315948486,1.5968005657196045
1789402388424567800,3.92056787109375,0.4508182108402252,-1.7825034856796265,0.12095122784376144
1789402388434494200,3.930494140625,0.35185810923576355,-1.1142174005508423,-0.277332603931427
1789402388444420600,3.940420654296875,0.014660755172371864,-0.6181951761245728,-1.0079269409179688
1789402388454347000,3.950346923828125,-0.235793799161911,0.28466299176216125,-1.186299443244934
1789402388464273400,3.9602734375,-0.3946186602115631,0.8955277800559998,-1.1349867582321167
1789402388474199800,3.97019970703125,-0.39828383922576904,0.7220421433448792,-1.0225876569747925
1789402388484126200,3.980126220703125,-0.3396408259868622,-0.09407317638397217,-0.7574723362922668
1789402388494052600,3.990052490234375,-0.5400044918060303,-1.109330415725708,-0.2712239623069763
1789402388503978800,3.999978759765625,-0.916297197341919,-1.7446298599243164,0.20280711352825165
1789402388513905200,4.0099052734375,-0.9517273306846619,-2.13191819190979,0.4105011224746704
1789402388523831600,4.01983154296875,-0.8368847370147705,-2.34694242477417,0.1539379209280014
1789402388533758000,4.029758056640625,-0.637742817401886,-3.1105234622955322,-0.778241753578186
1789402388543684400,4.039684326171875,-0.4459312856197357,-3.12396240234375,-1.6420044898986816
1789402388553610500,4.049610595703125,0.27000224590301514,-2.1563527584075928,-2.0806055068969727
1789402388563537000,4.059536865234375,1.1227694749832153,-1.2791508436203003,-1.9889757633209229
1789402388573463300,4.06946337890625,1.5955787897109985,-0.7257073521614075,-1.2461642026901245
1789402388583389700,4.0793896484375,1.6249003410339355,-1.1447606086730957,-0.4324922561645508
1789402388593316000,4.089316162109375,1.2143992185592651,-2.0024147033691406,0.1588248461484909
1789402388603242500,4.099242431640625,0.7611374855041504,-2.4764459133148193,0.5412262082099915
1789402388613169000,4.1091689453125,0.38728827238082886,-2.3909246921539307,0.5729911923408508
1789402388623095300,4.11909521484375,0.3139844834804535,-1.5968005657196045,0.3298669755458832
1789402388633021400,4.129021484375,0.3897317349910736,-0.5338957905769348,-0.04764745384454727
1789402388642947800,4.13894775390625,0.5277871489524841,0.3750709891319275,-0.39339691400527954
1789402388652874200,4.148874267578125,0.657290518283844,0.9602794051170349,-0.574212908744812
1789402388662800600,4.158800537109375,0.8967494964599609,1.2779290676116943,-0.5962040424346924
1789402388672727000,4.16872705078125,1.0567960739135742,1.6077960729599,-0.6194168925285339
1789402388682653400,4.1786533203125,1.08978271484375,2.045175313949585,-0.7073814272880554
1789402388692579600,4.18857958984375,0.9969313144683838,2.0977096557617188,-0.9590576887130737
1789402388702506000,4.198506103515625,0.6218603253364563,1.7189735174179077,-1.2143992185592651
1789402388712432400,4.208432373046875,-0.004886918235570192,0.9468404054641724,-1.3829978704452515
1789402388722358800,4.21835888671875,-0.6976075768470764,0.1588248461484909,-1.5735876560211182
1789402388732285200,4.22828515625,-1.2034035921096802,-0.053756099194288254,-1.7299690246582031
1789402388742211300,4.23821142578125,-1.3548980951309204,0.25900667905807495,-1.6969823837280273
1789402388752137700,4.2481376953125,-1.3255765438079834,0.7794634699821472,-1.4343105554580688
1789402388762064100,4.258064208984375,-0.9993748068809509,1.265711784362793,-0.9944878816604614
1789402388771990500,4.267990478515625,-0.6890554428100586,1.5894701480865479,-0.4886918365955353
1789402388781917000,4.2779169921875,-0.9468404054641724,1.2302817106246948,0.08674279600381851
1789402388791843300,4.28784326171875,-1.6603304147720337,-0.12705987691879272,0.9211840629577637
1789402388801769500,4.29776953125,-1.8997894525527954,-1.4660754203796387,1.3658936023712158
1789402388811695900,4.30769580078125,-1.72141695022583,-1.656665325164795,1.3548980951309204
1789402388821622300,4.317622314453125,-1.545487880706787,-0.7733548283576965,1.3304635286331177
1789402388831548700,4.327548583984375,-1.4587451219558716,-0.2577849328517914,1.499062180519104
1789402388841475000,4.33747509765625,-1.4233149290084839,-0.17104214429855347,1.693317174911499
1789402388851401500,4.3474013671875,-1.5406010150909424,0.001221729558892548,1.897346019744873
1789402388861328000,4.357327880859375,-2.0476186275482178,0.27855435013771057,2.0354013442993164
1789402388871254300,4.367254150390625,-2.7696609497070312,0.030543239787220955,2.067166328430176
1789402388881180400,4.377180419921875,-2.4214680194854736,0.5583304166793823,2.1832306385040283
1789402388891106800,4.38710693359375,-0.036651886999607086,4.922348499298096,2.1392483711242676
1789402388901033200,4.397033203125,-0.8100066781044006,9.430530548095703,0.9358448386192322
1789402388910959600,4.406959716796875,-1.556483507156372,9.430530548095703,0.29565855860710144
1789402388920886000,4.416885986328125,-1.8753548860549927,5.913171291351318,0.08552107214927673
1789402388930812200,4.426812255859375,-2.0415101051330566,2.3958115577697754,0.2724456787109375
1789402388940738600,4.436738525390625,-1.9437717199325562,0.2993237376213074,1.0751219987869263
1789402388950665000,4.4466650390625,-1.2974767684936523,0.20647229254245758,1.9217805862426758
1789402388960591400,4.45659130859375,-0.39217519760131836,1.694538950920105,2.4740023612976074
1789402388970517800,4.466517822265625,0.3042106628417969,3.7128360271453857,2.8234169483184814
1789402388980444200,4.476444091796875,0.37629270553588867,5.275428295135498,2.9724678993225098
1789402388990370300,4.486370361328125,-0.12217295914888382,5.349953651428223,2.878394842147827
1789402389000296700,4.496296630859375,-0.360410213470459,4.519177436828613,2.3481643199920654
1789402389010223000,4.50622314453125,-0.5913171172142029,4.9553351402282715,1.666439175605774
1789402389020149500,4.5161494140625,-0.952949047088623,6.510596752166748,0.7574723362922668
1789402389030076000,4.526075927734375,-1.2143992185592651,7.346260070800781,-0.43860089778900146
1789402389040002300,4.536002197265625,-1.4062107801437378,7.304720878601074,-1.255937933921814
1789402389049928400,4.545928466796875,-1.4282019138336182,6.41530179977417,-1.64566969871521
1789402389059854800,4.555854736328125,-1.2143992185592651,4.627911567687988,-1.9657628536224365
1789402389069781200,4.56578125,-0.7660244107246399,2.4568982124328613,-2.500880479812622
1789402389079707600,4.575707763671875,-0.08796452730894089,0.32131487131118774,-3.3438737392425537
1789402389089634000,4.585634033203125,0.7037162184715271,-1.8839069604873657,-4.498408317565918
1789402389099560200,4.595560302734375,1.469740629196167,-4.08424186706543,-5.674933910369873
1789402389109486600,4.605486572265625,2.0720534324645996,-5.7543463706970215,-6.666978359222412
1789402389119413000,4.6154130859375,2.3848161697387695,-7.010284423828125,-7.563727855682373
1789402389129339400,4.62533935546875,2.329838275909424,-7.764091491699219,-8.46780776977539
1789402389139265800,4.635265869140625,2.0781619548797607,-7.462324142456055,-9.380439758300781
1789402389149192200,4.645192138671875,1.72141695022583,-6.042674541473389,-9.803157806396484
1789402389159118600,4.65511865234375,1.2241730690002441,-4.201528072357178,-9.525825500488281
1789402389169045000,4.665044921875,0.831997811794281,-2.3982551097869873,-8.680388450622559
1789402389178971100,4.67497119140625,0.2968802750110626,-1.3768892288208008,-7.345037937164307
1789402389188897500,4.6848974609375,-0.4068359434604645,-1.29503333568573,-5.269319534301758
1789402389198824000,4.694823974609375,-1.2119556665420532,-1.684765100479126,-2.844186305999756
1789402389208750300,4.704750244140625,-2.114813804626465,-2.204000234603882,-0.2406807243824005
1789402389218676700,4.7146767578125,-2.852738618850708,-3.011563301086426,2.274860382080078
1789402389228603100,4.72460302734375,-3.2314746379852295,-3.870439291000366,4.188088893890381
1789402389238529300,4.734529296875,-3.204596519470215,-4.422660827636719,5.374388217926025
1789402389248455700,4.74445556640625,-2.835634231567383,-4.2345147132873535,5.9950270652771
1789402389258382000,4.754382080078125,-2.20155668258667,-3.3744170665740967,6.1624040603637695
1789402389268308500,4.76430859375,-1.4770710468292236,-2.2528693675994873,5.78366756439209
1789402389278235000,4.77423486328125,-0.9016364216804504,-1.3915499448776245,4.893026828765869
1789402389288161000,4.7841611328125,-0.44348782300949097,-1.2119556665420532,2.8845036029815674
1789402389298087400,4.79408740234375,0.0977383628487587,-1.7568471431732178,-0.544891357421875
1789402389308013800,4.804013916015625,0.23212862014770508,-0.5571087002754211,-1.1496474742889404
1789402389317940200,4.813940185546875,0.09407317638397217,0.18203771114349365,-0.7061597108840942
1789402389327866600,4.82386669921875,0.009773836471140385,0.5583304166793823,0.4459312856197357
1789402389337793000,4.83379296875,-0.22357651591300964,-0.02932151034474373,1.897346019744873
1789402389347719200,4.84371923828125,-0.4251618981361389,-0.9358448386192322,2.3738205432891846
1789402389357645600,4.8536455078125,-0.574212908744812,-1.6713260412216187,2.651153087615967
1789402389367572000,4.863572021484375,-0.7086031436920166,-2.1832306385040283,2.9077162742614746
1789402389377498400,4.873498291015625,-0.7709113359451294,-1.9792019128799438,2.880838394165039
1789402389387424800,4.8834248046875,-0.6976075768470764,-1.3744457960128784,2.670700788497925
1789402389397351000,4.893350830078125,-0.627968966960907,-0.0977383628487587,2.2174391746520996
1789402389407277300,4.90327734375,-0.6560688018798828,1.2339468002319336,1.4282019138336182
1789402389417204000,4.913203857421875,-0.21868959069252014,0.84177166223526,1.1398736238479614
1789402389427130000,4.923130126953125,0.001221729558892548,0.5057960152626038,1.5687007904052734
1789402389437056500,4.933056396484375,0.017104214057326317,-0.5949822664260864,1.4538581371307373
1789402389446983000,4.94298291015625,-0.16615521907806396,-0.5668824911117554,1.987753987312317
1789402389456909300,4.952909423828125,-0.46914416551589966,-0.42271843552589417,2.7000222206115723
1789402389466835700,4.962835693359375,-0.2260199636220932,-0.4935787320137024,1.8142683506011963
1789402389476761900,4.972761962890625,0.318871408700943,0.16859868168830872,1.4868448972702026
1789402389486688300,4.982688232421875,0.30543237924575806,0.7244856357574463,1.351232886314392
1789402389496614700,4.99261474609375,0.1331685185432434,0.7037162184715271,1.3023637533187866
1789402389506541000,5.002541015625,0.06108647957444191,0.3995055556297302,1.3255765438079834
1789402389516467500,5.012467529296875,-0.07819069176912308,0.16126830875873566,1.3487894535064697
1789402389526393900,5.022393798828125,-0.3249800503253937,-0.10873392969369888,1.362228512763977
1789402389536320000,5.032320068359375,-0.4410443603992462,-0.2614501118659973,1.196073293685913
1789402389546246400,5.042246337890625,-0.4276053309440613,-0.11728604137897491,0.9004147052764893
1789402389556172800,5.0521728515625,-0.45326167345046997,-0.050090912729501724,0.7415898442268372
1789402389566099200,5.06209912109375,-0.401949018239975,-0.3078758418560028,0.5949822664260864
1789402389576025600,5.072025634765625,-0.45937031507492065,-0.7476984858512878,0.4789179861545563
1789402389585951700,5.08195166015625,-0.5693259835243225,-1.0079269409179688,0.44959646463394165
1789402389595878100,5.091878173828125,-0.6707295179367065,-1.4025455713272095,0.5057960152626038
1789402389605804500,5.101804443359375,-0.6511818766593933,-1.8460333347320557,0.287106454372406
1789402389615731000,5.11173095703125,-0.5717694163322449,-1.8179335594177246,-0.29077163338661194
1789402389625657300,5.1216572265625,-0.013439024798572063,-2.1551308631896973,-0.685390293598175
1789402389635583700,5.131583740234375,0.5033525824546814,-2.9016077518463135,-0.9211840629577637
1789402389645510000,5.141510009765625,1.1777472496032715,-3.4025168418884277,-1.0128138065338135
1789402389655436300,5.151436279296875,1.7727296352386475,-3.4990334510803223,-0.8820887207984924
1789402389665362700,5.16136279296875,2.118479013442993,-3.1483969688415527,-0.43004879355430603
1789402389675289000,5.1712890625,1.8704679012298584,-2.503323793411255,-0.06108647957444191
1789402389685215500,5.181215576171875,1.422093152999878,-2.0109667778015137,-0.4728093445301056
1789402389695142000,5.191141845703125,1.1618647575378418,-1.4758492708206177,-1.0018181800842285
1789402389705068000,5.201068115234375,0.7745765447616577,-0.5827649831771851,-0.9957095980644226
1789402389714994400,5.210994384765625,0.4728093445301056,-0.2406807243824005,-0.6633991599082947
1789402389724920800,5.2209208984375,0.4276053309440613,-0.4789179861545563,-0.29443681240081787
1789402389734847200,5.23084716796875,0.7147117853164673,-0.7990111112594604,0.06230820715427399
1789402389744773600,5.240773681640625,1.5198315382003784,-0.8539889454841614,0.3249800503253937
1789402389754699800,5.25069970703125,2.7061309814453125,-0.4862483739852905,0.37140578031539917
1789402389764626200,5.260626220703125,3.8484480381011963,0.21380266547203064,0.3029889166355133
1789402389774552600,5.270552490234375,4.882031440734863,1.2082905769348145,0.3029889166355133
1789402389784479000,5.28047900390625,5.367057800292969,2.3652684688568115,0.3799578845500946
1789402389794405400,5.2904052734375,5.436696529388428,3.282787322998047,0.4459312856197357
1789402389804331800,5.300331787109375,4.437321662902832,3.3072218894958496,0.3689623177051544
1789402389814258000,5.3102578125,2.4911065101623535,2.917490243911743,0.2565632164478302
1789402389824184300,5.320184326171875,1.4379756450653076,2.342055559158325,-0.44837474822998047
1789402389834110700,5.33011083984375,1.1777472496032715,1.7812817096710205,-0.9883792400360107
1789402389844037000,5.340037109375,1.314581036567688,1.2596031427383423,-1.1313215494155884
1789402389853963500,5.349963623046875,1.4123194217681885,0.8845322132110596,-1.1362085342407227
1789402389863889700,5.3598896484375,1.3585633039474487,0.370184063911438,-1.0164790153503418
1789402389873816000,5.369816162109375,1.2705987691879272,-0.1490510106086731,-0.833219587802887
1789402389883742500,5.379742431640625,1.147204041481018,-0.5241219997406006,-0.6817250847816467
1789402389893668900,5.3896689453125,0.8979712128639221,-0.6707295179367065,-0.5619956254959106
1789402389903595300,5.39959521484375,0.4740310609340668,-0.8735366463661194,-0.3787361681461334
1789402389913521700,5.409521728515625,-0.09896009415388107,-1.3866630792617798,-0.22357651591300964
1789402389923447800,5.41944775390625,-0.7525854110717773,-1.7067562341690063,-0.43982264399528503
1789402389933374200,5.429374267578125,-1.5589269399642944,-2.2980732917785645,-0.8552106618881226
1789402389943300600,5.439300537109375,-2.221104383468628,-2.494771718978882,-1.2999202013015747
1789402389953227000,5.44922705078125,-2.455676317214966,-2.2394301891326904,-1.3023637533187866
1789402389963153400,5.4591533203125,-2.5973970890045166,-1.5919135808944702,-1.2290599346160889
1789402389973079600,5.46907958984375,-3.1593925952911377,-1.0238093137741089,-0.8759800791740417
1789402389983006000,5.479005859375,-3.392742872238159,-1.9083415269851685,-0.5962040424346924
1789402389992932400,5.488932373046875,-2.1868958473205566,-1.2449424266815186,0.3176496922969818
1789402390002858800,5.498858642578125,-0.40927940607070923,-0.0769689604640007,0.7538071274757385
1789402390012785200,5.50878515625,0.31520622968673706,0.7195987105369568,0.27855435013771057
1789402390022711600,5.518711669921875,0.31642794609069824,1.29503333568573,-0.3042106628417969
1789402390032637700,5.5286376953125,0.06841685622930527,1.6859867572784424,-0.5876519083976746
1789402390042564000,5.538564208984375,-0.24312418699264526,1.7788382768630981,-0.6511818766593933
1789402390052490500,5.548490478515625,-0.5778780579566956,1.5234967470169067,-0.6462949514389038
1789402390062417000,5.5584169921875,-0.998153030872345,1.117882490158081,-0.5241219997406006
1789402390072343300,5.56834326171875,-1.0201442241668701,0.6805033683776855,-0.5155698657035828
1789402390082269700,5.578269775390625,0.4972439408302307,-0.07941242307424545,-0.7134900689125061
1789402390092195800,5.58819580078125,1.1740821599960327,-0.6023126840591431,-0.38850998878479004
1789402390102122200,5.598122314453125,1.0775654315948486,-0.4581485986709595,0.13561198115348816
1789402390112048600,5.608048583984375,1.0445787906646729,-0.23335035145282745,0.401949018239975
1789402390121975000,5.61797509765625,1.480736255645752,0.10751219838857651,0.5705476999282837
1789402390131901200,5.627901123046875,1.7690644264221191,-0.3029889166355133,0.7024945020675659
1789402390141827600,5.63782763671875,1.9132285118103027,-1.033583164215088,0.8710931539535522
1789402390151754000,5.64775390625,2.564410448074341,-1.5943571329116821,0.8881973624229431
1789402390161680400,5.657680419921875,3.152062177658081,-1.5100576877593994,0.685390293598175
1789402390171606800,5.667606689453125,2.748891592025757,-0.536339282989502,0.4630354940891266
1789402390181533000,5.677532958984375,1.5809180736541748,0.31154105067253113,0.370184063911438
1789402390191459300,5.687459228515625,-0.021991131827235222,0.46059203147888184,-0.007330377586185932
1789402390201385700,5.6973857421875,-1.119104266166687,1.2449424266815186,-0.9334014058113098
1789402390211312000,5.70731201171875,-0.08796452730894089,2.981020212173462,-1.525940179824829
1789402390221238500,5.717238525390625,0.7293725609779358,2.4287984371185303,-1.6407828330993652
1789402390231164700,5.72716455078125,0.6010909676551819,0.8906408548355103,-1.6505566835403442
1789402390241091000,5.737091064453125,0.48013970255851746,-0.06963858753442764,-1.5027273893356323
1789402390251017500,5.747017578125,-0.33719736337661743,-0.8625410795211792,-2.249204158782959
1789402390260944000,5.75694384765625,-0.6120865345001221,-1.3292417526245117,-2.557080030441284
1789402390270870300,5.766870361328125,0.22479823231697083,1.5662572383880615,-2.0549490451812744
1789402390280796700,5.776796630859375,1.4538581371307373,4.051255226135254,-0.21135921776294708
1789402390290722800,5.786722900390625,2.5277583599090576,2.6865832805633545,0.37751442193984985
1789402390300649200,5.796649169921875,3.5833327770233154,0.6365211009979248,0.13194678723812103
1789402390310575600,5.80657568359375,4.423882961273193,-0.06719512492418289,-0.4007273018360138
1789402390320502000,5.816501953125,4.73786735534668,0.10629047453403473,-1.0787872076034546
1789402390330428400,5.826428466796875,4.439765453338623,-0.7061597108840942,-1.7849469184875488
1789402390340354600,5.8363544921875,4.069581031799316,-1.527161955833435,-2.1807873249053955
1789402390350281000,5.846281005859375,4.079354763031006,-1.4306453466415405,-2.318842649459839
1789402390360207000,5.85620703125,3.872882604598999,-1.7140865325927734,-2.487441301345825
1789402390370133500,5.866133544921875,3.020115375518799,-1.839924693107605,-2.450789451599121
1789402390380060000,5.876059814453125,1.907119870185852,-1.2449424266815186,-2.064723014831543
1789402390389986000,5.885986083984375,0.8723149299621582,-0.5106829404830933,-1.4734058380126953
1789402390399912400,5.895912353515625,0.08307760953903198,0.19669845700263977,-0.9334014058113098
1789402390409838800,5.9058388671875,-0.39339691400527954,0.6181951761245728,-0.5302306413650513
1789402390419765000,5.915764892578125,-0.7855721116065979,0.7990111112594604,-0.33108872175216675
1789402390429691400,5.92569140625,-1.2241730690002441,0.7745765447616577,-0.411722868680954
1789402390439617800,5.93561767578125,-1.750738501548767,0.6145299673080444,-0.6267472505569458
1789402390449544000,5.9455439453125,-2.2760822772979736,0.42394015192985535,-0.8967494964599609
1789402390459470300,5.95547021484375,-2.8124215602874756,0.3750709891319275,-1.043357014656067
1789402390469396700,5.965396728515625,-3.101971387863159,0.685390293598175,-0.7904590368270874
1789402390479323100,5.9753232421875,-3.132514476776123,1.304807186126709,-0.18570289015769958
1789402390489249500,5.98524951171875,-3.2229225635528564,2.1526875495910645,0.31154105067253113
1789402390499176000,5.995176025390625,-3.6089890003204346,2.9443681240081787,0.3652971386909485
1789402390509102000,6.00510205078125,-4.024377346038818,3.210705280303955,0.10995566099882126
1789402390519028500,6.015028564453125,-4.034151077270508,3.1984879970550537,-0.004886918235570192
1789402390528955000,6.024954833984375,-3.8912086486816406,3.1532840728759766,0.03176496922969818
1789402390538881300,6.03488134765625,-3.6896233558654785,2.7867650985717773,-0.13927717506885529
1789402390548807700,6.0448076171875,-3.4293949604034424,2.3322818279266357,-0.41783151030540466
1789402390558733800,6.05473388671875,-3.31333065032959,1.8057162761688232,-0.7855721116065979
1789402390568660200,6.06466015625,-3.3548693656921387,1.5015056133270264,-1.2400555610656738
1789402390578586600,6.074586669921875,-3.0860888957977295,1.2779290676116943,-1.5112794637680054
1789402390588513000,6.084512939453125,-2.52042818069458,0.9773836731910706,-1.5515965223312378
1789402390598439400,6.094439453125,-2.442237377166748,0.5436696410179138,-1.528383731842041
1789402390608365800,6.10436572265625,-2.003636360168457,0.15149445831775665,-1.5210533142089844
1789402390618292000,6.1142919921875,-1.4489712715148926,-0.318871408700943,-1.527161955833435
1789402390628218400,6.12421826171875,-1.1875211000442505,-0.5974257588386536,-1.50028395652771
1789402390638144800,6.134144775390625,-1.0739002227783203,-0.6218603253364563,-1.3548980951309204
1789402390648071200,6.1440712890625,-0.9297361969947815,-0.7513636946678162,-1.0348049402236938
1789402390657997600,6.15399755859375,-0.6462949514389038,-1.0653481483459473,-0.5351175665855408
1789402390667924000,6.163924072265625,-0.2406807243824005,-1.4819579124450684,-0.20158538222312927
1789402390677850000,6.17385009765625,-0.028099779039621353,-2.392146587371826,-0.6890554428100586
1789402390687776500,6.183776611328125,-0.3274235129356384,-3.034776210784912,-1.1728603839874268
1789402390697703000,6.193702880859375,-0.778241753578186,-2.867399215698242,-1.2510510683059692
1789402390707629300,6.20362939453125,-1.0164790153503418,-2.1868958473205566,-1.0164790153503418
1789402390717555700,6.2135556640625,-0.9419534802436829,-1.3732240200042725,-0.6780598759651184
1789402390727481900,6.22348193359375,-0.6120865345001221,-0.7990111112594604,-0.4984656572341919
1789402390737408300,6.233408203125,-0.2406807243824005,-0.4471530318260193,-0.5558869242668152
1789402390747334700,6.243334716796875,-0.05497783049941063,-0.19303326308727264,-0.6866120100021362
1789402390757261000,6.253260986328125,-0.006108647678047419,0.12583814561367035,-0.7024945020675659
1789402390767187500,6.2631875,0.059864748269319534,0.5583304166793823,-0.46914416551589966
1789402390777113900,6.27311376953125,0.19303326308727264,1.0225876569747925,-0.13927717506885529
1789402390787040000,6.2830400390625,0.3274235129356384,1.2522728443145752,0.08307760953903198
1789402390796966400,6.29296630859375,0.4410443603992462,1.1252129077911377,0.20402882993221283
1789402390806892800,6.302892822265625,0.5485565662384033,0.7440332770347595,0.2626718580722809
1789402390816819200,6.312819091796875,0.6218603253364563,0.34574946761131287,0.2528980076313019
1789402390826745600,6.32274560546875,0.7000510096549988,0.18570289015769958,0.3176496922969818
1789402390836671700,6.332671630859375,0.7977893948554993,0.3042106628417969,0.43371400237083435
1789402390846598100,6.34259814453125,0.9016364216804504,0.5717694163322449,0.4776962697505951
1789402390856524500,6.352524658203125,1.0103703737258911,0.8442151546478271,0.5204567909240723
1789402390866450700,6.36245068359375,1.137430191040039,0.972496747970581,0.5497782826423645
1789402390876377000,6.372377197265625,1.275485634803772,0.7648026943206787,0.5717694163322449
1789402390886303200,6.38230322265625,1.4001020193099976,0.360410213470459,0.6181951761245728
1789402390896229600,6.392229736328125,1.5063925981521606,-0.036651886999607086,0.7257073521614075
1789402390906156000,6.402156005859375,1.6029092073440552,-0.33231043815612793,0.8161153197288513
1789402390916082200,6.412082275390625,1.6884303092956543,-0.4923570156097412,0.8307760953903198
1789402390926008600,6.422008544921875,1.731190800666809,-0.5400044918060303,0.8539889454841614
1789402390935935000,6.43193505859375,1.7275255918502808,-0.5119046568870544,0.8918625712394714
1789402390945861000,6.441861083984375,1.703091025352478,-0.37751442193984985,0.9517273306846619
1789402390955787500,6.45178759765625,1.6908737421035767,-0.10018182545900345,0.9810488224029541
1789402390965714000,6.4617138671875,1.6884303092956543,0.20280711352825165,0.9786053895950317
1789402390975640300,6.471640380859375,1.7055344581604004,0.40805765986442566,1.0348049402236938
1789402390985566700,6.481566650390625,1.7482949495315552,0.5864301919937134,1.0580178499221802
1789402390995493000,6.4914931640625,1.7788382768630981,0.695164144039154,1.0189224481582642
1789402391005419300,6.501419189453125,1.7690644264221191,0.6841685771942139,1.0018181800842285
1789402391015345700,6.511345703125,1.7336342334747314,0.627968966960907,0.9847140312194824
1789402391025272000,6.52127197265625,1.6615521907806396,0.5949822664260864,0.8943060636520386
1789402391035198500,6.531198486328125,1.5674790143966675,0.6084213256835938,0.8161153197288513
1789402391045124900,6.541124755859375,1.488066554069519,0.6621774435043335,0.768467903137207
1789402391055051300,6.55105126953125,1.4306453466415405,0.6169734001159668,0.6866120100021362
1789402391064977400,6.560977294921875,1.3402373790740967,0.49968740344047546,0.574212908744812
1789402391074903800,6.57090380859375,1.2143992185592651,0.33231043815612793,0.4764745235443115
1789402391084830200,6.580830322265625,1.0763437747955322,0.09285144507884979,0.3836230933666229
1789402391094756600,6.590756591796875,0.9419534802436829,-0.11239911615848541,0.34697118401527405
1789402391104683000,6.60068310546875,0.851545512676239,-0.2101374864578247,0.3139844834804535
1789402391114609200,6.610609130859375,0.8026763200759888,-0.18692462146282196,0.25411975383758545
1789402391124535600,6.62053564453125,0.7819069027900696,-0.09651663154363632,0.25534147024154663
1789402391134462000,6.6304619140625,0.768467903137207,-0.03543015569448471,0.2981020212173462
1789402391144388000,6.64038818359375,0.7574723362922668,0.0256563201546669,0.31520622968673706
1789402391154314500,6.650314453125,0.7232639193534851,0.21258094906806946,0.3738492429256439
1789402391164241000,6.660240966796875,0.6328558921813965,0.13927717506885529,0.41294458508491516
1789402391174167000,6.6701669921875,0.4557051360607147,-0.053756099194288254,0.41294458508491516
1789402391184093400,6.680093505859375,0.23212862014770508,-0.27000224590301514,0.3481929302215576
1789402391194019800,6.690019775390625,0.04276053607463837,-0.37629270553588867,0.2577849328517914
1789402391203946000,6.699946044921875,-0.11972949653863907,-0.328645259141922,0.17715078592300415
1789402391213872400,6.709872314453125,-0.2528980076313019,-0.15027274191379547,0.10384701192378998
1789402391223798500,6.719798583984375,-0.3750709891319275,-0.05864302068948746,0.001221729558892548
1789402391233725000,6.729724853515625,-0.5106829404830933,-0.11362084746360779,-0.11117739230394363
1789402391243651300,6.7396513671875,-0.6585122346878052,-0.20402882993221283,-0.2101374864578247
1789402391253577700,6.74957763671875,-0.7635809779167175,-0.2761108875274658,-0.2993237376213074
1789402391263504100,6.759504150390625,-0.8161153197288513,-0.3090975880622864,-0.3811796307563782
1789402391273430500,6.769430419921875,-0.84177166223526,-0.38850998878479004,-0.4569268524646759
1789402391283356700,6.779356689453125,-0.8478803038597107,-0.4373791813850403,-0.4935787320137024
1789402391293283000,6.789282958984375,-0.80389803647995,-0.3494146466255188,-0.4874700903892517
1789402391303209500,6.79920947265625,-0.6902772188186646,-0.1844811588525772,-0.4263836145401001
1789402391313135900,6.809135986328125,-0.5949822664260864,-0.11362084746360779,-0.3237583339214325
1789402391323062300,6.819062255859375,-0.5277871489524841,-0.059864748269319534,-0.2003636509180069
1789402391332988400,6.828988525390625,-0.4520399272441864,-0.012217295356094837,-0.09040798991918564
1789402391342914800,6.838914794921875,-0.41783151030540466,0.036651886999607086,0.01954767294228077
1789402391352841000,6.848841064453125,-0.4312705397605896,0.04153880476951599,0.0769689604640007
1789402391362767400,6.858767333984375,-0.41905322670936584,0.13927717506885529,0.007330377586185932
1789402391372693800,6.86869384765625,-0.43371400237083435,0.10873392969369888,0.03787361457943916
1789402391382620000,6.878619873046875,-0.45326167345046997,0.1185077652335167,0.11117739230394363
1789402391392546300,6.88854638671875,-0.4569268524646759,0.16615521907806396,0.06597339361906052
1789402391402472700,6.89847265625,-0.4361574649810791,0.13439024984836578,0.017104214057326317
1789402391412398800,6.90839892578125,-0.38850998878479004,0.003665188793092966,0.06719512492418289
1789402391422325200,6.9183251953125,-0.29443681240081787,-0.17348559200763702,0.17226386070251465
1789402391432251600,6.928251708984375,-0.18081597983837128,-0.36285367608070374,0.2516762912273407
1789402391442177800,6.938177734375,-0.09896009415388107,-0.6145299673080444,0.23335035145282745
1789402391452104200,6.948104248046875,-0.04886918142437935,-0.7867938280105591,0.0977383628487587
1789402391462030600,6.958030517578125,-0.01954767294228077,-0.8881973624229431,-0.053756099194288254
1789402391471957000,6.96795703125,-0.001221729558892548,-0.8943060636520386,-0.12950333952903748
1789402391481883400,6.97788330078125,-0.008552107028663158,-0.84177166223526,-0.1539379209280014
1789402391491809800,6.987809814453125,-0.02932151034474373,-0.6792816519737244,-0.1233946830034256
1789402391501736000,6.99773583984375,-0.05253437161445618,-0.5033525824546814,-0.08307760953903198
1789402391511662300,7.007662353515625,-0.06352993845939636,-0.4263836145401001,-0.12583814561367035
1789402391521588700,7.017588623046875,-0.03543015569448471,-0.38850998878479004,-0.2162461280822754
1789402391531515100,7.02751513671875,0.026878049597144127,-0.40805765986442566,-0.277332603931427
1789402391541441300,7.037441162109375,0.08063415437936783,-0.6328558921813965,-0.31520622968673706
1789402391551367700,7.04736767578125,0.08674279600381851,-0.7709113359451294,-0.35796675086021423
1789402391561293800,7.0572939453125,0.03909534588456154,-0.7281508445739746,-0.3860665261745453
1789402391571220200,7.06722021484375,-0.06475166976451874,-0.6291907429695129,-0.37140578031539917
1789402391581146600,7.077146728515625,-0.2003636509180069,-0.5436696410179138,-0.36163195967674255
1789402391591072800,7.08707275390625,-0.33108872175216675,-0.481361448764801,-0.3848448097705841
1789402391600999200,7.096999267578125,-0.43860089778900146,-0.5937605500221252,-0.3799578845500946
1789402391610925600,7.106925537109375,-0.5375609993934631,-0.7843503952026367,-0.35674503445625305
1789402391620851700,7.116851806640625,-0.6768381595611572,-0.8002328872680664,-0.3750709891319275
1789402391630778000,7.126778076171875,-0.8662062287330627,-0.7147117853164673,-0.4764745235443115
1789402391640704500,7.13670458984375,-1.0567960739135742,-0.685390293598175,-0.6780598759651184
1789402391650631000,7.146630859375,-1.176525592803955,-0.7929024696350098,-0.9382883310317993
1789402391660557000,7.15655712890625,-1.2070688009262085,-0.9957095980644226,-1.1423171758651733
1789402391670483500,7.1664833984375,-1.1740821599960327,-1.2339468002319336,-1.2241730690002441
1789402391680409900,7.176409912109375,-1.1227694749832153,-1.4037672281265259,-1.2388337850570679
1789402391690336300,7.186336181640625,-1.110552191734314,-1.442862629890442,-1.2510510683059692
1789402391700262700,7.1962626953125,-1.137430191040039,-1.3255765438079834,-1.2828160524368286
1789402391710189000,7.20618896484375,-1.1875211000442505,-1.102000117301941,-1.3451242446899414
1789402391720115200,7.216115234375,-1.2351685762405396,-0.8662062287330627,-1.4159845113754272
1789402391730041600,7.22604150390625,-1.2522728443145752,-0.6536253094673157,-1.4135410785675049
1789402391739968000,7.235968017578125,-1.2400555610656738,-0.471587598323822,-1.324354887008667
1789402391749894100,7.24589404296875,-1.2131774425506592,-0.3029889166355133,-1.176525592803955
1789402391759820500,7.255820556640625,-1.1728603839874268,-0.15515965223312378,-1.0873392820358276
1789402391769746700,7.26574658203125,-1.119104266166687,-0.030543239787220955,-1.110552191734314
1789402391779673000,7.275673095703125,-1.043357014656067,0.0818558782339096,-1.138651967048645
1789402391789599500,7.285599609375,-0.9786053895950317,0.2211330533027649,-1.0934479236602783
1789402391799525600,7.295525634765625,-0.8735366463661194,0.44837474822998047,-0.9541707634925842
1789402391809452000,7.3054521484375,-0.7757982611656189,0.7342594861984253,-0.813671886920929
1789402391819378400,7.31537841796875,-0.6462949514389038,1.0030399560928345,-0.7293725609779358
1789402391829304600,7.3253046875,-0.4972439408302307,1.128878116607666,-0.6304124593734741
1789402391839231000,7.33523095703125,-0.39828383922576904,1.092226266860962,-0.481361448764801
1789402391849157000,7.3451572265625,-0.35796675086021423,1.053130865097046,-0.328645259141922
1789402391859083500,7.35508349609375,-0.29443681240081787,1.072678565979004,-0.20769402384757996
1789402391869010000,7.365010009765625,-0.18692462146282196,1.1117738485336304,-0.16737695038318634
1789402391878936000,7.37493603515625,-0.07819069176912308,1.0482439994812012,-0.16249002516269684
1789402391888862500,7.384862548828125,0.03176496922969818,0.8662062287330627,-0.08674279600381851
1789402391898788900,7.394788818359375,0.15271618962287903,0.695164144039154,0.053756099194288254
1789402391908715000,7.404715087890625,0.27488914132118225,0.5876519083976746,0.20280711352825165
1789402391918641400,7.414641357421875,0.38240134716033936,0.49968740344047546,0.328645259141922
1789402391928567800,7.42456787109375,0.49602219462394714,0.45326167345046997,0.4728093445301056
1789402391938494000,7.434493896484375,0.6438514590263367,0.4263836145401001,0.6352993845939636
1789402391948420400,7.44442041015625,0.8185588121414185,0.4056142270565033,0.7745765447616577
1789402391958346800,7.4543466796875,0.9969313144683838,0.43982264399528503,0.9358448386192322
1789402391968273200,7.464273193359375,1.1716386079788208,0.5766563415527344,1.0739002227783203
1789402391978199600,7.474199462890625,1.3487894535064697,0.7550288438796997,1.1801908016204834
1789402391988125700,7.484125732421875,1.517388105392456,0.8991929292678833,1.2791508436203003
1789402391998052000,7.494052001953125,1.6346741914749146,0.9321796298027039,1.341459035873413
1789402392007978500,7.503978515625,1.7275255918502808,0.8649845123291016,1.4587451219558716
1789402392017905000,7.51390478515625,1.8154901266098022,0.7916807532310486,1.536935806274414
1789402392027831300,7.523831298828125,1.8985676765441895,0.7806851863861084,1.5760310888290405
1789402392037757400,7.53375732421875,1.9743149280548096,0.84177166223526,1.5625921487808228
1789402392047683800,7.543683837890625,1.9999712705612183,0.9419534802436829,1.4721840620040894
1789402392057610000,7.55360986328125,2.0109667778015137,1.092226266860962,1.4538581371307373
1789402392067536400,7.563536376953125,2.0378448963165283,1.1838558912277222,1.5125012397766113
1789402392077462800,7.573462890625,2.0940444469451904,1.1435388326644897,1.5222749710083008
1789402392087389000,7.583388916015625,2.1612396240234375,1.0030399560928345,1.4941751956939697
1789402392097315300,7.5933154296875,2.151465654373169,0.8014546036720276,1.4062107801437378
1789402392107241700,7.60324169921875,2.0549490451812744,0.6352993845939636,1.323133111000061
1789402392117167900,7.61316796875,1.9511021375656128,0.4263836145401001,1.352454662322998
1789402392127094300,7.62309423828125,1.9388848543167114,0.19792018830776215,1.3255765438079834
1789402392137020400,7.6330205078125,1.9767584800720215,-0.030543239787220955,1.2315033674240112
1789402392146946800,7.64294677734375,1.977980136871338,-0.21380266547203064,1.2192860841751099
1789402392156873200,7.652873291015625,1.9022328853607178,-0.17592905461788177,1.1948515176773071
1789402392166799400,7.66279931640625,1.7947207689285278,0,1.1423171758651733
1789402392176725800,7.672725830078125,1.6676608324050903,0.13927717506885529,1.0653481483459473
1789402392186652000,7.68265185546875,1.51616632938385,0.0977383628487587,0.9700532555580139
1789402392196578300,7.692578369140625,1.3646719455718994,-0.20158538222312927,0.8808670043945312
1789402392206504700,7.702504638671875,1.2412772178649902,-0.3396408259868622,0.8014546036720276
1789402392216430800,7.712430908203125,1.1398736238479614,-0.22846342623233795,0.7183769941329956
1789402392226357200,7.722357177734375,0.9944878816604614,-0.16859868168830872,0.6768381595611572
1789402392236283600,7.73228369140625,0.8503237962722778,-0.11606431007385254,0.7195987105369568
1789402392246209800,7.742209716796875,0.7550288438796997,-0.04153880476951599,0.750141978263855
1789402392256136200,7.75213623046875,0.6707295179367065,0.09896009415388107,0.7037162184715271
1789402392266062300,7.762062255859375,0.5424479246139526,0.1380554437637329,0.5913171172142029
1789402392275988700,7.77198876953125,0.3738492429256439,0.10506874322891235,0.42271843552589417
1789402392285915100,7.7819150390625,0.17837251722812653,0.012217295356094837,0.23823726177215576
1789402392295841300,7.79184130859375,-0.036651886999607086,-0.22968515753746033,0.06352993845939636
1789402392305767700,7.801767578125,-0.2309068888425827,-0.3970620930194855,-0.08796452730894089
1789402392315693800,7.81169384765625,-0.4557051360607147,-0.5351175665855408,-0.2724456787109375
1789402392325620200,7.8216201171875,-0.7171552777290344,-0.5485565662384033,-0.4789179861545563
1789402392335546600,7.831546630859375,-0.94439697265625,-0.3494146466255188,-0.6902772188186646
1789402392345472800,7.84147265625,-1.102000117301941,-0.11728604137897491,-0.9101884961128235
1789402392355399200,7.851399169921875,-1.1875211000442505,-0.040317077189683914,-1.0775654315948486
1789402392365325600,7.86132568359375,-1.1997383832931519,-0.006108647678047419,-1.156977891921997
1789402392375251700,7.871251708984375,-1.1753038167953491,0.001221729558892548,-1.1948515176773071
1789402392385178000,7.88117822265625,-1.1349867582321167,0.007330377586185932,-1.2168426513671875
1789402392395104300,7.891104248046875,-1.0763437747955322,0.012217295356094837,-1.1985167264938354
1789402392405030700,7.90103076171875,-1.0384701490402222,0.024434590712189674,-1.1142174005508423
1789402392414957000,7.91095703125,-1.0274745225906372,0.12217295914888382,-0.9553925395011902
1789402392424883200,7.92088330078125,-1.0189224481582642,0.2419024556875229,-0.7855721116065979
1789402392434809600,7.9308095703125,-1.0299180746078491,0.4007273018360138,-0.6792816519737244
1789402392444736000,7.940736083984375,-1.0604612827301025,0.5070177912712097,-0.5876519083976746
1789402392454662100,7.950662109375,-1.091004490852356,0.3958403766155243,-0.481361448764801
1789402392464588500,7.960588623046875,-1.137430191040039,0.13194678723812103,-0.5094612240791321
1789402392474514700,7.9705146484375,-1.2534945011138916,-0.17348559200763702,-0.7770199775695801
1789402392484441000,7.980441162109375,-1.3206896781921387,-0.14172062277793884,-1.0323615074157715
1789402392494367500,7.990367431640625,-1.3096940517425537,0.14172062277793884,-1.0323615074157715
1789402392504293600,8.000293701171875,-1.293811559677124,0.3347539007663727,-0.9834923148155212
1789402392514220000,8.010219970703124,-1.2095122337341309,0.3591884970664978,-0.9480621218681335
1789402392524146400,8.020146484375,-1.0506874322891235,0.23212862014770508,-0.8344413042068481
1789402392534072600,8.030072509765626,-0.8527672290802002,-0.03543015569448471,-0.6047561168670654
1789402392543999000,8.0399990234375,-0.6719512343406677,-0.40317076444625854,-0.3958403766155243
1789402392553925400,8.04992529296875,-0.526565432548523,-0.720820426940918,-0.34208428859710693
1789402392563851800,8.059851806640625,-0.41905322670936584,-0.7574723362922668,-0.3555232882499695
1789402392573778200,8.069778076171875,-0.4007273018360138,-0.6719512343406677,-0.3909534513950348
1789402392583704600,8.07970458984375,-0.44470956921577454,-0.6047561168670654,-0.48013970255851746
1789402392593630700,8.089630615234375,-0.5241219997406006,-0.564439058303833,-0.5913171172142029
1789402392603557000,8.09955712890625,-0.5925388336181641,-0.7855721116065979,-0.7318159937858582
1789402392613483500,8.1094833984375,-0.6169734001159668,-1.0470222234725952,-0.823445737361908
1789402392623409700,8.11940966796875,-0.6194168925285339,-1.2351685762405396,-0.8124501705169678
1789402392633335800,8.129335693359375,-0.6499601006507874,-1.4013237953186035,-0.7733548283576965
1789402392643262200,8.13926220703125,-0.665842592716217,-1.4343105554580688,-0.7965676784515381
1789402392653188400,8.149188232421874,-0.647516667842865,-1.29503333568573,-0.8686497211456299
1789402392663114500,8.159114501953125,-0.6096430420875549,-1.033583164215088,-0.9272927641868591
1789402392673040600,8.16904052734375,-0.6450732350349426,-0.9798271059989929,-0.9615011811256409
1789402392682967000,8.178967041015625,-0.7696896195411682,-0.9370665550231934,-1.0665699243545532
1789402392692893200,8.18889306640625,-0.8979712128639221,-0.9187406301498413,-1.2742639780044556
1789402392702819300,8.1988193359375,-0.9309579133987427,-1.091004490852356,-1.470962405204773
1789402392712745500,8.208745361328125,-0.8930842876434326,-1.227838158607483,-1.50028395652771
1789402392722671900,8.218671875,-0.8454368710517883,-1.2315033674240112,-1.3756674528121948
1789402392732598000,8.228597900390625,-0.8637627959251404,-1.1606431007385254,-1.2498292922973633
1789402392742524400,8.2385244140625,-0.9272927641868591,-0.9993748068809509,-1.2229512929916382
1789402392752450800,8.248450927734375,-0.9761618971824646,-0.8246674537658691,-1.296255111694336
1789402392762377000,8.258376953125,-1.0054833889007568,-0.6866120100021362,-1.380554437637329
1789402392772303400,8.268303466796874,-1.0115920305252075,-0.5387827157974243,-1.3487894535064697
1789402392782229500,8.2782294921875,-0.9944878816604614,-0.38850998878479004,-1.2046253681182861
1789402392792156000,8.288156005859374,-0.9419534802436829,-0.2528980076313019,-1.0677915811538696
1789402392802082300,8.298082275390625,-0.8527672290802002,-0.03543015569448471,-0.9541707634925842
1789402392812008400,8.308008544921876,-0.7672461867332458,0.23335035145282745,-0.8112284541130066
1789402392821934800,8.317934814453125,-0.6902772188186646,0.5229002237319946,-0.6780598759651184
1789402392831861200,8.327861328125,-0.5583304166793823,0.6487383842468262,-0.5290089249610901
1789402392841787400,8.337787353515624,-0.3811796307563782,0.6866120100021362,-0.30543237924575806
1789402392851713800,8.3477138671875,-0.21746785938739777,0.8002328872680664,-0.17715078592300415
1789402392861640000,8.357639892578124,-0.09285144507884979,0.9676098227500916,-0.11484257876873016
1789402392871566300,8.36756640625,0.028099779039621353,1.1606431007385254,-0.010995565913617611
1789402392881492700,8.37749267578125,0.1331685185432434,1.296255111694336,0.0818558782339096
1789402392891419000,8.3874189453125,0.14782927930355072,1.1789690256118774,0.18692462146282196
1789402392901345300,8.39734521484375,0.12583814561367035,0.9077450633049011,0.3335321843624115
1789402392911271400,8.407271484375,0.17104214429855347,0.7929024696350098,0.48991355299949646
1789402392921197800,8.41719775390625,0.2932150959968567,0.7049379348754883,0.6035344004631042
1789402392931124000,8.4271240234375,0.40927940607070923,0.41905322670936584,0.6841685771942139
1789402392941050400,8.43705029296875,0.5534434914588928,0.20769402384757996,0.8148936033248901
1789402392950976500,8.4469765625,0.7195987105369568,0.10140355676412582,0.9272927641868591
1789402392960903000,8.45690283203125,0.8539889454841614,-0.002443459117785096,0.9749401807785034
1789402392970829000,8.4668291015625,0.9676098227500916,0.10384701192378998,1.0274745225906372
1789402392980755200,8.476755126953124,1.0800089836120605,0.37751442193984985,1.0946696996688843
1789402392990681600,8.486681640625,1.1875211000442505,0.5998691916465759,1.1398736238479614
1789402393000607700,8.496607666015626,1.286481261253357,0.7538071274757385,1.1801908016204834
1789402393010534100,8.5065341796875,1.3891065120697021,0.833219587802887,1.2363903522491455
1789402393020460300,8.516460205078126,1.499062180519104,0.8295543789863586,1.314581036567688
1789402393030386700,8.52638671875,1.6090178489685059,0.9101884961128235,1.3353503942489624
1789402393040313000,8.53631298828125,1.682321548461914,1.1032217741012573,1.2742639780044556
1789402393050239500,8.546239501953124,1.6762129068374634,1.2241730690002441,1.2095122337341309
1789402393060166000,8.556165771484375,1.6334524154663086,1.29503333568573,1.2412772178649902
1789402393070092300,8.56609228515625,1.5638138055801392,1.4159845113754272,1.3463460206985474
1789402393080018400,8.576018310546875,1.4721840620040894,1.2107340097427368,1.2877029180526733
1789402393089944800,8.58594482421875,1.4721840620040894,0.8075632452964783,1.0201442241668701
1789402393099871200,8.595871337890625,1.4294235706329346,0.5925388336181641,0.6976075768470764
1789402393109797600,8.605797607421875,1.3292417526245117,0.42271843552589417,0.6976075768470764
1789402393119723800,8.615723876953124,1.2974767684936523,0.2993237376213074,0.9028581380844116
1789402393129650000,8.62564990234375,1.2009601593017578,-0.046425722539424896,0.8491020202636719
1789402393139576000,8.635576171875,1.1227694749832153,0.020769402384757996,0.9334014058113098
1789402393149502500,8.64550244140625,1.2095122337341309,0.41294458508491516,1.0543526411056519
1789402393159428600,8.6554287109375,1.2718204259872437,0.3909534513950348,0.8967494964599609
1789402393169354800,8.665354736328124,1.2999202013015747,0.18570289015769958,0.915075421333313
1789402393179281000,8.675281005859375,1.3683371543884277,0.07941242307424545,1.1129956245422363
1789402393189207300,8.685207275390624,1.3878847360610962,0.12095122784376144,1.0983349084854126
1789402393199133400,8.695133544921875,1.3891065120697021,0.4972439408302307,1.0189224481582642
1789402393209059600,8.7050595703125,1.2828160524368286,0.6267472505569458,0.8906408548355103
1789402393218986000,8.714986083984375,1.100778341293335,0.44348782300949097,0.80389803647995
1789402393228912000,8.724912109375,0.9272927641868591,0.3042106628417969,0.8674280047416687
1789402393238838500,8.734838623046874,0.7525854110717773,0.17837251722812653,0.8894191384315491
1789402393248765000,8.744764892578125,0.5473348498344421,0.007330377586185932,0.7367029190063477
1789402393258691000,8.754691162109374,0.26511532068252563,-0.1905898153781891,0.5009090900421143
1789402393268617500,8.764617431640625,-0.040317077189683914,-0.4007273018360138,0.2663370370864868
1789402393278543600,8.774543701171876,-0.22968515753746033,-0.31520622968673706,0.16859868168830872
1789402393288470000,8.784469970703125,-0.33108872175216675,-0.09407317638397217,0.15271618962287903
1789402393298396400,8.794396484375,-0.3811796307563782,0,0.10873392969369888
1789402393308322600,8.804322509765624,-0.4202749729156494,-0.09407317638397217,0.006108647678047419
1789402393318249000,8.8142490234375,-0.5229002237319946,-0.43982264399528503,-0.14660754799842834
1789402393328175000,8.824175048828126,-0.665842592716217,-0.7770199775695801,-0.3176496922969818
1789402393338101500,8.8341015625,-0.730594277381897,-0.7024945020675659,-0.471587598323822
1789402393348027600,8.844027587890626,-0.6743947267532349,-0.31642794609069824,-0.5143481492996216
1789402393357954000,8.8539541015625,-0.5864301919937134,0.15515965223312378,-0.41416633129119873
1789402393367880200,8.863880126953125,-0.4838049113750458,0.6548470258712769,-0.21380266547203064
1789402393377806300,8.873806396484374,-0.26022839546203613,0.9896009564399719,0.06841685622930527
1789402393387732700,8.883732666015625,-0.19181154668331146,0.9761618971824646,0.2577849328517914
1789402393397659000,8.893658935546876,-0.41416633129119873,0.516791582107544,0.14782927930355072
1789402393407585300,8.903585205078125,-0.6499601006507874,-0.06108647957444191,-0.25411975383758545
1789402393417511400,8.913511474609376,-0.6352993845939636,-0.10506874322891235,-0.627968966960907
1789402393427437800,8.923437744140625,-0.48991355299949646,0.05864302068948746,-0.6548470258712769
1789402393437364000,8.933364013671875,-0.45937031507492065,0.03787361457943916,-0.5705476999282837
1789402393447290400,8.943290283203124,-0.6389645338058472,-0.16004657745361328,-0.6401863098144531
1789402393457216800,8.953216796875,-0.8686497211456299,-0.12461641430854797,-0.7696896195411682
1789402393467143000,8.963142822265626,-0.9712749719619751,0.1026252806186676,-0.8307760953903198
1789402393477069300,8.9730693359375,-0.916297197341919,0.2993237376213074,-0.7550288438796997
1789402393486995500,8.982995361328125,-0.7831286191940308,0.3640754222869873,-0.5473348498344421
1789402393496921900,8.992921875,-0.6462949514389038,0.0977383628487587,-0.3848448097705841
1789402393506848300,9.00284814453125,-0.5070177912712097,-0.2626718580722809,-0.411722868680954
1789402393516774400,9.0127744140625,-0.3298669755458832,-0.43982264399528503,-0.526565432548523
1789402393526700800,9.02270068359375,-0.11972949653863907,-0.45326167345046997,-0.5766563415527344
1789402393536627200,9.032627197265626,0.007330377586185932,-0.5424479246139526,-0.5253437161445618
1789402393546553600,9.0425537109375,-0.009773836471140385,-0.7183769941329956,-0.4422661066055298
1789402393556480000,9.05247998046875,-0.0818558782339096,-0.8503237962722778,-0.43004879355430603
1789402393566406100,9.06240625,-0.13561198115348816,-0.80389803647995,-0.5094612240791321
1789402393576332500,9.07233251953125,-0.21746785938739777,-0.6169734001159668,-0.6145299673080444
1789402393586259000,9.082259033203124,-0.32009315490722656,-0.6267472505569458,-0.7159335017204285
1789402393596185300,9.092185302734375,-0.4251618981361389,-0.9517273306846619,-0.8735366463661194
1789402393606111700,9.10211181640625,-0.4776962697505951,-1.450192928314209,-1.1337649822235107
1789402393616038000,9.112037841796875,-0.4825831651687622,-1.703091025352478,-1.296255111694336
1789402393625964000,9.121964111328126,-0.5131264328956604,-1.4379756450653076,-1.2437206506729126
1789402393635890200,9.13189013671875,-0.6267472505569458,-0.9920443892478943,-1.186299443244934
1789402393645816300,9.14181640625,-0.7721330523490906,-0.6792816519737244,-1.2534945011138916
1789402393655742700,9.15174267578125,-0.9138537049293518,-0.8173370957374573,-1.4001020193099976
1789402393665668900,9.1616689453125,-0.9541707634925842,-1.4257583618164062,-1.5418226718902588
1789402393675595000,9.171594970703126,-0.8600975871086121,-1.9376630783081055,-1.5491530895233154
1789402393685521200,9.181521240234375,-0.7330377101898193,-1.915671944618225,-1.4294235706329346
1789402393695447300,9.191447265625,-0.7367029190063477,-1.5613703727722168,-1.3353503942489624
1789402393705373400,9.20137353515625,-0.8381064534187317,-1.2510510683059692,-1.3744457960128784
1789402393715299600,9.211299560546875,-0.9651663303375244,-1.0445787906646729,-1.5051708221435547
1789402393725225700,9.221225830078126,-1.100778341293335,-0.9016364216804504,-1.5809180736541748
1789402393735151900,9.23115185546875,-1.1728603839874268,-0.7574723362922668,-1.489288330078125
1789402393745078300,9.241078369140626,-1.2266165018081665,-0.4630354940891266,-1.284037709236145
1789402393755004400,9.25100439453125,-1.3170244693756104,-0.14172062277793884,-1.1814124584197998
1789402393764930800,9.260930908203125,-1.4294235706329346,0.08307760953903198,-1.1728603839874268
1789402393774857000,9.27085693359375,-1.4782928228378296,0.2968802750110626,-1.0409135818481445
1789402393784783000,9.280783203125,-1.4294235706329346,0.3591884970664978,-0.7819069027900696
1789402393794709500,9.29070947265625,-1.3487894535064697,0.4251618981361389,-0.6939423680305481
1789402393804635600,9.3006357421875,-1.1972949504852295,0.5375609993934631,-0.6389645338058472
1789402393814562000,9.31056201171875,-0.9700532555580139,0.6047561168670654,-0.4520399272441864
1789402393824488200,9.32048828125,-0.720820426940918,0.6316341757774353,-0.25411975383758545
1789402393834414600,9.33041455078125,-0.5216785073280334,0.6524035930633545,-0.1637117564678192
1789402393844340700,9.3403408203125,-0.48502662777900696,0.5717694163322449,-0.17715078592300415
1789402393854267000,9.350266845703125,-0.45937031507492065,0.7000510096549988,-0.19669845700263977
1789402393864193300,9.360193359375,-0.32009315490722656,1.0213658809661865,-0.0256563201546669
1789402393874119400,9.370119384765625,-0.10018182545900345,1.2889246940612793,0.2712239623069763
1789402393884045800,9.3800458984375,0.13072505593299866,1.3952151536941528,0.43371400237083435
1789402393893972000,9.389971923828124,0.2761108875274658,1.137430191040039,0.43004879355430603
1789402393903898000,9.399898193359375,0.38240134716033936,0.667064368724823,0.4630354940891266
1789402393913824500,9.409824462890626,0.5045742988586426,0.287106454372406,0.5974257588386536
1789402393923750700,9.419750732421875,0.6768381595611572,0.1380554437637329,0.8772017955780029
1789402393933677000,9.429677001953126,0.8576541543006897,0.2003636509180069,1.0641264915466309
1789402393943603200,9.439603271484375,1.0201442241668701,0.32131487131118774,1.0201442241668701
1789402393953529300,9.449529296875,1.2095122337341309,0.40805765986442566,1.0470222234725952
1789402393963455700,9.459455810546874,1.4110976457595825,0.49113526940345764,1.2180644273757935
1789402393973382000,9.4693818359375,1.536935806274414,0.5290089249610901,1.342680811882019
1789402393983308300,9.479308349609376,1.6297872066497803,0.5974257588386536,1.459966778755188
1789402393993234400,9.489234375,1.7544035911560059,0.6401863098144531,1.5393792390823364
1789402394003160800,9.499160888671875,1.8435899019241333,0.6401863098144531,1.452636480331421
1789402394013087000,9.5090869140625,1.9010112285614014,0.685390293598175,1.4159845113754272
1789402394023013400,9.519013427734375,1.9486587047576904,0.8356630206108093,1.4770710468292236
1789402394032939800,9.528939697265624,1.9327762126922607,1.0665699243545532,1.4721840620040894
1789402394042866000,9.538865966796875,1.9840887784957886,0.9908226728439331,1.4257583618164062
1789402394052792300,9.548792236328126,2.0476186275482178,0.924849271774292,1.4123194217681885
1789402394062718700,9.55871875,2.0696098804473877,0.8833104968070984,1.2608249187469482
1789402394072645000,9.56864501953125,2.0439536571502686,0.7819069027900696,1.2180644273757935
1789402394082571500,9.578571533203124,2.036623239517212,0.7086031436920166,1.3084723949432373
1789402394092498000,9.588497802734375,2.0402884483337402,0.6731730103492737,1.3109158277511597
1789402394102424000,9.598424072265624,1.9523237943649292,0.627968966960907,1.2388337850570679
1789402394112350500,9.6083505859375,1.7641774415969849,0.44837474822998047,1.130099892616272
1789402394122276600,9.618276611328126,1.635895848274231,0.3494146466255188,1.0274745225906372
1789402394132202800,9.62820263671875,1.5943571329116821,0.32131487131118774,1.0042617321014404
1789402394142129000,9.63812890625,1.5418226718902588,0.13927717506885529,1.0311397314071655
1789402394152055000,9.648054931640624,1.470962405204773,0.03787361457943916,1.0042617321014404
1789402394161981200,9.657981201171875,1.4233149290084839,0.01588248461484909,0.8527672290802002
1789402394171907300,9.6679072265625,1.3158026933670044,-0.03176496922969818,0.6841685771942139
1789402394181833500,9.67783349609375,1.1606431007385254,0.1233946830034256,0.7452550530433655
1789402394191759600,9.687759521484375,0.9822705388069153,0.2211330533027649,0.9028581380844116
1789402394201685800,9.697685791015624,0.7599157691001892,-0.1795942485332489,0.8674280047416687
1789402394211612000,9.70761181640625,0.5803215503692627,-0.4679224193096161,0.7391464114189148
1789402394221538300,9.717538330078124,0.43371400237083435,-0.3909534513950348,0.6316341757774353
1789402394231464400,9.72746435546875,0.2993237376213074,-0.040317077189683914,0.49480047821998596
1789402394241390600,9.737390625,0.0720820426940918,0.04886918142437935,0.2565632164478302
1789402394251317000,9.74731689453125,-0.27855435013771057,-0.15149445831775665,0.020769402384757996
1789402394261243100,9.7572431640625,-0.6560688018798828,-0.4263836145401001,-0.17226386070251465
1789402394271169500,9.76716943359375,-1.0115920305252075,-0.7061597108840942,-0.3909534513950348
1789402394281095700,9.777095703125,-1.2815942764282227,-0.7819069027900696,-0.5937605500221252
1789402394291022000,9.78702197265625,-1.3976585865020752,-0.5082395076751709,-0.7269290685653687
1789402394300948200,9.7969482421875,-1.362228512763977,-0.33108872175216675,-0.7648026943206787
1789402394310874400,9.806874267578126,-1.2632683515548706,-0.5290089249610901,-0.7819069027900696
1789402394320800800,9.81680078125,-1.2143992185592651,-0.6768381595611572,-0.823445737361908
1789402394330727000,9.826726806640625,-1.1924080848693848,-0.44837474822998047,-0.8784235715866089
1789402394340653000,9.836653076171874,-1.0763437747955322,0.08674279600381851,-0.8698714375495911
1789402394350579200,9.8465791015625,-0.8356630206108093,0.39217519760131836,-0.6389645338058472
1789402394360505300,9.85650537109375,-0.7000510096549988,0.2052505612373352,-0.3347539007663727
1789402394370431700,9.866431640625,-0.7623592615127563,0.04520399495959282,-0.27977606654167175
1789402394380358000,9.87635791015625,-0.7831286191940308,0.2101374864578247,-0.3225366175174713
1789402394390284000,9.886283935546874,-0.7599157691001892,0.5180133581161499,-0.2565632164478302
1789402394400210200,9.896210205078125,-0.7428115606307983,0.4312705397605896,-0.17715078592300415
1789402394410136600,9.906136474609376,-0.6878337264060974,0.003665188793092966,-0.2516762912273407
1789402394420062700,9.916062744140625,-0.6352993845939636,-0.11728604137897491,-0.38728827238082886
1789402394429988900,9.92598876953125,-0.5827649831771851,0.04886918142437935,-0.4312705397605896
1789402394439915300,9.935915283203125,-0.5131264328956604,0.19792018830776215,-0.3958403766155243
1789402394449841400,9.94584130859375,-0.43493571877479553,0.12461641430854797,-0.34574946761131287
1789402394459767800,9.955767822265624,-0.3298669755458832,-0.036651886999607086,-0.3029889166355133
1789402394469694000,9.96569384765625,-0.22846342623233795,-0.235793799161911,-0.27488914132118225
1789402394479620000,9.9756201171875,-0.1539379209280014,-0.45448338985443115,-0.2724456787109375
1789402394489546500,9.98554638671875,-0.13683371245861053,-0.5534434914588928,-0.26389357447624207
1789402394499472600,9.99547265625,-0.1649334877729416,-0.4825831651687622,-0.22968515753746033
1789402394509399000,10.00539892578125,-0.2406807243824005,-0.4410443603992462,-0.17837251722812653
1789402394519325200,10.0153251953125,-0.3897317349910736,-0.4581485986709595,-0.2260199636220932
1789402394529251600,10.02525146484375,-0.5033525824546814,-0.6047561168670654,-0.44959646463394165
1789402394539177700,10.035177734375,-0.48013970255851746,-0.7476984858512878,-0.7024945020675659
1789402394549104000,10.045104248046876,-0.3958403766155243,-0.6585122346878052,-0.8222240209579468
1789402394559030500,10.055030517578125,-0.36163195967674255,-0.7721330523490906,-0.8356630206108093
1789402394568956700,10.064956787109375,-0.3909534513950348,-1.2803726196289062,-0.8087849617004395
1789402394578883000,10.074883056640624,-0.48013970255851746,-1.6713260412216187,-0.8100066781044006
1789402394588809500,10.0848095703125,-0.564439058303833,-1.5430444478988647,-0.9187406301498413
1789402394598735600,10.094735595703124,-0.6389645338058472,-1.0580178499221802,-1.0983349084854126
1789402394608662000,10.104662109375,-0.7379246354103088,-0.7672461867332458,-1.2351685762405396
1789402394618588200,10.114588134765626,-0.8564324378967285,-0.7122683525085449,-1.3170244693756104
1789402394628514300,10.124514404296875,-1.0079269409179688,-0.8979712128639221,-1.3964369297027588
1789402394638440400,10.1344404296875,-1.1643083095550537,-0.9920443892478943,-1.497840404510498
1789402394648366600,10.14436669921875,-1.2803726196289062,-0.8796452879905701,-1.5442661046981812
1789402394658292700,10.154292724609375,-1.3377938270568848,-0.7660244107246399,-1.5051708221435547
1789402394668219000,10.164218994140626,-1.3548980951309204,-0.7061597108840942,-1.4672971963882446
1789402394678145000,10.17414501953125,-1.3854413032531738,-0.7195987105369568,-1.450192928314209
1789402394688071200,10.1840712890625,-1.3854413032531738,-0.6389645338058472,-1.3793326616287231
1789402394697997300,10.193997314453124,-1.3548980951309204,-0.32131487131118774,-1.1972949504852295
1789402394707923500,10.20392333984375,-1.3976585865020752,-0.360410213470459,-1.0360267162322998
1789402394717849900,10.213849853515624,-1.5198315382003784,-0.5949822664260864,-1.092226266860962
1789402394727776000,10.22377587890625,-1.536935806274414,-0.3836230933666229,-1.2315033674240112
1789402394737702100,10.2337021484375,-1.4391974210739136,-0.0769689604640007,-1.1142174005508423
1789402394747628300,10.243628173828125,-1.2192860841751099,0.4471530318260193,-0.7867938280105591
1789402394757554400,10.253554443359375,-0.9896009564399719,0.8784235715866089,-0.5522217750549316
1789402394767480800,10.263480712890624,-0.7757982611656189,0.7880155444145203,-0.3970620930194855
1789402394777407000,10.273406982421875,-0.5803215503692627,0.5888736248016357,-0.2370155304670334
1789402394787333000,10.2833330078125,-0.43004879355430603,0.6047561168670654,-0.13927717506885529
1789402394797259300,10.29325927734375,-0.37262752652168274,0.6389645338058472,-0.06597339361906052
1789402394807185400,10.303185302734375,-0.318871408700943,0.7965676784515381,0.08674279600381851
1789402394817111800,10.31311181640625,-0.18203771114349365,0.924849271774292,0.31154105067253113
1789402394827038000,10.323037841796875,0.06352993845939636,0.9480621218681335,0.5082395076751709
1789402394836964000,10.332964111328126,0.32620179653167725,1.0067051649093628,0.6438514590263367
1789402394846890500,10.342890380859375,0.5632173418998718,1.1887428760528564,0.7452550530433655
1789402394856816600,10.352816650390626,0.6866120100021362,1.138651967048645,0.720820426940918
1789402394866743000,10.362742919921875,0.7257073521614075,0.6963858604431152,0.768467903137207
1789402394876669200,10.372669189453125,0.8026763200759888,0.24801109731197357,0.9737184643745422
1789402394886595600,10.382595703125,0.9285144805908203,0.07452550530433655,1.0506874322891235
1789402394896521700,10.392521728515625,1.0641264915466309,0.11606431007385254,1.081230640411377
1789402394906448000,10.40244775390625,1.1447606086730957,0.36651885509490967,1.1313215494155884
1789402394916374300,10.412374267578125,1.1313215494155884,0.46547895669937134,1.0934479236602783
1789402394926300400,10.422300537109376,1.2510510683059692,0.5045742988586426,1.3451242446899414
1789402394936226600,10.4322265625,1.4782928228378296,0.5400044918060303,1.6383392810821533
1789402394946152700,10.442152587890625,1.6444480419158936,0.5900954008102417,1.5931353569030762
1789402394956079000,10.4520791015625,1.7006475925445557,0.5693259835243225,1.4282019138336182
1789402394966005200,10.462005126953125,1.6994258165359497,0.5986474752426147,1.3891065120697021
1789402394975931400,10.471931396484376,1.7043126821517944,0.8674280047416687,1.3927717208862305
1789402394985857500,10.481857421875,1.750738501548767,1.3548980951309204,1.303585410118103
1789402394995783700,10.49178369140625,1.8191553354263306,1.6578869819641113,1.1410953998565674
1789402395005710000,10.5017099609375,1.8668028116226196,1.6444480419158936,1.0567960739135742
1789402395015636200,10.51163623046875,1.8448116779327393,1.4587451219558716,1.0543526411056519
1789402395025562400,10.521562255859376,1.7849469184875488,1.2095122337341309,1.117882490158081
1789402395035488800,10.53148876953125,1.7641774415969849,1.0458004474639893,1.2009601593017578
1789402395045415200,10.541415283203126,1.7727296352386475,1.0018181800842285,1.1215476989746094
1789402395055341300,10.55134130859375,1.6420044898986816,0.8857539296150208,0.7757982611656189
1789402395065267700,10.561267822265625,1.3695588111877441,0.3909534513950348,0.4923570156097412
1789402395075194000,10.571194091796874,1.158199667930603,-0.07941242307424545,0.5106829404830933
1789402395085120300,10.581120361328125,1.0458004474639893,-0.03176496922969818,0.5253437161445618
1789402395095046700,10.591046630859376,0.9859357476234436,0.3249800503253937,0.47525280714035034
1789402395104972800,10.600972900390625,0.9761618971824646,0.3909534513950348,0.45326167345046997
1789402395114899200,10.610899169921876,0.8918625712394714,-0.14294235408306122,0.37629270553588867
1789402395124825600,10.62082568359375,0.7953459620475769,-0.4153880476951599,0.5021308660507202
1789402395134751700,10.630751708984375,0.7733548283576965,-0.2663370370864868,0.7244856357574463
1789402395144678100,10.64067822265625,0.8087849617004395,0.09529490768909454,0.7757982611656189
1789402395154604500,10.6506044921875,0.8649845123291016,0.4667007029056549,0.7550288438796997
1789402395164530700,10.66053076171875,0.758694052696228,0.31520622968673706,0.6866120100021362
1789402395174457000,10.67045703125,0.554665207862854,-0.008552107028663158,0.637742817401886
1789402395184383200,10.68038330078125,0.3738492429256439,-0.13927717506885529,0.6108647584915161
1789402395194308900,10.690308837890624,0.21746785938739777,-0.21868959069252014,0.5192350745201111
1789402395204234200,10.700234130859375,0.1380554437637329,-0.06475166976451874,0.4251618981361389
1789402395214160600,10.71016064453125,0.04153880476951599,-0.16249002516269684,0.3176496922969818
1789402395224086800,10.720086669921875,-0.12461641430854797,-0.5131264328956604,0.22724169492721558
1789402395234013200,10.73001318359375,-0.31642794609069824,-0.7611374855041504,0.12705987691879272
1789402395243939300,10.739939208984374,-0.471587598323822,-0.675616443157196,-0.0256563201546669
1789402395253865500,10.749865478515625,-0.5277871489524841,-0.16859868168830872,-0.1331685185432434
1789402395263791600,10.75979150390625,-0.44470956921577454,0.32009315490722656,-0.10140355676412582
1789402395273717800,10.7697177734375,-0.3958403766155243,0.15638138353824615,-0.04153880476951599
1789402395283644200,10.77964404296875,-0.4520399272441864,-0.09529490768909454,-0.06841685622930527
1789402395293570300,10.7895703125,-0.6450732350349426,-0.5656607747077942,-0.3139844834804535
1789402395303496400,10.799496337890625,-0.8662062287330627,-0.7855721116065979,-0.7709113359451294
1789402395313422800,10.8094228515625,-1.0128138065338135,-0.2052505612373352,-1.1753038167953491
1789402395323349000,10.819348876953125,-1.0042617321014404,0.8124501705169678,-1.1814124584197998
1789402395333275100,10.829275146484376,-0.8185588121414185,1.3182462453842163,-0.7330377101898193
1789402395343201300,10.839201171875,-0.7049379348754883,0.8991929292678833,-0.2467893660068512
1789402395353127400,10.84912744140625,-0.8295543789863586,0.4153880476951599,-0.16249002516269684
1789402395363053800,10.8590537109375,-0.915075421333313,0.2626718580722809,-0.37140578031539917
1789402395372980000,10.86897998046875,-0.7318159937858582,0.18814635276794434,-0.544891357421875
1789402395382906000,10.878906005859376,-0.40927940607070923,0.10995566099882126,-0.5021308660507202
1789402395392832300,10.888832275390625,-0.14782927930355072,-0.10384701192378998,-0.287106454372406
1789402395402758700,10.898758544921876,-0.002443459117785096,-0.47036588191986084,-0.10629047453403473
1789402395412684800,10.908684814453125,0.043982263654470444,-0.7415898442268372,-0.14660754799842834
1789402395422611000,10.91861083984375,0.0513126403093338,-0.7916807532310486,-0.3591884970664978
1789402395432537300,10.928537353515624,-0.026878049597144127,-0.7220421433448792,-0.6230821013450623
1789402395442463500,10.93846337890625,-0.19303326308727264,-0.554665207862854,-0.8356630206108093
1789402395452389600,10.9483896484375,-0.40317076444625854,-0.42271843552589417,-0.9272927641868591
1789402395462315800,10.958315673828125,-0.6084213256835938,-0.2614501118659973,-0.9566142559051514
1789402395472242000,10.968241943359375,-0.7770199775695801,-0.02932151034474373,-0.9358448386192322
1789402395482168300,10.978168212890624,-0.9089667797088623,0.013439024798572063,-0.8491020202636719
1789402395492094500,10.988094482421875,-0.9040798544883728,-0.35796675086021423,-0.8002328872680664
1789402395502020600,10.9980205078125,-0.7672461867332458,-0.831997811794281,-0.9028581380844116
1789402395511946800,11.00794677734375,-0.6145299673080444,-1.334128737449646,-1.0739002227783203
1789402395521873000,11.017872802734376,-0.5082395076751709,-1.6444480419158936,-1.099556565284729
1789402395531799300,11.02779931640625,-0.5351175665855408,-1.7776165008544922,-1.0323615074157715
1789402395541725400,11.037725341796875,-0.720820426940918,-1.673769474029541,-1.1398736238479614
1789402395551651600,11.047651611328124,-0.9505056142807007,-1.1887428760528564,-1.490510106086731
1789402395561577700,11.05757763671875,-1.0360267162322998,-0.6841685771942139,-1.7971642017364502
1789402395571504000,11.067504150390626,-0.972496747970581,-0.5106829404830933,-1.7360776662826538
1789402395581430300,11.07743017578125,-0.8967494964599609,-0.6426297426223755,-1.4294235706329346
1789402395591356400,11.0873564453125,-0.9871574640274048,-0.8442151546478271,-1.1826342344284058
1789402395601282600,11.097282470703124,-1.1716386079788208,-0.8100066781044006,-1.1154390573501587
1789402395611208700,11.107208740234375,-1.3158026933670044,-0.5998691916465759,-1.1655299663543701
1789402395621135000,11.117135009765626,-1.3658936023712158,-0.4202749729156494,-1.2693769931793213
1789402395631061200,11.127061279296875,-1.3683371543884277,-0.43004879355430603,-1.3695588111877441
1789402395640987400,11.1369873046875,-1.3646719455718994,-0.6597339510917664,-1.3451242446899414
1789402395650913500,11.14691357421875,-1.3194679021835327,-0.8759800791740417,-1.0934479236602783
1789402395660840000,11.15683984375,-1.285259485244751,-0.8283326625823975,-0.768467903137207
1789402395670766000,11.16676611328125,-1.2974767684936523,-0.5106829404830933,-0.6157516837120056
1789402395680692200,11.176692138671875,-1.2779290676116943,-0.06719512492418289,-0.5876519083976746
1789402395690618400,11.186618408203126,-1.1606431007385254,0.26022839546203613,-0.5558869242668152
1789402395700544800,11.196544677734375,-0.9883792400360107,0.23335035145282745,-0.44348782300949097
1789402395710471000,11.206470947265625,-0.8491020202636719,0.08918625861406326,-0.23212862014770508
1789402395720397000,11.21639697265625,-0.7367029190063477,0.3787361681461334,-0.1747073233127594
1789402395730323200,11.2263232421875,-0.5619956254959106,0.7562506198883057,-0.19792018830776215
1789402395740249300,11.236249267578126,-0.39217519760131836,0.8698714375495911,-0.030543239787220955
1789402395750175700,11.24617578125,-0.22479823231697083,0.8124501705169678,0.3017672002315521
1789402395760102000,11.256101806640626,-0.07941242307424545,0.7134900689125061,0.5925388336181641
1789402395770028000,11.266028076171875,0.05864302068948746,0.7391464114189148,0.695164144039154
1789402395779954200,11.2759541015625,0.23335035145282745,0.8344413042068481,0.5937605500221252
1789402395789880600,11.285880615234374,0.4251618981361389,0.7721330523490906,0.5070177912712097
1789402395799806700,11.295806640625,0.5338957905769348,0.6243038177490234,0.5595521330833435
1789402395809732900,11.30573291015625,0.5656607747077942,0.5949822664260864,0.7415898442268372
1789402395819659000,11.315658935546875,0.6133082509040833,0.6340776681900024,0.9321796298027039
1789402395829585200,11.325585205078125,0.7024945020675659,0.7476984858512878,1.0103703737258911
1789402395839511600,11.335511474609374,0.8649845123291016,0.7391464114189148,1.0873392820358276
1789402395849437700,11.345437744140625,1.0885610580444336,0.5180133581161499,1.1740821599960327
1789402395859363800,11.35536376953125,1.3096940517425537,0.20158538222312927,1.2461642026901245
1789402395869290000,11.3652900390625,1.5198315382003784,0.12217295914888382,1.324354887008667
1789402395879216000,11.375216064453125,1.6407828330993652,0.37140578031539917,1.2388337850570679
1789402395889142500,11.385142578125,1.646891474723816,0.7635809779167175,1.1557561159133911
1789402395899068700,11.395068603515625,1.617569923400879,1.099556565284729,1.2131774425506592
1789402395908994800,11.404994873046874,1.6126830577850342,1.25715970993042,1.2486076354980469
1789402395918921000,11.4149208984375,1.692095398902893,1.2034035921096802,1.237612009048462
1789402395928847000,11.42484716796875,1.7947207689285278,1.062904715538025,1.1459823846817017
1789402395938773200,11.434773193359375,1.8167119026184082,0.8759800791740417,0.9944878816604614
1789402395948699600,11.44469970703125,1.8252639770507812,0.9040798544883728,1.0225876569747925
1789402395958625800,11.454625732421874,1.8472551107406616,0.9749401807785034,1.128878116607666
1789402395968552000,11.464552001953125,1.8704679012298584,0.9944878816604614,1.186299443244934
1789402395978478000,11.47447802734375,1.8839069604873657,1.053130865097046,1.1899645328521729
1789402395988404200,11.484404296875,1.8106032609939575,0.934623122215271,1.0396918058395386
1789402395998330600,11.49433056640625,1.6334524154663086,0.5729911923408508,0.8539889454841614
1789402396008256800,11.5042568359375,1.4844014644622803,0.4520399272441864,0.748920202255249
1789402396018183000,11.514182861328125,1.4257583618164062,0.5962040424346924,0.7281508445739746
1789402396028109000,11.524109130859374,1.3842196464538574,0.6450732350349426,0.7599157691001892
1789402396038035200,11.53403515625,1.3292417526245117,0.48502662777900696,0.7012727856636047
1789402396047961600,11.543961669921876,1.1911863088607788,0.036651886999607086,0.5314523577690125
1789402396057887700,11.5538876953125,1.0665699243545532,-0.043982263654470444,0.5607738494873047
1789402396067814000,11.56381396484375,1.092226266860962,0.28588470816612244,0.7660244107246399
1789402396077740000,11.573739990234374,1.2351685762405396,0.5204567909240723,0.8393282294273376
1789402396087666200,11.583666259765625,1.1740821599960327,0.2626718580722809,0.6621774435043335
1789402396097592600,11.593592529296876,0.8735366463661194,-0.22968515753746033,0.4410443603992462
1789402396107518700,11.603518798828125,0.5302306413650513,-0.5021308660507202,0.35674503445625305
1789402396117444900,11.61344482421875,0.2919933497905731,-0.25045454502105713,0.30543237924575806
1789402396127371000,11.62337109375,0.17715078592300415,-0.013439024798572063,0.2211330533027649
1789402396137297400,11.63329736328125,0.11239911615848541,-0.1490510106086731,0.13072505593299866
1789402396147223600,11.6432236328125,-0.024434590712189674,-0.4935787320137024,-0.002443459117785096
1789402396157149700,11.653149658203125,-0.2052505612373352,-0.6084213256835938,-0.10629047453403473
1789402396167075800,11.663075927734376,-0.33719736337661743,-0.37751442193984985,-0.15760311484336853
1789402396177002000,11.673001953125,-0.41294458508491516,-0.3237583339214325,-0.18325942754745483
1789402396186928000,11.68292822265625,-0.4972439408302307,-0.6181951761245728,-0.24312418699264526
1789402396196854300,11.692854248046874,-0.5766563415527344,-0.7757982611656189,-0.3530798554420471
1789402396206780700,11.70278076171875,-0.5986474752426147,-0.6792816519737244,-0.4361574649810791
1789402396216706800,11.712706787109376,-0.5632173418998718,-0.43004879355430603,-0.4630354940891266
1789402396226633000,11.722633056640625,-0.4874700903892517,-0.03176496922969818,-0.4251618981361389
1789402396236559000,11.73255908203125,-0.41783151030540466,0.25045454502105713,-0.3433060050010681
1789402396246485200,11.7424853515625,-0.43982264399528503,0.2932150959968567,-0.31642794609069824
1789402396256411600,11.75241162109375,-0.5534434914588928,0.34086254239082336,-0.3396408259868622
1789402396266337800,11.762337890625,-0.750141978263855,0.19792018830776215,-0.45448338985443115
1789402396276264000,11.772263916015625,-0.9566142559051514,0.13439024984836578,-0.7086031436920166
1789402396286190000,11.782190185546876,-1.000596523284912,0.43371400237083435,-0.9101884961128235
1789402396296116200,11.7921162109375,-0.8784235715866089,0.657290518283844,-0.8564324378967285
1789402396306042400,11.80204248046875,-0.7379246354103088,0.4728093445301056,-0.6609556674957275
1789402396315968500,11.811968505859374,-0.6365211009979248,0.10384701192378998,-0.526565432548523
1789402396325895000,11.82189501953125,-0.536339282989502,-0.2260199636220932,-0.471587598323822
1789402396335821000,11.831821044921876,-0.43371400237083435,-0.4630354940891266,-0.4886918365955353
1789402396345747200,11.841747314453125,-0.32620179653167725,-0.5204567909240723,-0.5192350745201111
1789402396355673300,11.85167333984375,-0.2101374864578247,-0.5400044918060303,-0.4789179861545563
1789402396365599700,11.861599853515624,-0.1844811588525772,-0.758694052696228,-0.5119046568870544
1789402396375526000,11.87152587890625,-0.24556763470172882,-0.8454368710517883,-0.6890554428100586
1789402396385452000,11.8814521484375,-0.3066541254520416,-0.6792816519737244,-0.8112284541130066
1789402396395378200,11.891378173828125,-0.3530798554420471,-0.4935787320137024,-0.8527672290802002
1789402396405304300,11.90130419921875,-0.3946186602115631,-0.36285367608070374,-0.8381064534187317
1789402396415230500,11.91123046875,-0.4068359434604645,-0.4166097939014435,-0.695164144039154
1789402396425156600,11.921156494140625,-0.36163195967674255,-0.7134900689125061,-0.5180133581161499
1789402396435083000,11.9310830078125,-0.370184063911438,-1.0299180746078491,-0.5094612240791321
1789402396445009200,11.941009033203125,-0.5216785073280334,-1.2388337850570679,-0.7648026943206787
1789402396454935300,11.950935302734376,-0.7379246354103088,-1.2901464700698853,-1.1129956245422363
1789402396464861400,11.960861328125,-0.8979712128639221,-1.1313215494155884,-1.341459035873413
1789402396474787600,11.97078759765625,-0.9712749719619751,-0.9334014058113098,-1.431867003440857
1789402396484713700,11.980713623046874,-0.9517273306846619,-1.0311397314071655,-1.3915499448776245
1789402396494639900,11.990639892578125,-0.9309579133987427,-1.433088779449463,-1.2119556665420532
1789402396504566300,12.000566162109376,-0.9993748068809509,-1.6896519660949707,-1.061682939529419
1789402396514492400,12.010492431640625,-1.1117738485336304,-1.4550799131393433,-1.138651967048645
1789402396524418600,12.02041845703125,-1.196073293685913,-1.043357014656067,-1.3829978704452515
1789402396534344700,12.0303447265625,-1.2143992185592651,-0.9101884961128235,-1.5308271646499634
1789402396544271000,12.04027099609375,-1.2143992185592651,-1.000596523284912,-1.4294235706329346
1789402396554197200,12.050197265625,-1.3011419773101807,-1.082452416419983,-1.2510510683059692
1789402396564123400,12.060123291015625,-1.4306453466415405,-0.916297197341919,-1.2229512929916382
1789402396574049500,12.070049560546876,-1.5027273893356323,-0.6438514590263367,-1.2351685762405396
1789402396583975700,12.0799755859375,-1.4734058380126953,-0.5045742988586426,-1.0653481483459473
1789402396593901800,12.08990185546875,-1.3781108856201172,-0.21135921776294708,-0.758694052696228
1789402396603828000,12.099827880859374,-1.321911334991455,0.1637117564678192,-0.5253437161445618
1789402396613754400,12.10975439453125,-1.276707410812378,0.37751442193984985,-0.536339282989502
1789402396623680500,12.119680419921876,-1.1679733991622925,0.41416633129119873,-0.7415898442268372
1789402396633606700,12.129606689453125,-1.0739002227783203,0.38728827238082886,-0.7672461867332458
1789402396643532800,12.13953271484375,-1.0091485977172852,0.6096430420875549,-0.4520399272441864
1789402396653459000,12.149458984375,-0.9211840629577637,0.8735366463661194,-0.08063415437936783
1789402396663385000,12.159385009765625,-0.6841685771942139,0.84177166223526,0.14049890637397766
1789402396673311200,12.169311279296876,-0.4263836145401001,0.6438514590263367,0.13561198115348816
1789402396683237600,12.179237548828125,-0.22357651591300964,0.5216785073280334,0.07574722915887833
1789402396693163800,12.189163818359376,-0.08918625861406326,0.554665207862854,0.09896009415388107
1789402396703090000,12.19908984375,0.002443459117785096,0.5338957905769348,0.20769402384757996
1789402396713016000,12.20901611328125,0.10140355676412582,0.3909534513950348,0.38240134716033936
1789402396722942200,12.218942138671874,0.17837251722812653,0.40927940607070923,0.46425724029541016
1789402396732868400,12.228868408203125,0.26022839546203613,0.4667007029056549,0.49602219462394714
1789402396742794800,12.238794677734376,0.45326167345046997,0.7061597108840942,0.6304124593734741
1789402396752721000,12.248720947265625,0.768467903137207,1.1496474742889404,0.8222240209579468
1789402396762647000,12.25864697265625,1.1252129077911377,1.323133111000061,1.0128138065338135
1789402396772573200,12.2685732421875,1.313359260559082,1.0641264915466309,1.0580178499221802
1789402396782499300,12.278499267578125,1.3988803625106812,0.6927206516265869,1.0677915811538696
1789402396792425500,12.288425537109376,1.4966187477111816,0.39217519760131836,1.128878116607666
1789402396802351600,12.2983515625,1.6041308641433716,0.3848448097705841,1.1936297416687012
1789402396812278000,12.308278076171876,1.6859867572784424,0.5412262082099915,1.3011419773101807
1789402396822204200,12.3182041015625,1.7153083086013794,0.5852084755897522,1.3646719455718994
1789402396832130300,12.32813037109375,1.7055344581604004,0.5937605500221252,1.3158026933670044
1789402396842056400,12.338056396484374,1.692095398902893,0.5534434914588928,1.25715970993042
1789402396851982600,12.347982666015625,1.7201951742172241,0.6450732350349426,1.2693769931793213
1789402396861908700,12.35790869140625,1.7678426504135132,0.9810488224029541,1.3011419773101807
1789402396871835000,12.3678349609375,1.8277074098587036,1.227838158607483,1.3561197519302368
1789402396881761000,12.377760986328125,1.8374812602996826,1.2437206506729126,1.3891065120697021
1789402396891687200,12.387687255859374,1.7934989929199219,1.072678565979004,1.3781108856201172
1789402396901613600,12.397613525390625,1.7641774415969849,0.8002328872680664,1.33290696144104
1789402396911539700,12.407539794921876,1.7763947248458862,0.5326740741729736,1.1777472496032715
1789402396921465900,12.4174658203125,1.802051067352295,0.5412262082099915,1.0360267162322998
1789402396931392000,12.42739208984375,1.8716896772384644,0.833219587802887,1.1056652069091797
1789402396941318100,12.437318115234374,1.9559890031814575,1.2828160524368286,1.2302817106246948
1789402396951244300,12.447244384765625,1.9401065111160278,1.5796962976455688,1.1410953998565674
1789402396961170700,12.457170654296876,1.6505566835403442,1.1948515176773071,0.8454368710517883
1789402396971096800,12.467096923828125,1.1691951751708984,0.4043924808502197,0.7354812026023865
1789402396981023000,12.47702294921875,0.8087849617004395,-0.2712239623069763,0.8246674537658691
1789402396990949000,12.48694921875,0.6438514590263367,-0.6218603253364563,0.7733548283576965
1789402397000875300,12.496875244140625,0.5754346251487732,-0.4581485986709595,0.5974257588386536
1789402397010801400,12.506801513671874,0.40927940607070923,-0.2370155304670334,0.4043924808502197
1789402397020727600,12.5167275390625,0.2883281707763672,-0.04764745384454727,0.32009315490722656
